timestamp,accX,accY,accZ,gyrX,gyrY,gyrZ
11,-0.082031,-0.048828,1.014648,-2.929688,5.554199,7.385254
21,-0.053345,-0.080444,1.052246,-2.136230,5.310059,7.324219
30,0.000732,-0.166626,1.002563,-1.464844,5.310059,7.751465
41,0.027100,-0.194092,0.954468,-1.037598,5.676270,9.033203
50,0.088379,-0.188477,0.938354,-1.098633,5.920410,13.427734
60,0.034790,-0.142212,1.016724,-0.915527,6.286621,16.418457
71,-0.025635,-0.192871,1.027588,-0.488281,6.713867,18.798828
81,-0.054810,-0.190796,1.029541,-0.305176,6.958008,21.179199
90,-0.062988,-0.111450,1.052612,-0.366211,7.141113,22.644043
101,-0.091064,-0.180420,0.961670,-0.366211,7.507324,24.047852
110,-0.117554,-0.197266,0.919678,-0.244141,7.934570,25.634766
120,-0.090576,-0.193604,0.866455,-0.305176,7.873535,29.296875
132,-0.106567,-0.284424,0.831299,-1.281738,8.361816,31.494141
141,-0.103882,-0.215332,0.886230,-1.953125,8.789063,33.691406
151,-0.106323,-0.186768,0.919556,-2.075195,8.789063,36.132812
160,-0.124268,-0.235840,0.954956,-2.014160,9.216309,38.330078
170,-0.093872,-0.177002,1.087769,-1.770020,9.399414,39.367676
181,-0.077393,-0.138306,1.113647,-1.342773,9.460449,40.283203
190,-0.054810,-0.250732,1.078979,-0.671387,8.666992,39.611816
202,-0.035156,-0.253662,0.917358,-0.366211,7.995605,38.757324
212,-0.008911,-0.191406,0.921021,-0.610352,6.652832,37.963867
221,-0.013916,-0.099365,1.050293,-1.281738,5.737305,37.597656
231,-0.013428,-0.047363,1.080200,-1.770020,5.676270,37.231445
240,0.012573,-0.088745,1.106689,-1.403809,5.676270,37.414551
251,0.040894,-0.044434,1.116333,-1.403809,5.126953,37.231445
260,0.014526,-0.045532,1.119507,-0.854492,3.479004,36.132812
272,-0.008423,-0.226440,0.969482,-0.305176,2.746582,34.729004
281,0.045654,-0.128418,1.014038,-0.915527,2.014160,33.691406
291,0.031372,0.017578,1.059814,-0.854492,1.464844,32.958984
300,0.017822,0.011597,1.057129,-0.793457,0.488281,32.470703
311,-0.046997,-0.130005,1.029907,-0.366211,0.122070,32.653809
320,-0.026245,-0.245117,0.955078,-0.183105,0.183105,32.714844
332,-0.023804,-0.120117,0.993774,-0.610352,0.244141,34.423828
342,-0.078125,-0.091675,0.979248,-0.671387,-0.671387,34.851074
351,-0.081787,-0.220581,0.921265,-0.427246,-0.732422,35.461426
361,-0.102173,-0.222900,0.940552,-0.488281,-0.610352,35.522461
371,-0.104126,-0.233276,0.975220,-0.549316,-0.427246,35.949707
380,-0.074341,-0.131104,1.005493,-0.732422,-0.244141,36.621094
390,-0.083374,-0.130371,1.013550,-0.305176,-0.427246,36.621094
400,-0.066650,-0.271362,0.923340,-0.122070,-0.854492,36.621094
410,-0.063477,-0.277222,0.938477,0.061035,-1.098633,36.010742
421,-0.030762,-0.202881,0.942261,0.000000,-1.708984,35.949707
431,-0.006958,-0.093872,0.983521,0.305176,-2.197266,35.522461
440,-0.082031,-0.086304,0.999390,0.305176,-2.380371,34.912109
451,-0.071167,-0.056396,1.131836,0.549316,-2.502441,33.935547
461,-0.112427,-0.014038,1.165527,0.793457,-2.258301,32.043457
470,-0.069580,-0.005981,1.149170,1.892090,-3.234863,26.977539
480,-0.073364,-0.151245,1.071655,2.929688,-3.845215,23.254395
491,-0.027588,-0.267090,0.998047,3.540039,-4.089355,19.042969
500,0.016724,-0.212891,0.937134,2.807617,-5.187988,15.197754
510,0.112183,-0.166382,0.878662,2.014160,-6.042480,12.023926
521,0.143311,-0.148560,0.742676,1.525879,-7.019043,10.437012
530,0.201660,-0.107422,0.788574,0.915527,-8.178711,9.338379
540,0.243408,-0.083618,0.893066,-0.427246,-10.009766,8.850098
552,0.154541,-0.001953,0.913696,-1.708984,-10.559082,8.361816
561,0.099609,-0.107910,0.976929,-1.525879,-10.498047,7.385254
571,0.117798,-0.196167,0.942383,-0.793457,-9.643555,6.774902
581,0.138794,-0.192627,0.943237,-0.549316,-9.765625,5.004883
590,0.049683,-0.053345,1.047607,-1.037598,-11.169434,2.136230
601,-0.037231,-0.056030,1.017456,-1.342773,-11.779785,-1.037598
610,-0.020386,-0.131592,1.048096,-0.549316,-11.779785,-7.934570
622,0.048340,-0.206787,0.992065,-0.122070,-12.573242,-11.108398
631,0.095581,-0.216064,0.980469,-0.122070,-12.878418,-14.587402
641,0.168823,-0.097290,0.959106,-0.915527,-13.610840,-16.662598
651,0.200073,-0.087036,0.979126,-1.281738,-13.427734,-17.578125
660,0.192993,-0.030518,1.043823,-1.464844,-13.244629,-17.456055
671,0.190186,-0.026367,1.079956,-1.220703,-13.793945,-17.333984
681,0.181519,-0.102905,1.009033,-1.037598,-13.854980,-15.380859
690,0.152222,-0.113770,1.072876,-0.854492,-14.160156,-15.136719
701,0.066406,-0.119995,1.021729,-0.732422,-13.610840,-13.732910
711,0.051270,-0.096191,0.991821,-0.793457,-12.939453,-12.634277
720,0.089600,-0.168213,0.967041,-0.732422,-12.451172,-11.901855
731,0.051270,-0.136230,1.001465,-1.159668,-12.512207,-10.620117
740,0.057129,-0.046997,1.067261,-1.464844,-12.634277,-10.253906
753,-0.009033,-0.180176,1.025391,-0.976562,-12.207031,-9.521484
762,-0.020752,-0.280029,0.953491,-0.671387,-11.718750,-10.437012
772,-0.037109,-0.303589,0.939453,-0.854492,-11.474609,-11.718750
782,-0.089355,-0.209229,0.986938,-1.464844,-11.535645,-13.549805
791,-0.114868,-0.165894,0.974121,-2.136230,-11.596680,-15.869141
801,-0.055298,-0.248901,0.923218,-1.953125,-10.681152,-18.005371
811,-0.025391,-0.241943,0.896973,-2.441406,-10.559082,-23.254395
823,0.085571,-0.149292,1.055054,-2.685547,-10.437012,-26.184082
833,0.129517,-0.121094,1.099854,-2.014160,-10.925293,-29.113770
842,0.166504,-0.135864,1.017944,-0.732422,-11.474609,-31.860352
852,0.224243,-0.209961,0.964600,0.488281,-12.084961,-34.057617
861,0.227295,-0.286865,0.886230,0.610352,-12.634277,-35.095215
871,0.217041,-0.305054,0.911987,-0.061035,-12.756348,-35.583496
881,0.121216,-0.211426,0.982178,-1.037598,-12.023926,-35.156250
891,0.081421,-0.120728,0.966553,-1.464844,-10.742188,-34.851074
900,0.034790,-0.210327,0.962891,-2.014160,-10.192871,-35.095215
911,-0.000244,-0.051758,1.029053,-2.624512,-9.338379,-35.156250
920,-0.008301,0.044312,1.052856,-2.685547,-8.605957,-35.644531
930,0.002441,0.005981,1.098022,-2.075195,-7.934570,-35.583496
941,0.023926,-0.065552,1.033081,-0.793457,-6.896973,-35.339355
951,0.009888,-0.097656,0.969971,-0.061035,-6.225586,-34.606934
960,-0.065796,-0.151611,0.929443,1.098633,-5.615234,-31.433105
970,-0.057251,-0.189453,0.887817,1.220703,-3.479004,-27.893066
981,-0.052734,-0.209961,0.853882,0.976562,-2.197266,-24.414062
991,-0.042969,-0.236694,0.908936,0.915527,-0.610352,-21.179199
1001,-0.093750,-0.266968,0.942627,0.915527,-0.122070,-18.554687
1011,-0.086182,-0.274780,0.924316,1.098633,0.122070,-17.700195
1022,-0.060547,-0.257813,0.881714,0.915527,1.831055,-16.479492
1032,-0.026245,-0.228638,0.995117,0.488281,2.563477,-16.235352
1042,0.005005,-0.176025,0.997803,0.366211,2.807617,-15.747070
1051,0.039185,-0.168579,0.972534,0.305176,2.624512,-14.709473
1061,0.015015,-0.231201,0.910156,-0.061035,2.990723,-13.488770
1070,0.098022,-0.225464,1.006348,-0.610352,3.356934,-11.840820
1081,0.031616,-0.081055,1.055908,-1.647949,3.662109,-10.375977
1090,-0.003418,-0.117676,1.067017,-2.014160,3.906250,-9.033203
1102,0.005493,-0.108887,0.988647,-1.586914,4.455566,-7.385254
1112,-0.005249,-0.167358,0.951904,-1.647949,4.089355,-6.469727
1121,-0.033813,-0.109009,1.041382,-1.831055,4.089355,-5.126953
1131,0.000488,-0.047119,1.016357,-2.197266,4.211426,-2.868652
1141,-0.041138,-0.050415,1.044312,-2.258301,3.967285,-0.122070
1151,-0.063110,-0.046265,1.060669,-1.770020,4.821777,2.563477
1162,-0.036011,-0.107788,1.060425,-0.793457,6.591797,7.568359
1172,-0.021851,-0.084961,1.000244,-0.671387,7.385254,8.239746
1181,0.010986,-0.151611,0.987061,-0.793457,6.713867,8.850098
1191,0.084717,-0.042236,0.999390,-1.098633,6.164551,8.972168
1201,0.097900,-0.076782,0.922485,-1.403809,4.882812,9.094238
1211,0.070679,-0.100220,0.907837,-2.014160,3.295898,9.460449
1221,0.036499,-0.058594,0.975708,-1.953125,2.380371,9.582520
1231,0.084595,-0.110352,0.950317,-2.258301,2.258301,10.009766
1242,0.002319,0.042114,1.110229,-3.295898,2.441406,11.352539
1251,-0.043457,-0.036621,1.018066,-3.173828,1.892090,11.535645
1261,-0.113892,-0.082397,0.990112,-2.441406,1.525879,11.413574
1271,-0.096069,-0.086304,1.009155,-2.014160,1.525879,10.986328
1281,-0.004517,-0.141235,1.012817,-1.831055,1.220703,10.192871
1291,0.027832,-0.158081,1.029297,-1.586914,0.915527,9.094238
1300,0.006592,-0.114990,0.964111,-1.708984,-0.061035,7.873535
1312,0.073364,-0.242920,0.888916,-2.136230,-0.976562,4.272461
1322,0.077148,-0.176880,0.951538,-2.563477,-2.014160,2.136230
1331,0.094971,-0.219849,0.902466,-3.295898,-2.807617,0.244141
1341,0.070068,-0.126587,0.953369,-4.028320,-3.845215,-1.464844
1350,0.108643,-0.095825,1.008789,-4.150391,-4.150391,-2.563477
1361,0.086914,-0.190308,0.944214,-4.089355,-4.577637,-3.540039
1371,0.134644,-0.092285,1.066895,-3.845215,-4.516602,-5.065918
1381,0.139160,-0.046509,1.043579,-2.685547,-5.554199,-5.920410
1391,0.055786,-0.092529,1.003418,-2.258301,-6.042480,-6.896973
1400,0.043457,-0.136841,1.002808,-2.075195,-6.591797,-7.629395
1411,0.071045,-0.148804,0.973633,-2.014160,-6.103516,-8.728027
1421,0.040161,-0.111816,1.026611,-2.136230,-7.263184,-9.704590
1431,0.026978,-0.133301,0.947144,-1.770020,-7.385254,-10.559082
1441,-0.011230,-0.204468,0.893677,-1.464844,-7.141113,-10.803223
1452,-0.023560,-0.144287,0.994507,-1.770020,-6.286621,-10.009766
1462,-0.053467,-0.178955,1.004028,-1.586914,-6.164551,-9.277344
1471,-0.048218,-0.209839,0.984497,-1.525879,-5.554199,-8.605957
1481,-0.000977,-0.175049,0.985474,-1.892090,-5.554199,-7.751465
1491,-0.017578,-0.138672,1.009399,-1.647949,-5.432129,-7.141113
1501,-0.003052,-0.203979,0.991821,-1.525879,-5.249023,-7.141113
1511,-0.000610,-0.172119,1.015625,-1.708984,-5.493164,-7.141113
1521,-0.006714,-0.195435,0.968872,-1.770020,-5.432129,-7.995605
1531,0.087402,-0.046387,0.998535,-2.075195,-5.249023,-8.483887
1541,0.044922,-0.125610,1.028687,-2.136230,-6.225586,-9.521484
1551,-0.002808,-0.128052,1.014282,-1.831055,-7.202148,-10.498047
1561,-0.012817,-0.156738,0.952759,-2.014160,-7.690430,-11.474609
1572,-0.004517,-0.076172,1.024536,-2.319336,-6.408691,-12.084961
1581,-0.013428,-0.115112,0.995850,-2.197266,-6.286621,-12.268066
1591,-0.009521,-0.084351,0.972778,-2.258301,-5.615234,-12.512207
1601,-0.111328,-0.161255,0.956665,-2.197266,-4.638672,-12.939453
1612,-0.145508,-0.067627,1.049316,-2.075195,-4.272461,-13.305664
1621,-0.121338,-0.191284,1.000122,-1.892090,-3.784180,-13.671875
1631,-0.144897,-0.156006,0.995239,-2.136230,-3.662109,-13.977051
1641,-0.152954,-0.147461,0.977661,-1.892090,-2.624512,-14.343262
1654,-0.131470,-0.098267,1.001465,-1.403809,-1.464844,-13.793945
1663,-0.092529,-0.176514,0.963257,-0.671387,-0.793457,-13.183594
1673,-0.082153,-0.167847,0.997681,-0.183105,-0.061035,-12.634277
1683,-0.047729,-0.210571,1.015381,0.122070,0.183105,-12.268066
1692,-0.071655,-0.081177,1.059326,0.305176,0.549316,-11.535645
1702,-0.068848,-0.143921,1.018555,1.281738,0.915527,-10.742188
1712,-0.097168,-0.215088,0.991821,2.441406,2.075195,-9.521484
1721,-0.061646,-0.264038,0.942749,2.502441,3.356934,-7.263184
1733,-0.079468,-0.143188,0.979858,1.831055,4.089355,-5.981445
1742,-0.130737,-0.052979,0.983154,1.953125,4.577637,-4.699707
1752,-0.086182,-0.191772,0.937744,2.319336,4.516602,-3.723145
1761,-0.101563,-0.092651,0.982300,2.258301,4.821777,-3.173828
1771,-0.081665,-0.182251,0.837036,2.014160,5.126953,-2.319336
1782,-0.099121,-0.039673,0.981323,1.647949,5.554199,-1.586914
1791,-0.079468,-0.207886,0.900024,1.403809,5.920410,-0.061035
1803,-0.113403,-0.122070,0.851074,-0.183105,6.652832,1.037598
1812,-0.079834,-0.079834,0.969116,-0.793457,7.263184,1.525879
1822,-0.102173,-0.057129,0.952637,-1.770020,7.629395,1.770020
1832,-0.030396,-0.027344,1.029785,-2.685547,7.690430,1.159668
1841,-0.103027,0.046387,1.047363,-2.807617,6.652832,-0.305176
1851,-0.063110,-0.011108,0.991455,-2.502441,6.225586,-1.647949
1864,0.017822,-0.026855,1.128662,-1.831055,6.164551,-4.333496
1873,0.026489,-0.010620,1.110962,-1.220703,5.737305,-5.798340
1883,0.078979,-0.044067,1.101563,-0.732422,4.760742,-6.530762
1892,0.106079,-0.055908,1.146851,-0.305176,4.455566,-7.019043
1902,0.129517,-0.089722,1.197266,0.610352,4.211426,-7.629395
1911,0.121216,-0.190674,1.040527,1.586914,3.723145,-8.666992
1921,0.081665,-0.277222,0.963501,2.380371,2.746582,-9.948730
1931,0.051758,-0.250854,0.917603,2.563477,2.380371,-10.986328
1942,-0.019653,-0.186768,0.849976,2.136230,3.234863,-11.718750
1952,-0.058960,-0.195435,0.820435,0.549316,3.479004,-11.901855
1961,-0.064697,-0.136353,0.920044,0.061035,4.028320,-12.329102
1972,-0.130371,-0.270630,0.879028,-0.061035,4.516602,-12.329102
1981,-0.081421,-0.088989,1.028198,-1.098633,4.882812,-12.390137
1991,-0.125488,-0.121826,1.053467,-1.464844,5.187988,-12.329102
2001,-0.118896,-0.005859,1.054810,-1.342773,5.065918,-12.268066
2013,-0.045288,-0.069580,1.061768,-0.488281,7.202148,-10.070801
2022,-0.050659,-0.118286,0.920654,-0.183105,8.300781,-8.789063
2032,-0.002075,-0.012085,1.026733,-0.427246,9.155273,-7.446289
2041,-0.021484,-0.050903,0.948730,-0.610352,9.704590,-5.310059
2051,-0.030151,0.009644,1.022217,-0.854492,10.192871,-2.685547
2061,-0.122192,-0.076294,0.951172,-0.854492,10.498047,0.305176
2072,-0.107056,0.028198,1.018555,-1.647949,12.390137,5.981445
2082,-0.174438,-0.020508,0.946533,-2.380371,12.939453,9.094238
2091,-0.220337,-0.019165,1.030884,-2.807617,13.977051,12.207031
2102,-0.219116,0.091553,1.131104,-2.929688,14.587402,14.343262
2111,-0.249390,-0.050293,1.038574,-2.014160,15.502930,16.296387
2121,-0.221436,-0.016968,1.174805,-1.342773,16.296387,17.761230
2132,-0.202881,-0.231567,1.082397,-0.732422,16.479492,18.859863
2141,-0.160767,0.058228,1.136963,0.793457,16.540527,21.057129
2153,-0.061157,-0.124634,1.039551,1.831055,16.540527,22.277832
2162,-0.060181,-0.350098,0.929687,2.807617,16.540527,23.986816
2171,-0.034790,-0.169067,0.900269,2.746582,16.540527,25.329590
2182,-0.036133,-0.271851,0.844727,2.380371,16.174316,26.672363
2191,0.011841,-0.294067,0.858032,1.953125,15.808105,27.709961
2202,-0.016724,-0.303223,0.917725,0.976562,15.502930,28.076172
2211,-0.025269,-0.185669,1.043091,0.549316,13.610840,24.963379
2223,-0.036377,-0.082031,1.102783,0.366211,13.061523,23.010254
2232,-0.045166,-0.261475,1.077881,0.732422,12.145996,20.629883
2242,0.001953,-0.187012,0.994263,0.305176,11.291504,18.249512
2251,0.053467,-0.172119,1.017822,-0.488281,10.498047,16.723633
2261,0.103516,-0.100708,0.934326,-0.549316,9.948730,15.686035
2271,0.150269,-0.082642,1.007202,-0.244141,8.850098,15.197754
2283,0.138306,-0.168335,1.004028,0.244141,7.324219,15.197754
2293,0.104492,-0.276123,0.904419,0.183105,7.019043,15.075684
2302,0.137329,-0.107300,1.069458,-0.122070,6.347656,14.892578
2311,0.104614,-0.299927,0.933350,-0.061035,5.371094,14.343262
2321,0.159180,-0.104980,1.033813,-0.122070,4.272461,13.305664
2331,0.125610,-0.358154,0.879028,0.183105,3.051758,12.451172
2342,0.178711,-0.243896,0.927002,0.244141,2.075195,11.352539
2351,0.147827,-0.213013,0.938354,-0.244141,0.000000,9.094238
2361,0.171021,-0.115234,0.931763,-0.427246,-0.610352,7.995605
2371,0.146118,-0.174316,0.950317,-0.488281,-1.281738,6.896973
2381,0.143066,-0.018188,1.047119,-0.488281,-1.708984,5.615234
2391,0.115479,-0.189331,0.920044,-0.366211,-2.746582,4.394531
2401,0.111938,0.006470,1.033203,-0.549316,-3.051758,3.784180
2412,0.121582,-0.048584,1.027344,-0.366211,-3.356934,3.540039
2422,0.100098,-0.053833,0.980347,-0.366211,-4.516602,2.624512
2431,0.088989,0.078125,1.096558,-0.183105,-4.211426,2.563477
2441,0.046143,0.028320,1.108643,-0.244141,-3.967285,2.075195
2452,0.012939,-0.057739,1.078003,-0.366211,-4.150391,1.586914
2461,0.000854,-0.092041,0.970093,-0.427246,-4.394531,0.976562
2471,-0.015869,-0.037109,0.985840,-0.854492,-4.455566,0.610352
2481,0.018188,-0.137329,0.964722,-1.159668,-4.028320,0.610352
2494,0.016602,-0.180542,0.948730,-2.380371,-4.394531,0.793457
2503,-0.044556,-0.031372,1.039795,-3.234863,-3.723145,1.892090
2513,-0.013306,-0.187866,0.995117,-3.417969,-2.990723,2.502441
2522,-0.016602,-0.024414,1.055298,-3.356934,-2.868652,2.441406
2532,-0.002319,-0.237305,0.911255,-2.929688,-2.990723,2.685547
2542,0.013916,-0.087769,1.000610,-2.929688,-3.479004,2.441406
2551,0.037354,-0.231934,0.946899,-3.112793,-3.784180,2.319336
2561,0.037476,-0.080933,0.997681,-4.089355,-3.417969,2.868652
2572,0.080933,-0.087158,0.954224,-4.455566,-2.929688,3.906250
2582,0.119019,-0.025635,1.023315,-4.394531,-3.173828,4.211426
2591,0.087769,-0.143188,0.974243,-4.089355,-3.540039,4.150391
2601,0.145386,0.008667,1.130493,-3.967285,-4.150391,3.295898
2611,0.000000,-0.198120,0.988892,-3.723145,-5.126953,2.441406
2621,0.004761,-0.001709,1.056885,-3.173828,-5.493164,1.037598
2633,0.018555,-0.096313,0.971191,-2.014160,-5.310059,-1.037598
2644,-0.010132,-0.175049,0.924438,-1.525879,-5.432129,-1.770020
2653,0.009277,-0.198730,0.882080,-1.770020,-5.187988,-1.953125
2663,0.000488,-0.198730,0.839233,-1.831055,-5.187988,-2.075195
2672,0.027710,-0.171143,0.930786,-2.136230,-5.004883,-2.380371
2682,0.018433,-0.129028,0.907104,-2.380371,-4.760742,-3.295898
2692,0.012085,-0.177002,0.943726,-2.319336,-5.126953,-3.662109
2701,0.032715,-0.091431,1.080933,-1.953125,-4.760742,-4.028320
2711,0.077637,-0.209229,1.065186,-1.220703,-4.516602,-3.845215
2722,0.084717,-0.149048,1.004028,-0.427246,-5.310059,-3.479004
2731,0.090332,-0.275635,0.994507,-0.183105,-5.310059,-2.929688
2741,0.077515,-0.103394,1.116089,-0.244141,-5.187988,-2.624512
2751,0.037476,-0.306885,0.958374,-0.305176,-4.699707,-1.831055
2761,-0.020630,-0.104248,0.974121,-0.793457,-4.516602,-1.098633
2771,0.009766,-0.209473,0.953735,-1.281738,-4.272461,0.000000
2782,-0.049805,-0.025146,0.946167,-3.295898,-3.295898,2.380371
2792,-0.063232,-0.152832,0.986206,-3.540039,-3.234863,3.784180
2802,-0.046631,0.002441,1.125610,-3.417969,-2.685547,4.699707
2811,-0.020996,-0.086060,1.130005,-2.868652,-3.051758,5.249023
2821,-0.036987,-0.081421,1.032227,-2.380371,-3.051758,5.981445
2830,-0.035278,-0.092285,1.112915,-1.892090,-3.112793,6.896973
2842,-0.021240,-0.272461,0.958130,-0.976562,-2.563477,8.422852
2852,-0.041260,-0.203613,0.878296,-1.159668,-2.075195,9.460449
2862,-0.085571,-0.062622,0.914795,-1.464844,-1.708984,10.192871
2871,-0.111694,-0.124023,0.924194,-1.708984,-1.403809,10.437012
2881,-0.156982,-0.204224,0.853149,-2.136230,-1.525879,10.192871
2891,-0.203857,0.043579,1.008423,-2.258301,-1.708984,9.094238
2900,-0.167236,-0.255493,0.933228,-1.831055,-1.770020,7.995605
2910,-0.191406,-0.139160,1.009766,-1.647949,-1.586914,7.019043
2922,-0.231445,-0.192505,0.950317,-1.770020,-0.610352,5.371094
2932,-0.219238,-0.003662,1.050415,-1.342773,0.061035,5.126953
2942,-0.188843,-0.195068,1.026733,-0.671387,1.342773,4.394531
2952,-0.201050,-0.265259,0.949341,-0.610352,1.831055,3.723145
2961,-0.172974,0.019775,1.099976,-0.427246,2.685547,2.868652
2970,-0.111206,-0.145752,1.087402,0.061035,3.112793,2.258301
2982,-0.095337,-0.092041,1.016357,0.854492,3.173828,-0.122070
2992,0.001343,-0.178955,1.000122,1.770020,2.990723,-1.464844
3001,0.056274,-0.149780,0.931274,2.075195,2.868652,-2.014160
3011,0.197510,-0.066406,0.997925,1.708984,2.441406,-2.380371
3021,0.217773,-0.184570,0.895264,0.793457,1.831055,-2.868652
3030,0.212036,0.001709,0.945801,-0.183105,0.854492,-3.417969
3041,0.213501,-0.233643,0.916626,-0.427246,0.000000,-3.601074
3051,0.205322,-0.103638,0.926758,-1.281738,-0.366211,-3.906250
3062,0.130737,-0.186401,0.950562,-2.319336,-1.586914,-5.432129
3072,0.098999,0.027954,1.077393,-2.197266,-1.831055,-6.286621
3081,0.065918,-0.258789,0.968750,-2.136230,-2.441406,-7.019043
3091,0.052856,-0.039063,1.056885,-2.136230,-2.441406,-7.751465
3101,0.082764,-0.039917,1.070435,-1.647949,-2.502441,-8.605957
3111,0.029175,-0.315796,0.924194,-0.915527,-2.441406,-9.582520
3120,0.030884,-0.013062,0.987183,-0.915527,-2.319336,-10.437012
3132,0.019531,-0.135498,0.847046,-0.976562,-1.770020,-10.742188
3142,-0.018799,-0.050293,1.036499,-1.464844,-1.342773,-10.559082
3151,-0.014038,-0.121460,0.976196,-1.892090,-1.098633,-10.314941
3161,-0.055542,-0.080688,1.018555,-2.197266,-0.549316,-9.704590
3171,-0.038818,-0.089966,0.964600,-2.136230,0.427246,-8.422852
3181,-0.063232,-0.079468,0.938232,-2.258301,1.037598,-7.385254
3191,-0.027832,-0.009766,1.021118,-2.624512,2.197266,-4.821777
3201,-0.057739,-0.154785,0.918945,-2.685547,2.807617,-3.845215
3211,-0.010132,-0.209351,0.977051,-2.136230,3.662109,-2.624512
3221,-0.024048,-0.256470,0.892456,-1.953125,3.662109,-1.770020
3231,-0.033081,-0.066040,0.942627,-2.258301,3.662109,-1.281738
3240,-0.000244,-0.232666,0.877319,-2.685547,4.028320,-0.366211
3250,-0.070312,-0.106201,1.001465,-2.929688,4.333496,1.037598
3262,-0.030396,-0.024658,1.129395,-2.136230,5.187988,3.906250
3272,-0.051270,-0.137573,1.071899,-1.831055,5.615234,5.493164
3281,-0.106567,-0.120605,1.026978,-2.075195,6.103516,7.019043
3291,-0.110474,-0.166870,0.951050,-2.563477,6.530762,8.239746
3301,-0.063232,0.003418,0.968750,-2.746582,6.713867,9.094238
3311,-0.045166,-0.255859,0.864258,-2.685547,6.774902,9.582520
3320,-0.082031,-0.183350,0.919800,-3.356934,6.347656,9.948730
3332,-0.024414,-0.158447,0.970215,-4.028320,6.347656,10.314941
3341,-0.019653,0.088257,1.128906,-3.967285,6.530762,10.437012
3351,-0.018677,-0.226318,1.046387,-3.234863,6.530762,10.681152
3361,-0.055542,-0.281738,0.921631,-2.746582,6.469727,10.681152
3370,0.034424,-0.051025,1.042480,-2.502441,6.652832,10.253906
3381,0.020752,-0.447754,0.949341,-2.197266,6.103516,9.460449
3390,0.012207,-0.352783,0.909912,-2.685547,5.798340,7.995605
3402,0.070068,0.005249,1.050171,-2.990723,4.272461,4.089355
3412,0.103271,-0.223633,0.923828,-3.356934,3.479004,1.892090
3422,0.180786,-0.068970,0.985229,-3.906250,2.441406,0.122070
3431,0.189453,-0.148315,1.032837,-4.394531,1.708984,-1.220703
3441,0.174683,0.032837,1.111694,-4.333496,0.915527,-2.197266
3450,0.201050,-0.004883,1.207031,-3.234863,0.854492,-2.197266
3461,0.151245,-0.188599,1.021851,-2.258301,0.488281,-2.136230
3470,0.176147,-0.125244,0.954590,-1.831055,-0.122070,-2.197266
3482,0.175781,-0.202515,0.994629,-1.464844,-0.732422,0.061035
3492,0.155273,-0.135864,0.883423,-1.586914,-1.098633,1.098633
3501,0.136230,0.064331,1.004639,-1.831055,-1.098633,2.624512
3511,0.080078,-0.204712,0.955444,-1.770020,-1.098633,4.150391
3521,0.037354,-0.223145,0.866943,-2.014160,-0.976562,4.577637
3531,-0.031372,0.186646,1.035034,-2.624512,-1.098633,4.821777
3541,-0.052490,0.003540,1.005005,-2.624512,-1.281738,4.760742
3552,-0.166504,0.052246,0.948730,-1.892090,-0.732422,4.455566
3562,-0.134155,-0.218750,0.868774,-1.647949,-0.488281,4.577637
3571,-0.140381,-0.190430,0.837646,-2.319336,0.549316,5.249023
3581,-0.093506,-0.156860,0.763794,-2.868652,1.098633,6.103516
3591,-0.078735,-0.170898,0.786743,-4.089355,1.586914,7.019043
3601,-0.023682,-0.029297,0.822266,-5.310059,1.892090,8.056641
3611,-0.039795,-0.051758,0.894775,-6.347656,2.136230,8.483887
3622,0.042236,0.072388,1.109375,-5.920410,1.831055,9.033203
3632,0.061646,-0.080444,1.137817,-4.943848,1.281738,9.521484
3641,0.014038,-0.172729,1.068237,-3.601074,1.159668,10.131836
3651,0.050171,-0.033203,1.129150,-2.380371,1.281738,10.620117
3661,0.094482,-0.095947,1.120850,-2.197266,1.159668,11.047363
3671,0.072388,-0.263794,0.982666,-2.441406,0.671387,10.864258
3682,0.103882,-0.016113,1.047119,-2.502441,-0.488281,11.108398
3692,0.097534,-0.246948,0.958008,-2.258301,-1.220703,10.803223
3701,0.068604,-0.192627,0.939331,-2.502441,-1.953125,10.437012
3711,0.056152,0.093994,1.084717,-2.685547,-2.136230,10.437012
3721,0.081787,-0.214355,1.026123,-2.563477,-2.441406,10.498047
3731,0.016968,-0.252075,0.912109,-2.868652,-2.746582,10.070801
3740,0.023437,0.002075,1.079956,-3.173828,-3.234863,9.765625
3752,-0.034058,-0.155396,1.070801,-3.479004,-4.150391,7.690430
3762,-0.017944,-0.105591,1.036377,-3.601074,-4.455566,6.530762
3771,0.011597,-0.173096,0.993896,-3.295898,-4.943848,5.371094
3782,-0.008545,-0.255005,0.896484,-3.356934,-4.882812,4.455566
3792,0.037598,0.035034,1.067017,-3.540039,-5.126953,4.272461
3802,0.089233,-0.018921,1.110352,-3.356934,-4.577637,4.760742
3811,0.033936,-0.291504,0.971802,-3.112793,-4.577637,5.310059
3821,0.044922,-0.166382,1.028809,-3.051758,-4.577637,5.859375
3831,0.008301,0.057983,1.084595,-1.831055,-4.699707,6.225586
3841,-0.108276,-0.465454,0.864624,-1.525879,-4.638672,6.225586
3851,-0.095337,-0.064331,0.944092,-1.708984,-4.516602,6.103516
3860,-0.071655,0.049805,1.049316,-1.770020,-3.601074,6.469727
3871,-0.108887,-0.287720,0.809814,-1.586914,-3.540039,6.591797
3881,-0.077881,-0.144287,0.826172,-1.464844,-3.417969,6.469727
3891,-0.046997,-0.074463,0.898437,-0.732422,-3.051758,6.286621
3900,-0.026855,-0.323975,0.819336,-1.220703,-3.662109,5.371094
3912,-0.036743,0.106812,1.451660,-0.854492,-3.845215,4.455566
3921,-0.077026,0.283569,1.699097,1.159668,-3.601074,3.662109
3931,-0.086548,0.122437,1.660156,4.638672,-3.784180,3.173828
3940,-0.077881,-0.262817,1.256714,8.666992,-3.662109,2.563477
3951,-0.111816,-0.408691,0.995239,10.009766,-2.563477,2.380371
3961,-0.138550,-0.329956,0.936890,9.704590,-0.915527,3.356934
3970,-0.186890,-0.421509,0.718994,7.446289,0.244141,4.516602
3982,-0.115234,-0.091064,0.680298,5.187988,0.732422,3.906250
3991,-0.010864,-0.102783,0.814941,3.051758,0.305176,2.807617
4001,0.045410,-0.127441,1.026367,1.586914,0.061035,1.098633
4011,0.123291,-0.015259,1.234985,0.854492,-0.915527,-0.488281
4021,0.084961,0.029663,1.245361,0.915527,-1.892090,-1.953125
4032,0.063110,-0.068237,1.174805,2.380371,-1.770020,-2.563477
4042,0.093384,-0.111328,1.029053,3.051758,-1.586914,-2.136230
4051,0.046753,0.015015,1.055664,3.356934,-1.464844,-1.403809
4061,0.084229,0.090576,1.050537,3.417969,-1.098633,-0.976562
4071,0.015381,0.065674,1.077393,3.540039,-0.854492,-0.854492
4081,0.088013,-0.037231,1.098389,3.662109,-1.464844,-1.464844
4091,0.042969,-0.133789,1.086670,4.333496,-1.770020,-2.624512
4101,0.055054,-0.166992,1.008057,4.882812,-2.624512,-4.577637
4112,0.064331,-0.085693,0.941895,5.187988,-2.868652,-5.004883
4122,0.046875,-0.291138,0.768433,4.699707,-2.746582,-5.004883
4131,-0.015137,-0.384033,0.669434,3.784180,-2.685547,-4.943848
4141,0.010986,-0.196777,0.672241,2.319336,-2.624512,-4.577637
4151,0.018188,-0.033447,0.797607,1.342773,-2.014160,-3.845215
4161,0.028931,-0.047119,0.962402,1.647949,-1.647949,-4.333496
4170,-0.010376,-0.063354,0.899902,2.136230,-1.586914,-5.798340
4182,-0.021362,-0.289185,0.891846,2.807617,-1.220703,-8.728027
4192,0.030151,-0.305298,0.872314,1.708984,-1.403809,-10.131836
4201,0.002441,-0.379150,0.853882,0.671387,-1.647949,-10.864258
4211,0.016235,-0.335083,0.929565,-1.525879,-1.770020,-10.986328
4221,-0.063965,0.061279,1.143799,-4.821777,-1.281738,-10.375977
4231,-0.084839,0.235107,1.300903,-7.080078,-0.244141,-9.826660
4240,-0.112915,0.217285,1.244873,-6.713867,1.220703,-9.887695
4252,0.005981,-0.035522,0.854980,-5.065918,2.136230,-9.826660
4261,0.024292,-0.282715,0.738159,-3.417969,2.746582,-9.155273
4271,0.046143,-0.032715,0.882690,-3.723145,2.624512,-7.995605
4280,0.112671,-0.026855,1.130249,-3.356934,3.173828,-6.408691
4291,0.058105,-0.259277,1.108765,-3.173828,3.112793,-5.065918
4300,0.000610,-0.223022,0.926636,-3.356934,3.173828,-5.310059
4312,-0.032471,-0.119019,0.966675,-4.211426,4.333496,-5.371094
4321,-0.006836,-0.301392,0.849976,-5.859375,5.432129,-5.126953
4332,0.009033,-0.110107,0.943115,-7.324219,5.554199,-4.821777
4342,-0.017578,0.054687,1.098511,-7.568359,5.676270,-4.089355
4351,-0.046997,-0.122437,1.084961,-6.469727,5.676270,-3.601074
4361,-0.020020,-0.302124,0.872070,-5.798340,5.798340,-3.173828
4371,-0.001465,-0.247192,0.873901,-6.225586,6.164551,-2.075195
4381,0.041016,-0.017700,0.981812,-6.958008,6.774902,2.258301
4392,0.065918,0.034912,1.164429,-7.507324,7.080078,4.638672
4402,0.050171,-0.189087,1.099487,-5.920410,7.080078,6.774902
4411,-0.006104,-0.118286,1.025879,-4.882812,6.958008,8.239746
4421,-0.001343,-0.078735,0.954468,-4.516602,7.141113,9.155273
4431,0.011230,-0.143188,0.898315,-4.150391,7.629395,10.131836
4441,-0.022217,-0.359131,0.914795,-3.723145,7.385254,10.742188
4451,-0.029541,-0.180786,0.897705,-3.051758,6.408691,11.657715
4461,0.038330,-0.107178,0.923218,-2.807617,6.225586,12.207031
4471,0.072510,-0.096802,0.960449,-3.601074,5.798340,12.268066
4481,0.046875,-0.002197,1.022095,-3.234863,5.676270,12.756348
4491,0.012207,0.018799,1.044800,-2.502441,5.554199,13.244629
4501,0.008423,-0.091919,1.052979,-1.708984,4.760742,13.366699
4512,-0.000244,-0.104614,1.066040,-1.586914,4.821777,13.488770
4521,0.017456,-0.063599,1.016724,-1.647949,3.662109,13.000488
4531,0.025879,-0.043579,0.949341,-1.586914,3.601074,13.183594
4542,-0.005981,-0.075317,0.845581,-1.708984,3.356934,13.000488
4551,-0.020386,-0.091431,0.944092,-2.441406,3.417969,12.512207
4561,-0.025391,0.087280,1.142944,-2.685547,3.479004,12.512207
4571,-0.028442,0.146118,1.209595,-1.647949,3.356934,12.268066
4581,-0.020508,0.023560,1.168701,-0.183105,3.356934,12.207031
4591,-0.013062,-0.136353,1.069580,1.098633,3.356934,12.756348
4602,0.151367,-0.232544,1.060913,2.746582,2.441406,12.817383
4612,0.110474,-0.134766,1.035767,2.685547,2.136230,12.939453
4621,0.121948,-0.101685,0.973633,2.563477,1.342773,12.634277
4631,0.106934,-0.310791,0.893555,2.502441,0.793457,11.962891
4641,0.123901,-0.399170,0.821899,1.220703,-0.061035,11.047363
4651,0.084595,-0.163086,0.919434,-0.427246,-0.976562,10.070801
4663,0.072754,0.026855,1.136597,-1.037598,-2.990723,9.460449
4673,0.111206,0.043457,1.089844,-0.854492,-3.479004,8.972168
4682,0.085083,-0.134888,1.153931,-0.488281,-3.295898,9.094238
4691,0.105225,-0.196167,1.060303,-0.183105,-3.417969,8.972168
4701,0.043701,-0.241211,0.940186,-0.122070,-3.479004,8.850098
4711,0.038574,-0.080200,0.821289,-0.305176,-3.906250,7.934570
4721,0.019531,-0.252808,0.737305,-0.915527,-4.272461,7.385254
4733,0.005249,0.017334,0.854736,-2.807617,-4.577637,6.103516
4743,-0.050659,0.004028,0.987549,-2.624512,-4.699707,5.859375
4753,-0.008057,-0.177856,0.957397,-2.136230,-4.699707,5.432129
4762,-0.059814,-0.362549,0.809448,-1.525879,-4.821777,5.004883
4772,-0.010742,-0.356201,0.781128,-2.319336,-4.394531,4.699707
4782,0.026733,-0.239624,0.847290,-3.601074,-4.516602,4.455566
4791,0.034790,0.007690,1.013916,-5.065918,-4.699707,4.089355
4801,0.008057,0.034180,1.051025,-5.004883,-5.187988,3.540039
4813,0.064819,-0.197266,1.011963,-3.601074,-5.065918,3.784180
4822,0.060669,-0.113403,0.993286,-3.662109,-5.126953,4.150391
4832,0.015259,-0.119141,1.052246,-3.234863,-4.394531,5.004883
4841,-0.021851,-0.049683,1.133545,-2.624512,-4.699707,5.676270
4851,-0.010376,-0.139771,1.181030,-1.037598,-4.394531,6.103516
4861,-0.031860,-0.191772,1.121338,-0.061035,-4.211426,5.920410
4872,-0.048096,-0.337158,1.058105,-0.915527,-4.211426,4.760742
4882,-0.111694,-0.187866,0.934326,-1.770020,-4.089355,4.333496
4891,-0.154175,-0.229858,0.858643,-2.807617,-4.150391,3.295898
4901,-0.094116,-0.248413,0.926514,-2.990723,-3.723145,3.479004
4912,-0.047852,-0.012207,1.034302,-3.051758,-3.417969,3.295898
4921,-0.027954,0.167847,1.291992,-3.234863,-3.051758,3.479004
4931,-0.067261,0.135254,1.370483,-2.563477,-2.563477,4.028320
4944,-0.040161,-0.092407,1.238770,0.854492,-2.563477,3.540039
4953,-0.051514,-0.319214,0.874756,2.746582,-3.112793,1.892090
4963,-0.066406,-0.282104,0.803589,2.258301,-2.929688,1.159668
4973,0.012207,-0.294678,0.695312,0.549316,-2.319336,0.732422
4982,-0.026733,-0.097656,0.673584,-1.770020,-2.014160,0.732422
4992,0.052002,0.176147,0.782104,-4.028320,-2.319336,0.610352
5002,0.059204,0.063232,0.872070,-4.821777,-2.319336,0.976562
5011,0.026489,-0.111084,0.785278,-4.028320,-3.173828,0.366211
5021,0.028809,-0.071899,0.827881,-4.028320,-2.868652,0.305176
5031,0.012573,0.145020,1.128662,-3.906250,-2.685547,-0.244141
5042,-0.004150,0.164673,1.157349,-2.685547,-2.746582,-0.183105
5051,-0.003540,-0.060059,1.022217,0.061035,-2.685547,-0.671387
5061,-0.047485,-0.300903,0.908081,2.441406,-2.624512,-1.037598
5072,-0.004639,-0.303833,1.004639,3.051758,-2.441406,-1.831055
5081,-0.011230,-0.154785,1.107666,3.540039,-2.380371,-3.234863
5091,-0.017944,-0.170532,0.979736,3.479004,-2.502441,-4.150391
5102,-0.058594,-0.297607,0.835815,2.990723,-1.770020,-4.211426
5112,-0.000122,-0.183105,0.989624,2.014160,-1.403809,-4.150391
5121,-0.071411,-0.060181,1.079590,1.281738,-0.793457,-4.089355
5131,-0.015503,-0.191162,0.867676,1.037598,-0.610352,-4.089355
5141,0.044678,-0.108521,0.881836,0.000000,-0.244141,-3.601074
5153,0.062500,-0.423828,0.406738,-2.929688,-0.183105,-3.295898
5163,0.155396,0.132812,0.785645,-6.958008,0.061035,-2.441406
5173,0.082153,0.436890,1.154053,-8.605957,0.793457,-1.403809
5182,-0.056274,0.363770,1.536011,-7.934570,0.488281,-1.770020
5192,0.007080,-0.171875,1.244263,-4.577637,0.488281,-2.319336
5201,0.045654,-0.517822,1.115845,-3.295898,0.061035,-4.333496
5211,-0.011108,-0.313965,1.002930,-5.554199,-0.793457,-5.920410
5224,0.074219,0.178711,1.026245,-9.399414,0.488281,-3.845215
5233,0.048462,-0.095337,0.949097,-8.972168,1.281738,-2.014160
5243,-0.060059,-0.038086,0.945190,-7.995605,1.464844,-1.464844
5252,-0.047852,0.075073,1.135620,-7.080078,1.464844,-1.342773
5262,-0.007935,0.051758,1.209595,-5.981445,1.647949,-1.708984
5272,-0.017822,-0.201416,1.105469,-4.577637,1.831055,-1.831055
5281,0.048096,-0.136597,1.034302,-2.929688,2.319336,-2.014160
5291,0.056885,-0.190552,1.003540,-1.281738,1.586914,-5.004883
5302,0.035889,-0.302002,0.886475,-0.183105,0.183105,-5.676270
5312,0.141602,-0.228516,0.882446,-0.793457,0.183105,-6.530762
5321,0.094604,-0.177979,0.933960,-1.525879,0.610352,-7.019043
5331,0.041992,-0.203735,1.015625,-1.708984,0.366211,-6.469727
5342,-0.056763,-0.100586,1.047363,-1.464844,0.976562,-6.103516
5351,-0.010620,-0.244751,0.971558,-1.159668,1.586914,-6.652832
5361,-0.045410,-0.286987,0.967041,-1.098633,2.197266,-6.652832
5373,0.022339,-0.011353,1.160645,-1.586914,2.685547,-8.911133
5382,-0.032349,-0.087280,1.106689,-0.305176,2.624512,-9.582520
5392,-0.011597,-0.149170,1.011719,0.793457,2.563477,-10.070801
5402,0.014893,-0.036133,0.955078,0.610352,2.807617,-9.704590
5411,0.017700,0.001709,0.993164,0.244141,2.868652,-8.789063
5422,-0.064087,0.073364,1.038696,0.427246,3.601074,-7.385254
5431,-0.003296,0.034912,0.895264,1.892090,6.408691,-3.601074
5443,0.045898,-0.330688,0.717163,5.310059,6.774902,-1.892090
5452,0.189087,-0.418335,0.734253,4.089355,6.042480,0.244141
5461,-0.062134,-0.293701,0.769165,2.319336,5.615234,2.502441
5471,-0.122559,-0.022949,1.000732,0.610352,6.713867,5.371094
5481,-0.020264,-0.032837,1.072388,0.061035,8.789063,8.422852
5492,-0.094238,-0.014893,1.067993,0.366211,9.521484,10.559082
5501,-0.082275,-0.012939,1.125000,2.746582,10.437012,15.014648
5511,-0.183716,-0.115845,1.036133,3.234863,10.864258,16.784668
5522,-0.173950,-0.197998,1.064819,3.662109,11.230469,18.432617
5531,-0.148560,-0.252441,0.985840,4.150391,11.657715,19.287109
5542,-0.051392,-0.150024,0.952515,3.540039,11.474609,20.141602
5551,-0.008179,-0.019409,0.972046,2.502441,11.413574,20.996094
5561,0.113037,0.106934,1.025391,1.770020,11.962891,22.094727
5574,0.133057,0.123413,1.244263,2.563477,10.803223,24.658203
5583,0.047119,-0.026733,1.321289,3.051758,9.155273,24.475098
5592,-0.073486,-0.000854,1.217041,2.685547,7.385254,23.132324
5602,-0.077393,0.023804,1.135498,2.258301,5.920410,21.423340
5611,-0.033325,-0.031860,1.024414,2.258301,5.981445,20.446777
5622,-0.025757,-0.047607,0.967529,2.197266,5.859375,20.202637
5631,-0.105469,-0.075073,0.991699,1.708984,5.187988,20.141602
5644,-0.165283,0.032959,1.076294,-0.366211,5.554199,19.653320
5653,-0.155151,-0.000977,0.958008,-1.037598,6.164551,19.348145
5663,-0.151123,0.000854,0.839233,-1.586914,5.920410,18.371582
5672,-0.092163,0.028931,0.838745,-2.075195,5.920410,17.456055
5682,-0.014282,-0.245605,0.690552,-1.892090,5.493164,17.578125
5691,0.003906,-0.290283,0.650269,-2.807617,4.760742,17.272949
5701,0.043213,-0.097900,0.757935,-3.784180,4.150391,17.150879
5713,0.094604,0.069336,1.022339,-3.601074,4.150391,18.249512
5723,0.102783,-0.111938,1.042114,-2.502441,4.089355,18.249512
5732,0.067261,-0.192993,0.971436,-1.831055,3.845215,17.944336
5741,0.049438,-0.178589,1.025757,-2.075195,3.234863,17.272949
5751,0.050415,-0.137085,1.054688,-2.441406,2.624512,16.662598
5761,0.064453,-0.086304,1.039673,-2.563477,1.708984,16.479492
5772,0.055298,-0.084961,1.053833,-2.807617,0.854492,17.028809
5781,0.066162,-0.185303,0.946655,-3.479004,0.122070,18.249512
5793,0.146240,-0.154419,0.941772,-4.455566,-0.610352,18.798828
5802,0.139648,0.012207,0.996582,-4.577637,-1.220703,18.249512
5812,0.169189,0.076294,1.120117,-3.906250,-2.380371,16.906738
5821,0.105713,-0.028687,1.153564,-2.441406,-3.051758,14.892578
5832,0.111084,-0.173828,1.172119,-1.892090,-4.333496,12.390137
5841,0.072144,-0.277100,1.121460,-2.319336,-5.310059,9.765625
5851,0.100586,-0.209106,1.070801,-3.479004,-6.347656,5.981445
5863,0.103516,-0.043579,0.944946,-4.760742,-7.690430,4.943848
5872,0.072876,-0.011353,0.927246,-5.065918,-7.812500,4.577637
5881,0.122925,0.043091,1.016968,-5.065918,-7.629395,4.211426
5891,0.057861,0.006348,1.022827,-5.432129,-7.568359,3.967285
5901,0.088135,-0.001831,1.032104,-5.371094,-7.141113,3.173828
5911,0.024292,-0.037476,0.969360,-5.126953,-7.080078,2.807617
5923,0.068115,-0.059204,1.024048,-5.126953,-7.324219,1.464844
5933,0.055908,0.054932,1.033081,-5.310059,-7.568359,0.915527
5942,0.003784,0.051636,1.020142,-5.187988,-7.873535,0.183105
5952,0.017334,-0.219360,0.961304,-3.967285,-7.446289,-0.305176
5961,0.018311,-0.064087,0.867676,-3.356934,-6.835937,-1.098633
5971,-0.007690,0.047607,0.930786,-2.624512,-6.469727,-1.953125
5982,0.025757,0.018311,0.950439,-1.403809,-6.225586,-2.929688
5991,0.012939,-0.140991,1.005371,-0.122070,-6.347656,-5.798340
6001,0.037842,-0.302734,0.966431,-0.244141,-6.652832,-7.324219
6012,0.101563,-0.223022,0.909302,-0.671387,-6.713867,-8.972168
6021,0.099731,-0.102539,0.936523,-1.037598,-6.896973,-10.009766
6031,0.127197,-0.067261,1.008545,-0.732422,-6.713867,-10.559082
6042,0.148682,-0.101563,1.044556,-0.183105,-6.530762,-10.620117
6051,0.139160,-0.122192,1.019043,0.366211,-6.103516,-10.070801
6064,0.078247,-0.123535,1.004272,1.525879,-5.554199,-8.361816
6073,0.028076,-0.060181,0.994385,1.953125,-4.638672,-7.141113
6083,0.043701,-0.023804,1.077148,2.136230,-4.211426,-5.615234
6092,0.024536,-0.049438,1.054443,2.136230,-3.845215,-3.906250
6102,0.068604,-0.080444,1.072632,2.136230,-3.662109,-2.258301
6111,0.031128,-0.115845,1.081299,2.014160,-3.906250,-0.061035
6121,0.030396,-0.139404,0.974976,1.525879,-3.601074,2.319336
6133,0.051147,-0.307251,0.810059,0.915527,-2.990723,4.394531
6142,0.063721,-0.297607,0.790771,-1.281738,-3.051758,7.202148
6152,0.071045,-0.221191,0.806885,-2.746582,-3.295898,7.995605
6161,0.036011,-0.357422,0.809326,-4.394531,-3.051758,8.728027
6171,-0.165771,-0.672729,1.043701,-5.187988,-3.234863,9.033203
6182,-0.143555,-0.217407,1.066040,-11.230469,-2.685547,10.070801
6191,-0.013062,-0.734009,-0.064697,-14.648438,-0.854492,11.779785
6201,-0.197876,-0.208984,0.202515,-17.944336,-0.549316,13.000488
6213,-0.275146,0.242065,0.066528,-26.672363,-2.563477,10.803223
6223,-0.225952,0.793945,0.041016,-29.785156,-3.662109,6.958008
6232,-0.158203,0.982666,0.509521,-30.090332,-2.441406,4.455566
6242,-0.188354,0.661987,1.068970,-28.198242,-3.417969,0.671387
6252,-0.196289,0.214722,1.167236,-29.724121,-4.455566,-3.417969
6261,-0.152710,0.611816,0.981812,-35.156250,-3.356934,-5.798340
6271,0.002686,1.385254,1.174316,-38.757324,14.770508,-1.037598
6282,0.072998,0.865845,1.076904,-27.709961,3.051758,3.173828
6292,0.108154,0.609741,2.048462,-22.338867,2.868652,6.591797
6301,0.154175,0.797852,2.946655,-21.545410,2.136230,9.521484
6311,-0.070801,0.541382,1.792114,-19.592285,1.770020,12.207031
6321,0.128052,0.765015,0.911499,-13.366699,3.479004,15.258789
6331,0.357056,0.579468,0.906860,-3.662109,4.577637,18.249512
6343,0.060547,-0.427368,1.885620,11.596680,-2.807617,16.235352
6353,-0.011108,-0.666870,0.676147,10.437012,-4.760742,13.305664
6363,0.173950,0.244385,0.066895,3.479004,-3.845215,11.291504
6372,0.062622,1.125977,0.455566,-2.258301,-2.868652,10.803223
6382,-0.319580,0.935547,1.058960,-5.493164,-3.356934,9.460449
6391,-0.369263,0.651123,1.426147,-6.774902,-2.563477,6.530762
6401,-0.075073,0.682617,0.794556,-7.446289,-0.915527,4.150391
6413,0.258301,0.999634,0.980103,-5.493164,-0.427246,2.502441
6423,0.070312,0.662842,1.829834,-3.479004,-4.333496,0.183105
6432,0.021729,0.415405,1.656006,-5.432129,-7.812500,-3.417969
6442,0.226562,0.372192,0.653809,-6.652832,-8.483887,-4.882812
6451,0.421265,1.184692,0.564697,-7.629395,-6.286621,-3.295898
6462,0.277954,1.129883,1.380737,-5.371094,-4.577637,0.000000
6471,0.020264,0.139771,1.572021,-1.464844,-5.798340,1.281738
6484,0.283936,0.402466,0.598389,-4.028320,-7.690430,-1.953125
6493,0.219238,1.085938,0.698730,-5.615234,-8.361816,-2.197266
6502,-0.123291,0.918213,1.232666,-4.272461,-8.850098,-1.098633
6512,-0.334473,0.010742,1.039673,-1.342773,-8.666992,-1.403809
6522,-0.146729,0.114868,0.621216,-1.831055,-7.690430,-2.868652
6532,-0.008057,0.992798,0.845093,-5.676270,-5.249023,-3.295898
6541,-0.177979,1.162231,0.926758,-7.141113,-4.455566,-2.685547
6554,-0.256226,0.168945,0.959351,-1.159668,-2.624512,-3.356934
6563,-0.092285,0.612061,1.162476,-3.417969,-2.624512,-5.676270
6573,-0.019531,1.145386,1.153687,-7.385254,-3.234863,-5.737305
6583,-0.124634,1.000244,0.904663,-6.469727,-1.831055,-3.173828
6593,-0.033325,0.521484,0.777954,-2.563477,0.122070,-0.488281
6602,0.108643,0.383179,1.017456,-0.427246,0.549316,0.061035
6612,0.188110,0.751953,1.237549,-2.990723,0.061035,-0.305176
6621,0.091797,1.078491,1.155273,-6.347656,-1.037598,-1.098633
6633,0.120117,0.809326,0.715332,-2.319336,-1.403809,-1.953125
6643,0.188477,0.683350,1.098633,-0.915527,-1.953125,-3.540039
6652,0.157715,0.728394,1.351563,-2.136230,-2.990723,-4.638672
6662,0.029053,0.707764,1.127441,-4.089355,-3.601074,-4.638672
6671,0.097168,0.805664,0.813721,-4.882812,-3.051758,-3.845215
6682,0.091309,0.905884,0.809692,-3.417969,-2.624512,-2.746582
6691,0.007446,0.959595,1.115723,-1.525879,-3.051758,-2.380371
6701,-0.096558,0.636353,0.891357,-3.173828,-3.295898,-3.845215
6712,0.021606,0.820923,0.739380,-5.065918,-3.356934,-5.493164
6721,-0.008911,0.896240,0.713745,-6.042480,-2.746582,-5.126953
6732,-0.046021,0.851196,1.006836,-5.859375,-1.708984,-3.967285
6742,-0.122314,0.572876,1.205200,-5.371094,-1.037598,-3.051758
6751,-0.137939,0.450684,1.186768,-5.493164,-0.671387,-2.868652
6761,-0.174316,0.710205,1.153320,-6.652832,0.915527,-3.784180
6773,-0.289429,0.972168,0.982666,-4.333496,1.892090,-4.333496
6782,-0.250000,0.885620,0.872803,-2.258301,2.563477,-4.943848
6792,-0.138916,0.852905,0.775146,-2.319336,3.173828,-5.004883
6801,-0.101074,0.855347,0.731079,-3.845215,3.906250,-2.990723
6811,-0.082764,0.863037,0.782349,-5.798340,5.859375,0.122070
6822,-0.101318,0.641724,0.879272,-5.981445,7.873535,3.356934
6831,-0.078735,0.549561,1.084106,-4.455566,8.911133,6.896973
6843,-0.008545,0.490356,1.316284,-2.197266,8.850098,6.896973
6852,0.168457,0.472900,1.093628,0.427246,8.544922,5.737305
6862,0.146606,0.698608,0.591064,3.051758,7.934570,5.981445
6871,0.278809,0.515381,0.821289,4.699707,7.751465,7.690430
6881,0.462524,0.730713,0.904907,4.516602,8.178711,11.535645
6891,0.249268,0.511353,0.977905,8.361816,8.300781,16.113281
6903,0.191772,0.235962,0.812256,17.395020,6.591797,14.709473
6913,0.218628,0.216675,1.078979,20.019531,4.150391,10.803223
6922,0.027466,0.191528,1.063721,24.047852,1.220703,3.845215
6931,-0.052612,0.219360,0.911987,27.893066,0.000000,-2.685547
6942,-0.005981,-0.611938,0.840332,32.226562,-0.671387,-7.324219
6952,0.343018,-1.994873,1.371338,32.165527,-1.708984,-10.620117
6961,0.105713,-2.274170,2.239380,17.395020,-3.112793,-12.268066
6973,-0.087402,-0.404541,1.013306,-1.281738,-3.295898,-6.469727
6983,-0.200684,0.033447,0.248535,0.122070,1.464844,-3.906250
6992,-0.043213,0.212280,0.840332,6.103516,2.990723,-3.417969
7001,-0.431274,0.935181,0.603638,7.873535,3.295898,-2.441406
7011,-0.537476,-0.498413,0.539795,11.047363,3.295898,-3.540039
7022,-0.377441,-0.148804,0.866821,6.042480,2.075195,-7.507324
7031,-0.180176,0.009277,1.202759,3.112793,-0.244141,-11.413574
7044,0.211182,0.210327,1.111572,1.953125,-1.342773,-12.451172
7053,0.375488,-0.190796,1.041870,5.859375,2.441406,-3.295898
7063,0.595581,-0.482300,1.209106,9.094238,5.676270,4.882812
7072,0.562744,-0.333740,1.228882,6.164551,6.591797,11.108398
7082,0.349487,-0.132812,1.180908,3.356934,5.187988,14.892578
7091,0.329834,0.231689,1.069336,2.014160,3.479004,15.747070
7102,0.249878,0.414795,1.007568,2.319336,2.563477,16.174316
7113,0.014282,0.124146,1.292847,4.333496,-14.648438,11.901855
7122,-0.123047,0.090942,1.381104,6.225586,-2.990723,9.399414
7132,-0.151367,0.003906,1.316162,7.019043,-3.662109,7.202148
7141,-0.032959,0.070068,1.232666,7.507324,-2.807617,6.042480
7151,0.005493,0.052490,1.134521,8.605957,-1.892090,5.615234
7161,0.005249,-0.099609,1.050171,10.070801,-1.464844,5.187988
7171,-0.025635,-0.136230,0.965332,10.620117,-1.220703,4.699707
7183,-0.090088,-0.120728,0.835327,10.070801,-0.122070,4.821777
7192,-0.047241,-0.124634,0.754639,8.789063,2.136230,2.807617
7202,-0.014160,-0.180420,0.729614,8.605957,1.708984,1.037598
7211,-0.005615,-0.286987,0.730713,8.361816,0.854492,-0.854492
7221,0.017700,-0.331543,0.772583,7.690430,-0.854492,-2.563477
7232,0.022949,-0.384155,0.774536,6.713867,-1.159668,-3.173828
7242,0.060303,-0.366821,0.762451,5.615234,-1.342773,-3.112793
7251,0.061279,-0.366943,0.743042,3.112793,-0.610352,-1.403809
7263,0.045654,-0.323975,0.720703,2.319336,0.366211,0.427246
7272,0.042114,-0.317383,0.771606,2.014160,0.976562,2.136230
7281,0.038940,-0.293579,0.807617,1.342773,1.220703,3.356934
7291,0.034180,-0.248413,0.848877,0.305176,0.427246,3.845215
7301,0.020874,-0.120483,0.894653,-0.793457,0.366211,4.150391
7311,0.021606,-0.010254,0.925293,-1.708984,-0.183105,4.272461
7323,0.049927,0.006348,0.970947,-1.525879,-0.549316,5.126953
7333,0.063843,0.141357,0.986938,-1.220703,-0.427246,5.676270
7342,0.101685,0.218140,1.064697,-1.159668,-0.122070,6.774902
7352,0.101074,0.106201,1.029297,-0.915527,0.122070,7.568359
7361,0.127319,-0.010620,0.935913,-0.427246,0.427246,8.300781
7372,0.115234,0.051880,0.927490,0.122070,0.061035,8.850098
7381,0.120728,0.138184,0.993164,0.061035,-0.183105,8.850098
7391,0.110840,0.082520,0.989258,0.122070,-1.403809,8.178711
7402,0.071533,-0.116211,1.112915,0.305176,-1.586914,7.385254
7412,0.045288,-0.141479,1.128906,0.183105,-1.342773,6.591797
7421,-0.010864,-0.179565,1.125244,0.305176,-0.976562,5.798340
7431,-0.024048,-0.217651,1.101563,0.549316,-0.793457,4.272461
7442,-0.031250,-0.229248,1.089844,0.915527,-1.159668,2.868652
7451,-0.028931,-0.238525,1.148071,0.976562,-1.403809,1.464844
7461,0.001343,-0.347656,1.116455,1.220703,-2.258301,-0.183105
7473,-0.028564,-0.265869,0.953979,1.037598,-2.319336,-0.610352
7482,-0.034546,-0.235352,0.900513,0.732422,-2.319336,-0.915527
7492,-0.026001,-0.185669,0.873047,0.122070,-2.258301,-0.854492
7502,-0.009155,-0.122559,0.874023,-0.488281,-1.403809,-0.366211
7512,-0.003540,-0.075928,0.878662,-1.098633,-1.281738,-0.061035
7522,0.023315,-0.095825,0.912720,-1.159668,-0.976562,0.000000
7531,0.036743,-0.122192,0.945435,-1.281738,-1.403809,-0.244141
7542,0.044189,-0.152832,0.998657,-1.403809,-1.770020,-0.549316
7552,0.041260,-0.151245,0.993286,-1.281738,-1.281738,-0.610352
7562,0.030884,-0.129639,0.984375,-1.647949,-1.464844,-0.549316
7571,0.025391,-0.118042,0.984863,-1.586914,-1.586914,-0.305176
7581,0.018677,-0.111206,0.988525,-1.403809,-1.342773,-0.427246
7592,0.020020,-0.105713,0.987183,-1.647949,-1.525879,-0.610352
7601,0.028564,-0.096191,0.993652,-1.892090,-1.831055,-0.610352
7611,0.042480,-0.082153,0.998169,-1.953125,-1.525879,-0.366211
7622,0.050659,-0.083130,0.992920,-1.831055,-1.586914,-0.183105
7631,0.046143,-0.076538,0.996216,-1.770020,-1.281738,-0.122070
7642,0.038452,-0.066406,1.000366,-1.708984,-1.586914,0.366211
7651,0.025879,-0.066528,1.011353,-1.647949,-1.647949,0.366211
7662,0.006714,-0.064575,1.013794,-1.770020,-2.014160,0.305176
7671,-0.000610,-0.077515,1.018921,-1.464844,-2.197266,0.671387
7683,0.002197,-0.097534,1.000000,-1.464844,-2.014160,1.403809
7692,0.002075,-0.088989,0.983765,-1.281738,-1.892090,2.136230
7702,0.009155,-0.087402,0.963013,-1.708984,-1.708984,3.234863
7711,0.015991,-0.099365,0.964478,-1.708984,-0.732422,4.577637
7722,0.015015,-0.111816,0.966431,-1.892090,-0.488281,5.493164
7731,0.006592,-0.119141,0.986572,-1.892090,-0.549316,5.920410
7741,0.000244,-0.110596,0.999756,-2.136230,-0.976562,6.286621
7753,0.016846,-0.099731,0.995605,-2.075195,-0.915527,6.469727
7762,0.027222,-0.093384,0.987549,-2.197266,-0.915527,6.469727
7772,0.022949,-0.082275,0.984009,-2.136230,-1.098633,6.225586
7782,0.016724,-0.074219,0.989380,-2.258301,-0.915527,6.042480
7791,0.008179,-0.072754,0.994873,-2.075195,-0.732422,5.737305
7801,-0.005493,-0.091675,0.998413,-2.014160,-0.671387,5.249023
7811,-0.020264,-0.098755,0.992310,-1.953125,-0.427246,3.723145
7823,-0.022827,-0.083130,0.994507,-1.831055,-0.549316,2.807617
7833,-0.009033,-0.073486,0.984741,-1.770020,-0.671387,1.953125
7843,0.006714,-0.056396,0.935059,-1.525879,-0.732422,1.281738
7852,0.030518,-0.031006,0.998535,-1.647949,-0.793457,0.610352
7862,0.039673,-0.022095,1.011719,-1.647949,-0.671387,0.366211
7871,0.058594,-0.077637,0.966553,-1.647949,-0.854492,0.732422
7883,0.046509,-0.065308,1.007935,-1.708984,-0.671387,1.098633
7893,0.033447,-0.093628,0.976196,-1.770020,-1.098633,1.403809
7902,0.015747,-0.040161,1.007568,-1.647949,-1.159668,1.708984
7912,0.011597,-0.018799,1.049683,-1.464844,-1.159668,1.770020
7921,0.015137,-0.089233,1.050903,-1.403809,-1.098633,1.831055
7932,0.002686,-0.176636,0.995850,-1.342773,-1.037598,1.953125
7941,-0.006958,-0.115234,0.989136,-1.098633,-0.854492,2.197266
7953,-0.015137,-0.105591,0.999512,-0.976562,-0.671387,2.807617
7962,-0.002197,-0.110962,0.978516,-1.220703,-0.549316,2.685547
7972,-0.010742,-0.077148,0.985229,-1.342773,-0.427246,1.953125
7982,-0.000854,-0.056030,0.986206,-1.281738,-0.610352,1.525879
7991,0.000244,-0.083130,0.990967,-1.464844,-0.854492,1.220703
8002,-0.007446,-0.115234,0.981079,-1.586914,-0.854492,1.220703
8011,-0.006104,-0.058594,0.984375,-1.586914,-0.671387,1.281738
8023,0.004395,-0.102783,1.015991,-1.464844,-0.183105,2.014160
8033,0.029907,-0.123291,0.983887,-1.098633,-0.061035,2.502441
8042,0.040039,-0.141602,1.016968,-1.159668,-0.122070,2.563477
8052,0.039185,-0.104614,1.000732,-1.159668,-0.183105,2.502441
8061,0.036377,-0.123169,1.005615,-1.281738,-0.305176,2.319336
8071,0.024414,-0.133789,0.978516,-1.464844,-0.244141,2.319336
8081,0.019897,-0.125366,0.972656,-1.281738,-0.122070,2.380371
8091,0.010498,-0.105225,0.979858,-1.403809,-0.549316,2.075195
8103,-0.000732,-0.070068,0.981934,-1.647949,-0.061035,2.014160
8112,0.008423,-0.075439,0.997070,-1.770020,-0.305176,1.770020
8122,0.015015,-0.078857,1.006714,-1.586914,-0.488281,1.892090
8131,0.013794,-0.089600,1.008911,-1.647949,-0.488281,1.708984
8141,0.018311,-0.095825,1.002686,-1.525879,-0.793457,1.831055
8151,0.020752,-0.090454,1.007568,-1.342773,-0.610352,2.075195
8161,0.013794,-0.086426,0.997437,-1.403809,-0.488281,2.563477
8171,0.011719,-0.090088,0.993774,-1.342773,-0.549316,2.990723
8182,0.020508,-0.089600,0.994385,-1.403809,-0.671387,3.479004
8191,0.015015,-0.087769,1.000610,-1.403809,-0.549316,3.845215
8202,0.014648,-0.085083,1.009521,-1.647949,-0.183105,3.906250
8211,0.014893,-0.086426,1.004761,-1.525879,-0.122070,4.272461
8222,0.010376,-0.091309,1.003296,-1.403809,-0.305176,4.394531
8231,0.004761,-0.084595,0.997681,-1.403809,-0.366211,4.638672
8243,0.019653,-0.090210,0.986450,-1.159668,-0.122070,4.577637
8252,0.021729,-0.090820,0.984375,-1.281738,-0.305176,4.577637
8261,0.020020,-0.095581,0.990967,-1.464844,-0.732422,4.333496
8271,0.022339,-0.100952,0.990356,-1.281738,-0.305176,4.028320
8282,0.024902,-0.105713,0.995605,-1.342773,-0.244141,3.479004
8291,0.027832,-0.109741,0.997803,-1.342773,-0.244141,3.051758
8303,0.034058,-0.103027,0.992065,-1.464844,-0.549316,1.953125
8313,0.033936,-0.101929,0.991943,-1.770020,-0.732422,1.586914
8322,0.031128,-0.098999,0.989624,-1.586914,-0.854492,1.281738
8332,0.023804,-0.097046,0.991455,-1.586914,-1.281738,0.915527
8341,0.015137,-0.094727,0.989868,-1.403809,-0.976562,0.793457
8351,0.008545,-0.093384,0.986816,-1.464844,-0.732422,0.671387
8361,0.004150,-0.093506,0.986084,-1.525879,-0.732422,0.427246
8371,-0.000122,-0.096436,0.992187,-1.464844,-1.037598,0.000000
8383,0.015259,-0.098389,1.001465,-1.586914,-1.037598,-0.122070
8393,0.018433,-0.097046,0.999023,-1.647949,-1.342773,-0.183105
8402,0.020386,-0.092407,0.999878,-1.708984,-1.281738,-0.183105
8411,0.021484,-0.088379,1.001465,-1.586914,-1.342773,0.000000
8421,0.016235,-0.089111,1.000488,-1.708984,-1.281738,0.183105
8432,0.004517,-0.088867,0.999146,-1.586914,-1.159668,0.305176
8441,-0.006104,-0.085937,0.998657,-1.770020,-1.037598,0.122070
8451,-0.007202,-0.093872,0.990356,-1.708984,-0.976562,0.061035
8461,-0.007446,-0.092285,0.991455,-1.586914,-0.915527,0.122070
8471,-0.008789,-0.088135,0.993164,-1.586914,-0.793457,0.244141
8481,-0.010010,-0.083862,0.994263,-1.525879,-0.671387,0.427246
8491,-0.008545,-0.084839,0.992554,-1.770020,-0.915527,0.793457
8501,-0.009766,-0.083862,0.994019,-1.647949,-0.671387,1.098633
8511,-0.008301,-0.080322,0.998291,-1.525879,-0.366211,1.464844
8523,0.000366,-0.091187,0.996338,-1.342773,-0.427246,1.586914
8532,-0.002075,-0.094604,0.997681,-1.464844,-0.183105,1.403809
8542,-0.001099,-0.093018,0.998169,-1.647949,-0.305176,1.464844
8551,0.001465,-0.089966,0.996460,-1.586914,-0.427246,1.464844
8561,-0.000244,-0.085571,0.995728,-1.586914,-0.244141,1.342773
8571,0.000122,-0.085449,0.992187,-1.525879,-0.061035,1.525879
8584,0.004761,-0.088013,0.995972,-1.525879,0.183105,1.892090
8593,0.000122,-0.086548,1.001221,-1.586914,0.122070,1.892090
8603,-0.000854,-0.087036,1.001099,-1.708984,0.122070,2.075195
8613,-0.003906,-0.085205,1.000488,-1.525879,0.427246,2.197266
8622,-0.004028,-0.084595,0.996338,-1.403809,0.671387,2.319336
8632,0.004272,-0.085937,0.994629,-1.403809,0.549316,2.380371
8642,0.013306,-0.086792,0.992310,-1.647949,0.427246,2.319336
8651,0.014282,-0.086914,0.991821,-1.403809,0.061035,2.441406
8663,0.013184,-0.093628,1.000488,-1.403809,0.305176,2.441406
8672,0.004272,-0.097534,1.000488,-1.403809,0.366211,2.563477
8682,-0.004028,-0.094604,1.000122,-1.586914,0.305176,2.624512
8692,-0.007568,-0.089600,0.999268,-1.464844,0.549316,2.624512
8701,-0.000610,-0.086792,0.995239,-1.281738,0.793457,2.502441
8711,0.005493,-0.079956,0.992798,-1.281738,0.488281,2.502441
8723,0.010132,-0.080688,0.994507,-1.342773,0.183105,2.624512
8732,0.016235,-0.087769,0.992554,-1.342773,0.671387,2.807617
8742,0.017334,-0.094971,0.992432,-1.403809,0.793457,3.173828
8752,0.015869,-0.098633,0.998657,-1.403809,0.610352,3.356934
8761,0.019043,-0.096191,0.999878,-1.403809,0.610352,3.234863
8772,0.018799,-0.093506,0.998901,-1.647949,0.549316,3.295898
8781,0.018311,-0.088623,0.999023,-1.586914,0.488281,3.234863
8794,0.013184,-0.093506,0.996460,-1.281738,0.488281,3.234863
8808,0.015503,-0.095825,0.992065,-1.403809,0.549316,3.173828
8817,0.017700,-0.093994,0.991455,-1.403809,0.549316,3.173828
8826,0.025391,-0.096436,0.990601,-1.586914,0.366211,3.112793
8835,0.030640,-0.098633,0.991089,-1.525879,0.122070,2.868652
8845,0.027222,-0.097412,0.998657,-1.525879,0.061035,2.685547
8854,0.024170,-0.098267,1.000366,-1.525879,0.122070,2.197266
8864,0.019897,-0.094482,0.998779,-1.464844,0.061035,2.136230
8873,0.018433,-0.089478,0.997437,-1.525879,-0.183105,2.258301
8883,0.015869,-0.085571,0.995483,-1.586914,-0.061035,2.258301
8892,0.020996,-0.083496,0.993530,-1.464844,-0.122070,2.380371
8902,0.029541,-0.090210,0.993652,-1.403809,0.061035,2.197266
8911,0.033203,-0.096436,0.994995,-1.647949,-0.366211,1.953125
8921,0.031128,-0.098755,0.996094,-1.586914,-0.366211,1.770020
8933,0.029785,-0.093140,0.996826,-1.525879,-0.061035,1.586914
8942,0.022583,-0.087158,1.000488,-1.403809,-0.366211,1.464844
8952,0.011475,-0.083374,1.000488,-1.464844,-0.366211,1.708984
8961,0.002930,-0.083618,1.000488,-1.525879,-0.183105,1.831055
8971,0.004028,-0.088013,0.998535,-1.525879,-0.305176,1.953125
8982,0.006714,-0.090454,0.995361,-1.586914,-0.427246,2.136230
8991,0.007324,-0.092041,0.991333,-1.647949,-0.244141,2.075195
9001,0.008057,-0.090942,0.991089,-1.525879,-0.244141,1.953125
9012,0.009155,-0.096680,0.995972,-1.708984,0.000000,2.014160
9022,0.007446,-0.095825,0.995728,-1.708984,-0.244141,2.014160
9032,0.010620,-0.091919,0.990234,-1.647949,-0.244141,2.075195
9041,0.014771,-0.088989,0.988770,-1.586914,-0.305176,2.136230
9051,0.015259,-0.086060,0.990356,-1.464844,-0.488281,2.075195
9061,0.012329,-0.087646,0.995605,-1.464844,-0.305176,2.258301
9073,0.010254,-0.093750,1.000610,-1.770020,-0.244141,2.014160
9082,0.011719,-0.093384,0.999634,-1.770020,-0.244141,1.953125
9092,0.011475,-0.090942,0.995728,-1.525879,-0.671387,1.953125
9101,0.012695,-0.090454,0.993530,-1.647949,-0.427246,1.831055
9112,0.016602,-0.090942,0.993652,-1.770020,-0.244141,1.770020
9121,0.017822,-0.088989,0.994263,-1.403809,-0.122070,1.770020
9133,0.016724,-0.087158,0.997803,-1.281738,-0.183105,1.586914
9142,0.015747,-0.092651,0.997070,-1.281738,-0.244141,1.464844
9152,0.018188,-0.097412,0.999634,-1.586914,-0.305176,1.464844
9161,0.016113,-0.096802,0.996948,-1.464844,-0.671387,1.342773
9171,0.015015,-0.095337,0.992554,-1.586914,-0.610352,1.281738
9181,0.016113,-0.092529,0.994507,-1.647949,-0.549316,1.098633
9192,0.015259,-0.090210,0.998413,-1.464844,-0.488281,0.915527
9201,0.012939,-0.088867,1.000000,-1.464844,-0.732422,1.037598
9211,0.011353,-0.086304,1.000122,-1.586914,-0.244141,1.525879
9223,0.015015,-0.087402,0.998047,-1.586914,-0.488281,1.586914
9232,0.017090,-0.088257,0.998169,-1.586914,-0.671387,1.525879
9242,0.013550,-0.090088,0.999023,-1.708984,-0.671387,1.464844
9252,0.011963,-0.094116,1.000854,-1.525879,-0.610352,1.342773
9261,0.012939,-0.093262,1.000610,-1.647949,-0.854492,1.220703
9273,0.016357,-0.088745,1.000122,-1.464844,-0.793457,1.342773
9282,0.018677,-0.088379,0.991455,-1.464844,-0.732422,1.525879
9292,0.018066,-0.091187,0.992554,-1.525879,-0.488281,1.647949
9302,0.015381,-0.093018,0.994263,-1.525879,-0.610352,1.770020
9311,0.010132,-0.092285,0.995361,-1.586914,-0.854492,1.586914
9322,0.006714,-0.090942,0.994873,-1.464844,-0.854492,1.525879
9331,0.003662,-0.087402,0.994751,-1.403809,-0.854492,1.525879
9341,0.004883,-0.085083,0.994995,-1.525879,-0.793457,1.342773
9353,0.010986,-0.089722,0.996094,-1.281738,-0.488281,1.403809
9362,0.014404,-0.091797,0.995361,-1.403809,-0.793457,1.586914
9372,0.017334,-0.093750,0.994141,-1.403809,-0.305176,1.770020
9381,0.015259,-0.092529,0.995117,-1.464844,-0.732422,1.708984
9392,0.010132,-0.090454,0.997681,-1.647949,-0.915527,1.770020
9401,0.003174,-0.092407,0.997192,-1.525879,-0.610352,1.831055
9413,-0.002686,-0.093994,1.000488,-1.586914,-0.610352,1.831055
9423,-0.001953,-0.089111,1.000122,-1.403809,-0.305176,2.136230
9432,-0.001587,-0.083374,0.993164,-1.281738,-0.183105,2.502441
9441,-0.001831,-0.076416,0.989624,-1.464844,-0.305176,2.807617
9452,0.002686,-0.078735,0.988159,-1.525879,-0.427246,3.173828
9461,0.005005,-0.084351,0.995361,-1.464844,-0.061035,3.356934
9472,0.007935,-0.091553,1.000610,-1.464844,0.366211,3.662109
9481,0.012085,-0.097900,1.000610,-1.525879,0.183105,3.479004
9493,0.013062,-0.092163,1.000732,-1.464844,-0.122070,3.112793
9503,0.014282,-0.088989,1.000244,-1.403809,-0.244141,2.868652
9512,0.015137,-0.088257,0.997070,-1.525879,-0.305176,2.685547
9521,0.015137,-0.087036,0.994507,-1.464844,-0.488281,2.624512
9531,0.014160,-0.086426,0.994507,-1.647949,-0.305176,2.746582
9542,0.014038,-0.090942,0.991821,-1.403809,-0.244141,2.807617
9551,0.020142,-0.092651,0.989746,-1.403809,-0.183105,2.929688
9563,0.023560,-0.095581,0.998047,-1.464844,-0.488281,2.807617
9573,0.018677,-0.098755,1.000610,-1.831055,-0.366211,2.685547
9582,0.014404,-0.132690,0.954590,-1.647949,-0.610352,2.441406
9592,0.004883,-0.031738,0.982544,-1.831055,-0.793457,2.441406
9602,0.024780,0.004761,1.014893,-1.770020,-0.549316,2.441406
9611,0.002686,-0.044922,1.003906,-1.831055,-0.549316,2.258301
9621,0.017700,-0.125610,0.997192,-1.647949,-0.610352,2.319336
9633,0.017090,-0.076050,1.012451,-1.464844,-0.305176,2.075195
9642,0.014648,-0.147217,1.010132,-1.159668,-0.488281,1.770020
9652,0.015015,-0.153076,0.987061,-1.159668,-0.488281,1.525879
9661,0.010010,-0.115234,0.993286,-1.342773,-0.549316,1.220703
9671,0.010254,-0.106934,0.989990,-1.281738,-0.793457,1.037598
9682,-0.002930,-0.091797,0.970459,-1.403809,-1.037598,0.976562
9692,-0.003418,-0.072998,0.976685,-1.525879,-0.610352,1.037598
9701,-0.007080,-0.077271,0.998047,-1.708984,-0.854492,1.281738
9712,-0.010864,-0.080566,1.007690,-1.647949,-0.671387,1.403809
9721,-0.006592,-0.098145,1.001465,-1.342773,-0.671387,1.525879
9732,0.003540,-0.073486,0.962891,-1.159668,-0.610352,1.647949
9742,-0.000122,-0.055542,0.981079,-1.464844,-0.793457,1.525879
9751,-0.003784,-0.047241,1.013550,-1.403809,-0.366211,1.403809
9763,0.004883,-0.080688,0.981567,-1.403809,-0.305176,1.586914
9773,-0.002686,-0.110596,1.021729,-1.525879,-0.488281,1.586914
9782,0.000977,-0.101440,1.006104,-1.403809,-0.183105,1.708984
9792,-0.001587,-0.112183,0.999390,-1.220703,0.122070,2.014160
9801,-0.005859,-0.102905,0.995483,-1.220703,-0.061035,2.319336
9812,-0.008667,-0.095337,0.994629,-1.281738,-0.244141,2.075195
9822,-0.008057,-0.085693,0.988892,-1.464844,-0.488281,2.075195
9832,-0.003296,-0.081055,0.992676,-1.525879,0.000000,2.197266
9841,-0.000122,-0.081787,0.996216,-1.708984,-0.305176,2.197266
9853,0.004883,-0.095459,1.000488,-1.403809,0.122070,2.014160
9862,0.003540,-0.088745,0.999390,-1.525879,0.122070,2.197266
9872,0.001343,-0.079590,0.994629,-1.464844,0.061035,2.197266
9881,-0.002930,-0.076904,0.987061,-1.342773,0.366211,2.197266
9892,-0.012329,-0.078369,0.990723,-1.403809,0.183105,2.075195
9902,-0.015259,-0.027466,0.961426,-1.342773,0.305176,2.258301
9913,-0.032104,0.045898,0.975098,-1.770020,0.793457,2.868652
9923,-0.038940,0.028687,0.961182,-1.525879,0.976562,3.112793
9932,-0.013672,0.070068,0.956909,-1.220703,1.159668,3.723145
9942,0.008545,0.008667,0.980713,-0.488281,1.525879,4.333496
9951,0.031982,-0.100586,1.017334,0.000000,1.525879,5.004883
9962,0.027344,-0.105469,1.076172,-0.549316,1.770020,5.798340
9971,0.061646,-0.114136,1.107422,-1.098633,1.953125,6.286621
9983,-0.027832,-0.195068,1.017944,-0.488281,2.075195,5.615234
9993,0.033447,-0.171387,1.001099,-0.549316,2.136230,5.249023
10003,0.036987,-0.154541,0.994873,-0.488281,1.586914,4.455566
10012,-0.012573,-0.138306,0.992920,-0.549316,0.732422,3.540039
10022,-0.015015,-0.086914,1.010986,-0.854492,0.732422,3.356934
10031,-0.018188,-0.030273,1.000488,-1.159668,0.976562,3.295898
10043,0.059937,-0.031860,1.047974,-0.610352,1.098633,2.502441
10053,-0.069824,0.007446,0.954834,-0.610352,1.159668,2.685547
10062,0.095459,-0.040161,1.037354,-1.159668,1.831055,3.417969
10072,0.090576,-0.124756,1.035278,-1.403809,0.610352,1.708984
10082,0.051758,-0.062256,1.041504,-1.525879,-0.671387,0.427246
10091,0.054443,-0.042236,1.009277,-1.525879,-1.037598,-1.770020
10102,0.144043,-0.090820,0.982910,-1.403809,-0.732422,-3.173828
10112,0.120483,-0.051880,0.992187,-1.159668,-0.732422,-3.662109
10122,0.097290,-0.055298,0.990234,-1.220703,-0.915527,-2.807617
10131,0.042480,-0.055542,0.994629,-1.403809,-1.037598,-1.586914
10142,0.036499,-0.060059,0.998657,-1.403809,-1.037598,-0.610352
10151,0.014282,-0.090576,0.983398,-1.342773,-1.037598,0.183105
10162,-0.013184,-0.101563,0.960083,-1.098633,-0.549316,1.281738
10171,-0.041260,-0.122803,0.960205,-1.281738,-0.305176,2.197266
10182,-0.113770,-0.071655,0.999634,-1.098633,-0.305176,1.586914
10192,-0.026611,-0.127197,1.007935,-1.159668,-0.244141,1.281738
10201,-0.061401,-0.170776,0.986206,-1.220703,0.244141,0.122070
10212,-0.094727,-0.095947,1.016968,-1.281738,0.549316,-1.098633
10221,-0.073486,-0.144287,0.971069,-1.037598,0.976562,-2.258301
10231,-0.016357,-0.179321,0.935791,-0.976562,1.220703,-2.624512
10242,0.006470,-0.177368,0.930542,-1.342773,0.488281,-2.502441
10251,-0.044312,-0.128906,0.987061,-1.586914,0.671387,-0.854492
10263,0.042480,-0.157959,1.065796,-1.586914,1.098633,5.371094
10272,0.032471,-0.193848,0.999756,-0.732422,1.892090,6.164551
10281,-0.002197,-0.189331,0.925659,-0.854492,1.281738,7.141113
10292,0.067627,-0.197266,0.928345,-1.037598,1.953125,8.239746
10302,0.191650,-0.174316,0.950073,-1.037598,1.892090,8.117676
10311,0.154541,-0.185791,0.980591,-1.220703,1.464844,7.751465
10323,0.123779,-0.220215,0.988403,-1.586914,-0.244141,5.554199
10332,0.146240,-0.218262,1.015625,-1.892090,-0.427246,3.906250
10343,0.117065,-0.177490,1.021851,-1.586914,-0.671387,1.831055
10352,0.108276,-0.210571,1.000366,-1.342773,-1.403809,0.061035
10362,0.036743,-0.192017,1.000732,-1.525879,-2.197266,-1.159668
10372,-0.024414,-0.229614,0.970581,-1.525879,-2.319336,-1.953125
10381,-0.005005,-0.199219,0.979126,-1.892090,-2.380371,-2.563477
10391,-0.046509,-0.186279,0.984253,-1.831055,-2.319336,-3.051758
10403,-0.060547,-0.201904,0.986816,-1.892090,-2.197266,-3.234863
10412,-0.049438,-0.234985,0.983765,-1.586914,-1.342773,-2.990723
10422,-0.039795,-0.222412,0.992676,-1.892090,-0.976562,-2.868652
10432,-0.058594,-0.209351,0.999146,-2.075195,-0.488281,-2.502441
10442,-0.057129,-0.217651,0.985718,-2.014160,-0.488281,-1.953125
10451,-0.059204,-0.239502,0.962158,-2.136230,-0.244141,-1.281738
10461,-0.070557,-0.250977,0.959717,-2.197266,-0.366211,-0.488281
10473,-0.096069,-0.260376,0.994751,-2.075195,1.159668,1.586914
10483,-0.076416,-0.274414,0.987915,-1.953125,1.892090,2.441406
10492,-0.043701,-0.266235,0.974731,-1.892090,1.892090,2.624512
10502,-0.015991,-0.264282,0.960815,-1.953125,2.014160,2.685547
10512,0.003784,-0.259033,0.960205,-2.136230,1.525879,2.563477
10522,0.028442,-0.270142,0.963989,-2.075195,2.319336,2.502441
10531,0.034180,-0.230347,0.995728,-2.197266,1.770020,2.685547
10543,0.042603,-0.211792,0.984985,-2.075195,2.014160,3.662109
10552,0.053101,-0.235229,0.965210,-1.525879,2.929688,4.272461
10562,0.041870,-0.236694,0.972290,-1.525879,2.197266,4.394531
10571,0.041992,-0.237549,0.995239,-1.770020,1.892090,4.577637
10581,0.030762,-0.195801,1.023560,-2.075195,1.647949,4.760742
10592,0.032959,-0.130615,1.047974,-1.953125,1.953125,4.882812
10601,0.036255,-0.113770,1.017944,-1.770020,1.525879,5.554199
10613,0.016602,-0.165283,0.917603,-1.342773,1.647949,7.934570
10622,0.018677,-0.147583,0.905029,-1.525879,2.746582,9.765625
10632,0.012085,-0.127930,0.928711,-1.770020,3.051758,11.535645
10642,0.007813,-0.092651,0.991089,-2.014160,3.295898,13.244629
10651,0.010010,-0.082031,1.026489,-2.197266,3.417969,14.526367
10661,0.012207,-0.125732,0.985474,-1.892090,3.479004,15.380859
10671,0.012939,-0.184814,0.933960,-1.831055,3.723145,15.563965
10681,0.003784,-0.205566,0.912842,-2.624512,3.906250,15.441895
10693,-0.027954,-0.130615,1.005127,-2.746582,4.028320,14.526367
10702,-0.023926,-0.151489,1.018433,-2.502441,3.906250,13.488770
10712,-0.040649,-0.208496,0.995483,-2.258301,3.601074,12.145996
10721,-0.044922,-0.249756,0.977905,-2.014160,4.272461,10.803223
10731,-0.036987,-0.234375,1.025146,-2.197266,4.211426,9.704590
10743,-0.066772,-0.221558,1.031250,-2.502441,4.150391,7.568359
10752,-0.150269,-0.256958,0.952393,-2.136230,4.760742,6.591797
10762,-0.179565,-0.256348,0.992920,-2.258301,5.981445,5.798340
10772,-0.168701,-0.253662,1.006226,-2.441406,6.469727,5.249023
10781,-0.158569,-0.279297,0.979248,-2.441406,7.446289,4.821777
10791,-0.160400,-0.294312,0.940674,-2.441406,7.812500,5.065918
10802,-0.156006,-0.228149,1.015625,-2.807617,7.873535,5.310059
10811,-0.188110,-0.234619,1.050049,-2.624512,9.338379,6.042480
10821,-0.177856,-0.324463,0.991089,-2.136230,10.192871,7.446289
10832,-0.153809,-0.269775,1.044189,-2.624512,10.864258,8.972168
10842,-0.134399,-0.227539,1.048584,-2.929688,11.169434,10.803223
10852,-0.115723,-0.271973,0.926392,-2.197266,12.817383,12.756348
10861,-0.066528,-0.270752,0.918945,-1.953125,13.366699,14.831543
10871,0.006104,-0.242554,0.988892,-2.136230,15.319824,17.578125
10883,0.063477,-0.280884,0.942139,-2.319336,15.075684,22.766113
10893,0.143311,-0.214600,0.995239,-2.868652,15.625000,25.817871
10902,0.162720,-0.248413,0.965942,-2.563477,16.540527,29.296875
10911,0.215820,-0.269043,0.967651,-2.746582,16.174316,31.738281
10921,0.172485,-0.281982,0.993652,-2.868652,15.747070,34.118652
10932,0.197510,-0.331055,0.944214,-2.746582,14.587402,36.560059
10941,0.226685,-0.280396,1.030029,-2.807617,15.075684,38.452148
10953,0.193237,-0.280029,0.986938,-2.319336,13.977051,41.442871
10962,0.234009,-0.343506,0.968994,-2.380371,13.610840,42.724609
10973,0.225952,-0.356079,0.913330,-2.624512,11.901855,43.701172
10982,0.239746,-0.322510,1.023926,-2.624512,11.657715,43.945312
10992,0.203247,-0.365845,1.009521,-2.502441,11.779785,43.823242
11002,0.181396,-0.291870,1.062378,-2.258301,10.620117,42.907715
11011,0.209717,-0.329590,1.000610,-1.892090,9.765625,41.564941
11021,0.189209,-0.281006,1.031982,-1.464844,8.728027,40.100098
11033,0.285034,-0.260742,0.988892,-0.854492,5.798340,37.109375
11043,0.276489,-0.299927,0.948120,-0.732422,4.028320,35.766602
11052,0.285400,-0.230591,1.046631,-0.915527,3.540039,34.423828
11062,0.213135,-0.226074,0.996094,-0.732422,2.197266,32.897949
11071,0.164185,-0.179443,1.040771,-0.305176,1.831055,31.433105
11082,0.134644,-0.234497,0.969849,0.000000,1.403809,29.785156
11091,0.132690,-0.224731,1.001221,0.000000,0.183105,27.832031
11103,0.148193,-0.226685,0.976318,0.671387,-0.854492,24.414062
11113,0.116821,-0.238892,0.986572,0.671387,-1.953125,23.193359
11122,0.086792,-0.284424,1.035034,0.549316,-2.441406,22.583008
11132,0.065308,-0.273193,1.094360,0.732422,-2.685547,22.277832
11141,0.076782,-0.286621,1.054443,0.610352,-3.479004,22.338867
11151,0.039917,-0.212891,1.080811,0.976562,-3.479004,21.667480
11162,0.028687,-0.198242,0.969727,1.159668,-3.112793,20.812988
11171,0.024048,-0.099609,0.973267,1.464844,-3.784180,17.395020
11183,-0.087646,0.052856,0.929443,1.464844,-3.234863,14.953613
11192,-0.095337,0.065674,0.920288,1.403809,-2.685547,12.268066
11202,-0.091797,0.133301,0.945801,1.220703,-1.770020,9.887695
11211,-0.006836,0.240967,0.956299,0.976562,-1.342773,7.324219
11222,-0.032104,0.290039,0.981689,0.488281,-0.549316,5.737305
11231,0.011963,0.291504,1.003418,0.183105,-0.427246,4.760742
11243,0.052612,0.318726,1.047363,0.061035,-0.122070,4.394531
11252,0.049805,0.304443,1.043823,-1.037598,-0.122070,5.004883
11261,0.130249,0.255737,1.033569,-0.793457,0.488281,5.981445
11271,0.134521,0.240601,1.025757,-0.854492,0.122070,7.324219
11281,0.383179,0.153442,0.863037,-0.610352,0.366211,8.666992
11291,0.326172,0.107178,1.073853,-0.122070,-0.061035,10.375977
11301,0.417114,0.114746,1.027588,-0.061035,-0.488281,12.390137
11311,0.422974,0.110474,0.971191,-0.122070,-3.601074,14.648438
11323,0.359375,0.192993,0.916870,-0.122070,-5.249023,16.052246
11332,0.419312,0.162354,0.961670,0.549316,-5.126953,19.836426
11341,0.394165,0.022705,0.876221,1.586914,-4.272461,23.498535
11352,0.320557,-0.116211,0.937378,2.136230,-4.028320,24.902344
11361,0.198486,-0.166260,1.032593,1.770020,-5.371094,24.780273
11371,0.058228,-0.118652,1.047241,0.732422,-6.530762,23.498535
11383,0.019653,-0.145508,1.098511,0.427246,-6.713867,17.517090
11392,-0.074341,-0.189697,1.007446,1.586914,-7.324219,14.221191
11401,-0.081665,-0.184082,1.023682,1.403809,-9.155273,11.230469
11411,-0.111572,-0.070923,1.012573,1.098633,-9.216309,9.094238
11422,-0.112427,0.068359,0.982056,1.220703,-8.239746,8.361816
11431,-0.061279,0.055176,0.963623,1.708984,-7.507324,8.117676
11441,-0.066406,-0.030029,0.812744,2.319336,-6.530762,8.483887
11451,-0.092773,-0.059937,0.823730,1.647949,-6.042480,7.507324
11463,-0.075195,-0.036499,1.176270,0.793457,-5.920410,5.859375
11472,-0.142212,-0.054932,1.178955,0.122070,-4.882812,4.211426
11481,0.006226,0.030151,1.077026,-0.061035,-4.516602,1.953125
11492,-0.013062,-0.025879,1.039673,0.061035,-4.028320,-0.183105
11502,0.065430,-0.082886,0.993286,0.244141,-3.356934,-1.647949
11511,0.190552,-0.007446,1.027100,-0.549316,-4.028320,-2.441406
11523,0.156250,0.098999,0.987671,-1.525879,-4.089355,-2.868652
11532,0.182373,0.069702,0.965820,-2.380371,-4.577637,-3.356934
11542,0.228882,0.038940,0.981201,-2.441406,-4.211426,-3.479004
11551,0.240234,-0.044434,0.964722,-1.831055,-4.699707,-4.882812
11562,0.224121,-0.129639,1.019043,-1.342773,-4.577637,-6.103516
11571,0.096191,-0.144531,1.070435,-1.342773,-5.371094,-7.263184
11583,0.102295,-0.194458,1.013794,-1.586914,-7.324219,-11.840820
11592,0.058838,-0.096069,0.973999,-1.708984,-8.422852,-14.404297
11603,0.030151,-0.186279,0.858032,-0.915527,-8.300781,-17.333984
11612,0.091187,-0.235229,0.854248,-0.671387,-8.117676,-18.920898
11622,0.171997,-0.147705,0.943970,-1.098633,-8.605957,-20.263672
11632,0.483154,-0.290405,0.702271,-1.098633,-8.544922,-20.996094
11641,0.074463,0.035156,1.289673,-2.441406,-7.202148,-20.141602
11653,0.052979,-0.005859,1.265991,-1.220703,-5.859375,-21.789551
11662,0.071533,-0.217285,0.685547,-0.915527,-7.324219,-23.498535
11673,0.181152,-0.238403,1.003540,-0.427246,-9.460449,-23.315430
11682,0.043213,-0.184692,1.016357,0.549316,-11.474609,-23.254395
11692,-0.041260,-0.077393,0.968872,0.122070,-11.474609,-21.362305
11701,-0.014526,-0.170410,1.040771,-0.305176,-10.009766,-17.456055
11711,0.017212,-0.047485,1.123413,-1.220703,-7.019043,-12.512207
11723,-0.129028,-0.059204,0.984131,-0.305176,-3.479004,-4.821777
11732,-0.101440,-0.121094,0.986938,0.671387,-2.563477,-0.976562
11742,-0.026001,-0.320313,0.997925,1.525879,-1.281738,1.770020
11751,-0.084961,-0.241821,1.054443,0.793457,-1.647949,2.746582
11761,-0.063599,-0.209961,0.996948,-0.183105,-1.708984,3.173828
11772,-0.101807,-0.044189,0.979126,-0.915527,-1.281738,4.272461
11781,-0.053223,-0.010864,0.905518,-0.488281,-0.732422,6.591797
11791,-0.018799,-0.123535,0.856201,0.427246,0.427246,9.033203
11803,0.021606,-0.109375,0.979004,0.366211,1.647949,14.343262
11812,0.045776,0.015869,1.087891,-1.525879,3.051758,17.211914
11821,0.028809,0.045654,1.050537,-1.159668,4.028320,20.446777
11831,0.013428,-0.056519,0.967896,-0.122070,3.784180,22.888184
11842,-0.070435,-0.173096,0.963501,-0.061035,4.028320,24.414062
11851,-0.101929,-0.141113,0.924561,-0.549316,4.882812,25.817871
11863,-0.105225,-0.058838,1.006836,-1.342773,6.347656,27.770996
11873,-0.070068,-0.066650,0.997192,-0.854492,6.896973,29.235840
11882,-0.097778,-0.104492,0.949097,-0.488281,7.202148,31.494141
11891,-0.048706,-0.116333,0.930908,-0.549316,7.934570,34.606934
11901,-0.079834,-0.096680,1.006592,-0.854492,9.216309,38.269043
11912,-0.037231,-0.108887,0.983521,-0.854492,10.742188,41.687012
11921,-0.064087,-0.135254,0.995728,-0.854492,10.681152,43.945312
11933,-0.021118,-0.143066,0.940918,-1.159668,11.108398,46.813965
11942,0.036865,-0.141968,0.992554,-0.976562,11.291504,47.729492
11952,0.053467,-0.184937,1.011108,-0.549316,10.864258,48.034668
11961,0.039429,-0.179077,1.015381,-0.671387,10.620117,48.461914
11971,0.046509,-0.153931,0.988403,-0.366211,10.437012,48.828125
11981,0.067627,-0.115723,0.996216,-0.366211,10.314941,49.316406
11992,0.090942,-0.144897,0.974365,-0.061035,10.253906,50.109863
12002,0.107056,-0.162354,0.977661,0.061035,10.620117,50.903320
12011,0.109741,-0.173584,0.992920,-0.061035,9.826660,51.818848
12023,0.118652,-0.139282,0.992798,0.183105,9.094238,51.513672
12032,0.108276,-0.175293,0.970337,0.244141,8.666992,50.720215
12041,0.092041,-0.195557,0.977295,0.244141,7.324219,49.438477
12052,0.059082,-0.177368,0.989258,0.183105,6.591797,47.851562
12061,0.073364,-0.165894,1.000732,0.366211,6.225586,46.325684
12073,0.070557,-0.192139,1.004028,0.244141,5.615234,43.334961
12082,0.119385,-0.188965,1.000854,0.244141,5.249023,42.541504
12092,0.171021,-0.175781,0.999146,0.610352,4.821777,41.809082
12101,0.187866,-0.211060,1.007080,0.854492,4.028320,41.015625
12111,0.229980,-0.268066,0.996338,1.281738,3.662109,39.611816
12122,0.207886,-0.239014,1.014160,1.464844,2.807617,38.208008
12131,0.216797,-0.264648,0.983521,1.647949,1.525879,36.560059
12141,0.209229,-0.286743,0.993164,1.708984,0.427246,34.912109
12151,0.209351,-0.275879,0.969482,1.831055,-1.647949,31.677246
12163,0.167969,-0.241699,0.987183,1.953125,-2.014160,30.273437
12172,0.180664,-0.284180,1.019165,2.197266,-2.136230,28.747559
12182,0.174072,-0.271362,1.037842,2.380371,-3.234863,27.221680
12191,0.156982,-0.257324,0.995728,2.502441,-3.967285,25.268555
12201,0.160889,-0.279663,1.018799,2.685547,-4.638672,23.132324
12212,0.156738,-0.294312,0.995361,3.112793,-5.493164,21.179199
12221,0.141846,-0.250854,0.984497,3.173828,-6.530762,17.089844
12233,0.178101,-0.285522,0.963135,3.356934,-7.324219,15.441895
12242,0.181519,-0.224731,0.979004,2.929688,-7.934570,13.854980
12252,0.186890,-0.169922,1.000366,2.929688,-8.605957,13.122559
12261,0.208130,-0.241699,0.983643,3.173828,-9.094238,12.268066
12272,0.217773,-0.211182,1.024292,3.234863,-9.643555,11.352539
12281,0.192261,-0.156860,1.039795,3.234863,-10.192871,10.375977
12292,0.204956,-0.245239,1.000977,3.601074,-10.681152,8.911133
12302,0.186035,-0.207520,0.982788,3.784180,-11.413574,7.873535
12311,0.186157,-0.270508,0.933960,4.211426,-11.718750,7.019043
12322,0.177124,-0.300537,0.930176,3.967285,-12.390137,5.737305
12331,0.169067,-0.292725,0.951050,3.662109,-13.061523,4.089355
12342,0.184937,-0.325806,0.973389,3.723145,-13.488770,2.441406
12351,0.192017,-0.275757,0.998657,3.112793,-14.648438,0.366211
12363,0.242065,-0.343872,0.984131,2.990723,-31.066895,-3.784180
12372,0.210327,-0.270874,0.961792,2.929688,-17.089844,-5.798340
12382,0.229004,-0.287109,0.945068,2.868652,-17.883301,-7.324219
12391,0.214478,-0.326538,0.946411,2.624512,-18.493652,-8.911133
12402,0.212891,-0.327759,0.927856,2.197266,-18.981934,-10.803223
12411,0.189087,-0.318848,0.913696,2.136230,-19.287109,-12.939453
12423,0.164429,-0.289185,0.930786,1.037598,-20.568848,-18.432617
12432,0.198242,-0.298828,0.994507,0.793457,-21.118164,-21.362305
12442,0.192505,-0.297363,1.025513,0.854492,-21.789551,-24.475098
12452,0.229370,-0.275879,1.022461,0.854492,-22.521973,-27.526855
12461,0.235352,-0.322021,0.982178,0.915527,-22.888184,-30.273437
12472,0.225342,-0.344849,0.946411,0.671387,-24.047852,-33.203125
12481,0.193604,-0.288330,0.974487,0.610352,-24.597168,-35.705566
12493,0.177124,-0.339478,0.946411,-0.122070,-25.146484,-40.344238
12502,0.210937,-0.280151,0.961182,-0.610352,-26.000977,-42.114258
12512,0.217896,-0.319214,0.963379,-0.549316,-25.878906,-43.640137
12522,0.184937,-0.272461,0.988647,-0.366211,-26.367187,-44.860840
12531,0.202148,-0.304443,0.971313,0.061035,-26.489258,-45.715332
12542,0.201904,-0.314941,0.979980,-0.122070,-26.672363,-45.959473
12551,0.183350,-0.285400,0.963623,-0.427246,-26.794434,-46.264648
12561,0.123901,-0.313232,0.918457,-0.793457,-26.428223,-46.020508
12573,0.106934,-0.266235,0.921265,-1.159668,-25.634766,-45.227051
12583,0.095215,-0.240967,0.919189,-2.014160,-25.268555,-44.555664
12592,0.089111,-0.290527,0.969849,-2.014160,-24.536133,-44.311523
12602,0.043335,-0.319336,0.937988,-2.197266,-24.230957,-43.945312
12611,0.004150,-0.352173,0.905151,-2.258301,-23.498535,-43.884277
12622,-0.022827,-0.345093,0.904663,-2.380371,-22.399902,-43.701172
12632,-0.052856,-0.322388,0.957397,-2.563477,-22.033691,-44.372559
12643,-0.063843,-0.245361,1.005737,-2.868652,-20.812988,-45.104980
12653,-0.044800,-0.231201,1.005249,-2.624512,-19.836426,-45.837402
12663,-0.030396,-0.218628,1.005127,-2.807617,-19.409180,-46.752930
12673,-0.042358,-0.198975,0.966553,-2.624512,-19.714355,-47.302246
12682,0.021362,-0.205811,0.973511,-2.502441,-19.226074,-47.546387
12692,0.034546,-0.227173,0.953613,-2.319336,-18.371582,-46.875000
12701,0.088013,-0.219971,0.985718,-2.014160,-17.028809,-46.081543
12711,0.046631,-0.229614,1.026611,-1.647949,-15.930176,-44.494629
12721,-0.023682,-0.211304,1.040405,-1.647949,-15.014648,-43.701172
12732,-0.020508,-0.188110,1.027954,-1.770020,-14.709473,-42.846680
12742,-0.052124,-0.142944,1.031738,-1.525879,-14.465332,-42.541504
12751,-0.050659,-0.176392,0.995361,-1.159668,-13.916016,-42.053223
12762,-0.068237,-0.135498,0.986450,-0.732422,-13.244629,-41.625977
12772,-0.029053,-0.175415,0.984009,-0.732422,-11.901855,-40.405273
12781,-0.012695,-0.092896,0.994995,-0.915527,-10.925293,-39.672852
12791,-0.024414,-0.060303,0.957642,-0.854492,-10.070801,-39.123535
12802,-0.068115,-0.014038,1.006104,-0.732422,-9.399414,-38.452148
12812,-0.101318,0.002808,1.029419,-0.854492,-9.216309,-37.841797
12822,-0.143555,0.006592,1.043335,-0.183105,-8.483887,-37.170410
12831,-0.134155,0.000977,1.043945,-0.061035,-6.958008,-36.071777
12843,-0.154175,-0.047485,1.035034,0.244141,-5.310059,-34.790039
12853,-0.181519,-0.027710,0.998535,0.427246,-4.577637,-34.423828
12862,-0.189087,-0.027710,0.976196,0.793457,-4.150391,-34.179687
12872,-0.178711,0.007568,0.990479,1.037598,-3.784180,-33.752441
12881,-0.129883,-0.042114,0.977783,1.220703,-2.929688,-32.836914
12891,-0.087769,-0.030273,1.011963,1.586914,-1.892090,-31.433105
12902,-0.018677,-0.063110,1.056885,1.892090,-1.159668,-29.541016
12911,-0.009155,-0.026367,1.053711,1.586914,-0.671387,-27.526855
12921,-0.090942,-0.031128,1.024780,2.319336,-0.427246,-24.353027
12932,-0.093018,-0.148071,0.993042,2.990723,0.305176,-23.620605
12941,-0.182251,-0.150757,0.983398,3.540039,1.403809,-23.559570
12951,-0.178955,-0.102417,1.006226,3.723145,1.953125,-23.498535
12962,-0.214478,-0.134888,0.976685,3.967285,2.868652,-22.888184
12971,-0.153198,-0.081421,0.966553,4.028320,4.028320,-21.972656
12981,-0.174683,-0.114014,0.934448,4.394531,4.272461,-21.057129
12993,-0.119629,-0.135376,0.891357,4.028320,4.455566,-18.676758
13003,-0.059082,-0.175781,0.883057,3.601074,4.638672,-17.395020
13012,-0.020264,-0.154053,0.927734,2.929688,5.920410,-15.625000
13022,0.018066,-0.120117,0.942627,2.380371,6.286621,-14.404297
13031,0.042725,-0.101929,0.941284,1.770020,5.798340,-13.427734
13042,0.005127,-0.079346,0.965088,1.647949,5.737305,-12.817383
13051,0.002686,-0.119873,0.969727,1.586914,5.310059,-12.939453
13063,-0.068604,-0.086548,1.053467,1.525879,5.310059,-13.916016
13072,-0.121216,-0.079590,1.019531,1.281738,4.760742,-14.221191
13082,-0.135986,-0.101074,1.009399,1.647949,5.432129,-14.282227
13091,-0.155762,-0.164185,0.933472,2.380371,5.920410,-14.099121
13101,-0.145020,-0.187256,0.915527,2.197266,6.103516,-13.854980
13112,-0.158691,-0.146973,0.951050,1.831055,6.835937,-13.854980
13121,-0.183350,-0.072876,1.026489,1.831055,6.896973,-13.854980
13133,-0.161987,-0.128662,1.025146,2.075195,7.995605,-14.038086
13143,-0.173584,-0.088623,1.005371,2.624512,8.972168,-13.793945
13152,-0.169067,-0.094360,1.004272,2.746582,9.155273,-13.244629
13161,-0.149658,-0.129150,1.031006,3.051758,9.887695,-12.512207
13171,-0.143921,-0.137451,1.006714,3.173828,10.314941,-10.864258
13182,-0.117554,-0.150391,0.950684,3.112793,10.375977,-9.094238
13192,-0.099731,-0.154419,0.916626,2.807617,11.474609,-5.981445
13201,-0.058228,-0.163818,0.943359,2.319336,11.779785,-4.150391
13211,-0.087646,-0.148804,0.994507,1.953125,12.329102,-2.563477
13222,-0.083618,-0.184326,1.007935,1.892090,12.573242,-1.098633
13231,-0.075317,-0.207642,0.974976,1.647949,12.878418,-0.122070
13241,-0.052002,-0.228516,0.964233,1.403809,13.061523,0.305176
13252,-0.070312,-0.221680,0.961914,1.098633,13.183594,0.854492
13261,-0.041504,-0.263184,0.940430,1.220703,12.207031,0.976562
13273,-0.029907,-0.286621,0.950317,1.220703,11.901855,0.854492
13282,-0.070312,-0.329346,0.890503,0.305176,12.268066,0.732422
13292,-0.048462,-0.379272,0.869751,0.000000,11.779785,0.122070
13301,-0.024536,-0.345825,0.888306,-0.915527,11.535645,-0.488281
13311,-0.004395,-0.294434,0.950317,-1.708984,11.535645,-1.159668
13322,0.001343,-0.227783,1.064819,-1.953125,10.375977,-2.136230
13331,0.003052,-0.261475,1.046143,-1.953125,10.375977,-3.173828
13343,0.027832,-0.274536,1.054199,-1.708984,10.131836,-5.676270
13352,0.050171,-0.237183,1.040649,-1.525879,9.338379,-6.652832
13362,0.035889,-0.197266,1.059692,-1.586914,8.422852,-7.690430
13371,0.014282,-0.201050,0.998291,-1.464844,7.873535,-8.850098
13382,0.012207,-0.241577,0.991943,-1.281738,7.690430,-9.704590
13391,0.040527,-0.267578,0.980469,-1.098633,7.995605,-10.314941
13401,0.035400,-0.277100,0.995361,-1.525879,8.056641,-10.803223
13412,0.021240,-0.251709,0.972412,-1.770020,7.202148,-11.169434
13422,0.066895,-0.258057,0.997437,-1.953125,7.019043,-11.352539
13432,0.022705,-0.262573,0.939209,-2.075195,7.202148,-11.413574
13441,0.037598,-0.245483,0.944580,-2.197266,7.019043,-11.413574
13451,0.039063,-0.268799,0.940796,-2.929688,6.835937,-11.413574
13461,0.009033,-0.257446,0.880005,-3.173828,7.080078,-11.413574
13472,0.013916,-0.290039,0.930542,-3.295898,6.958008,-12.390137
13482,0.037231,-0.219971,0.961914,-2.990723,7.019043,-12.634277
13492,0.082153,-0.236938,0.999878,-2.807617,6.774902,-13.000488
13502,0.060547,-0.298462,0.925049,-2.807617,6.042480,-13.000488
13511,0.097290,-0.237183,0.947266,-2.746582,6.042480,-12.817383
13522,0.088745,-0.192627,1.000610,-2.624512,6.469727,-12.451172
13531,0.088135,-0.191284,0.997192,-2.319336,6.103516,-12.023926
13541,0.081055,-0.210327,1.004150,-1.892090,5.981445,-12.084961
13553,0.094727,-0.168091,0.981689,-1.403809,5.065918,-12.268066
13562,0.098267,-0.209351,0.909058,-1.403809,4.516602,-12.207031
13572,0.087524,-0.176880,0.919678,-1.647949,4.272461,-11.779785
13581,0.047241,-0.141968,0.985107,-2.014160,3.479004,-10.437012
13592,-0.004639,-0.121338,1.036133,-2.502441,4.577637,-8.850098
13601,-0.075073,-0.060181,1.080933,-2.502441,5.737305,-6.958008
13611,-0.111450,-0.016479,1.118652,-2.197266,6.042480,-4.821777
13622,-0.174072,-0.053589,1.012939,-1.586914,7.751465,0.549316
13632,-0.158325,-0.070435,0.979126,-0.061035,10.437012,3.356934
13641,-0.174683,-0.095581,0.941528,-0.061035,10.620117,6.347656
13651,-0.119507,-0.158203,1.000610,-0.305176,11.230469,9.216309
13662,-0.099854,-0.007202,1.069946,-1.098633,11.047363,12.023926
13671,-0.070068,-0.009033,1.094971,-1.037598,10.925293,14.831543
13683,-0.053101,-0.079468,1.109253,0.122070,12.084961,20.874023
13692,-0.023071,-0.030884,0.989746,0.061035,11.901855,23.803711
13702,-0.037964,0.017578,0.994141,0.976562,12.390137,26.672363
13711,-0.061401,-0.041992,0.981323,2.197266,12.939453,29.479980
13721,-0.078491,-0.177246,0.947754,2.807617,12.756348,31.921387
13731,-0.109253,0.002319,0.986694,2.441406,12.573242,34.606934
13741,-0.098145,0.038818,0.984863,2.319336,12.939453,37.353516
13753,-0.129639,-0.019043,0.937256,1.525879,12.268066,41.320801
13762,-0.200684,0.032593,1.008301,0.854492,12.145996,42.663574
13772,-0.215210,-0.007568,0.981201,-0.122070,11.779785,43.395996
13781,-0.208008,0.061768,1.043457,-0.732422,12.145996,43.640137
13792,-0.230469,0.024292,1.049561,-0.732422,11.535645,43.701172
13801,-0.194336,-0.030151,1.025391,-0.366211,11.840820,42.602539
13811,-0.185425,-0.064331,1.062988,-0.366211,11.596680,41.503906
13823,-0.101074,-0.104736,0.991211,-0.366211,10.131836,38.391113
13837,-0.031006,-0.153076,0.900269,-0.305176,8.544922,36.560059
13847,-0.015259,-0.176880,0.917480,-0.549316,7.690430,35.217285
13856,0.065308,-0.194946,0.981201,-0.793457,7.263184,34.118652
13865,0.105347,-0.184692,1.022217,-0.915527,6.408691,31.982422
13875,0.092285,-0.212891,0.974731,-0.915527,3.662109,31.127930
13885,0.117188,-0.237305,0.978027,-0.549316,2.319336,30.395508
13894,0.105835,-0.248291,0.976074,0.061035,2.014160,29.968262
13904,0.065796,-0.248291,0.951172,0.305176,0.732422,29.418945
13913,0.037964,-0.271851,0.965454,0.854492,0.366211,28.808594
13922,-0.012207,-0.307007,1.018799,0.915527,-0.427246,27.709961
13932,0.015503,-0.298218,1.041016,0.732422,-0.732422,26.367187
13942,0.035278,-0.241211,1.035889,0.793457,-2.136230,24.353027
13951,0.000610,-0.268188,0.987793,1.464844,-3.051758,21.911621
13963,0.007690,-0.332642,0.956543,1.647949,-4.394531,16.418457
13973,0.033569,-0.170044,1.045654,1.281738,-4.882812,14.282227
13982,0.049805,-0.182739,1.012695,1.220703,-5.187988,11.840820
13991,0.034180,-0.207886,0.986694,1.281738,-6.591797,9.704590
14002,0.056641,-0.141479,1.028320,1.403809,-6.774902,7.751465
14011,0.098999,-0.187256,1.018921,1.647949,-6.713867,6.164551
14022,0.131226,-0.166748,1.068237,1.647949,-7.812500,4.272461
14031,0.098755,-0.195190,1.017578,1.586914,-9.460449,2.624512
14041,0.058960,-0.243164,0.966553,1.098633,-10.375977,-1.403809
14052,0.094849,-0.268188,0.994751,0.732422,-10.559082,-2.624512
14061,0.085937,-0.201904,1.007690,0.671387,-10.192871,-3.662109
14072,0.040894,-0.234375,0.970703,0.244141,-11.230469,-4.272461
14081,0.045776,-0.246948,0.982788,-0.427246,-10.925293,-4.638672
14091,0.020874,-0.162109,1.087280,-1.220703,-10.559082,-4.455566
14101,-0.015381,-0.229614,1.028198,-1.159668,-10.192871,-3.540039
14111,-0.080078,-0.189087,1.075317,-0.793457,-8.605957,-1.342773
14121,-0.095703,-0.250610,1.005493,-1.403809,-7.324219,-0.549316
14131,-0.145386,-0.188599,1.057983,-1.647949,-6.286621,0.488281
14141,-0.151489,-0.117432,1.055664,-1.586914,-5.859375,1.159668
14152,-0.233887,-0.135620,1.006958,-1.342773,-5.981445,1.831055
14162,-0.194824,-0.188232,0.996826,-0.732422,-4.516602,2.380371
14171,-0.198975,-0.133057,1.038696,-0.366211,-3.234863,3.234863
14183,-0.193237,-0.074219,0.964722,-0.183105,-1.708984,4.638672
14192,-0.200562,-0.210693,0.874023,0.183105,-1.464844,4.455566
14201,-0.199097,-0.229492,0.936646,0.366211,-0.915527,4.333496
14211,-0.219971,-0.205200,0.869751,-0.061035,-0.244141,3.967285
14221,-0.197510,-0.237183,0.882568,-0.549316,0.427246,3.234863
14231,-0.192017,-0.149780,0.964600,-0.793457,1.098633,2.014160
14241,-0.140381,-0.220825,0.949219,-1.037598,1.220703,0.244141
14253,-0.030273,-0.101929,0.993530,-1.403809,1.098633,-3.356934
14262,0.044434,0.012207,1.060303,-1.098633,1.403809,-4.760742
14272,0.118042,-0.112671,0.976318,-0.427246,1.525879,-5.676270
14282,0.173950,-0.035400,1.064819,-0.061035,0.549316,-6.591797
14291,0.193726,-0.070557,0.974609,0.244141,0.183105,-6.958008
14302,0.225708,-0.060547,0.962891,0.610352,0.366211,-7.080078
14311,0.176636,-0.143921,0.957642,0.732422,0.183105,-7.263184
14323,0.125977,-0.160522,1.000366,0.793457,-1.281738,-9.643555
14332,0.097778,-0.167480,0.981201,-0.854492,-2.075195,-11.535645
14342,0.089722,-0.119507,1.012817,-1.220703,-2.075195,-13.305664
14351,0.104126,-0.257935,0.988647,-1.342773,-2.441406,-15.136719
14361,0.104858,-0.035645,1.137817,-2.136230,-2.746582,-17.150879
14372,0.029663,-0.193481,1.060669,-1.770020,-2.990723,-18.859863
14381,0.046265,-0.071289,1.117554,-1.708984,-3.356934,-20.568848
14393,0.146851,-0.099854,1.005249,-1.220703,-3.051758,-22.888184
14402,0.143066,-0.151123,0.941650,-1.220703,-3.173828,-23.193359
14412,0.112427,-0.084961,0.899170,-1.464844,-3.112793,-22.766113
14421,0.098755,-0.046753,0.967041,-1.586914,-2.929688,-21.911621
14431,0.045898,-0.051636,1.010254,-1.953125,-2.502441,-21.118164
14441,-0.004028,-0.045654,0.964355,-2.075195,-1.403809,-19.897461
14453,-0.019653,-0.147095,0.925659,-2.197266,0.122070,-16.723633
14462,-0.036743,-0.099121,0.962280,-2.441406,0.915527,-14.953613
14472,-0.079468,-0.140625,0.965698,-2.746582,1.281738,-13.305664
14482,-0.043213,-0.053833,1.033691,-2.990723,2.380371,-11.779785
14492,-0.047485,-0.101074,1.025879,-2.807617,2.868652,-10.192871
14501,-0.075928,-0.148071,0.935669,-2.380371,3.479004,-8.605957
14511,-0.140869,-0.163696,0.922729,-2.380371,3.906250,-7.019043
14521,-0.122681,-0.139038,0.940552,-2.807617,4.699707,-5.371094
14531,-0.128052,-0.145752,0.959229,-3.112793,7.385254,-0.061035
14543,-0.182129,-0.171265,0.950806,-2.563477,8.728027,2.807617
14552,-0.163086,-0.198853,0.953613,-2.258301,9.582520,4.943848
14562,-0.119507,-0.215088,0.958130,-2.075195,10.742188,7.202148
14571,-0.058228,-0.151733,1.012085,-2.075195,11.718750,9.399414
14582,-0.081177,-0.193970,1.035034,-1.953125,12.268066,11.108398
14591,-0.094238,-0.170410,1.061035,-1.464844,11.962891,12.268066
14603,-0.027466,-0.099365,1.049805,-1.159668,12.634277,13.488770
14612,-0.032227,-0.226807,0.995117,-0.366211,11.901855,14.099121
14622,-0.034912,-0.160278,1.025879,-0.244141,11.718750,14.709473
14631,0.004150,-0.253784,0.924561,-0.122070,11.535645,15.380859
14642,0.010864,-0.228760,0.898193,-0.183105,11.291504,15.747070
14651,0.019043,-0.291260,0.877197,-0.427246,10.864258,16.174316
14663,-0.003296,-0.227539,0.933350,-1.708984,10.253906,16.601562
14672,0.047485,-0.246216,0.957642,-1.708984,10.620117,16.662598
14682,0.068481,-0.318726,0.951782,-1.586914,9.826660,16.418457
14691,0.062256,-0.240479,0.999268,-1.953125,8.361816,15.075684
14701,0.069336,-0.301025,0.905273,-2.685547,7.141113,13.427734
14712,0.059937,-0.158813,1.073486,-3.295898,5.737305,11.230469
14721,0.101929,-0.314331,1.004517,-3.234863,5.187988,8.789063
14733,0.102783,-0.125366,1.108521,-2.868652,4.089355,4.028320
14742,0.177734,-0.217163,0.902344,-2.929688,2.868652,1.525879
14751,0.204224,-0.204956,1.011841,-2.807617,2.075195,-0.061035
14761,0.197388,-0.229736,0.966187,-2.807617,1.831055,-1.220703
14771,0.243408,-0.055542,1.046997,-2.746582,0.976562,-2.441406
14781,0.220947,-0.202637,0.940063,-2.441406,-1.098633,-3.356934
14791,0.239746,-0.139282,0.959839,-2.197266,-1.831055,-3.967285
14802,0.254761,-0.239990,0.906494,-2.563477,-1.770020,-4.150391
14812,0.219727,-0.112793,1.036743,-2.685547,-2.868652,-3.356934
14822,0.173340,-0.101807,1.013794,-2.502441,-3.540039,-2.685547
14831,0.104614,0.013428,1.060181,-2.075195,-2.929688,-1.770020
14841,0.079468,-0.166626,0.949219,-2.258301,-2.380371,-0.610352
14852,0.041626,0.069824,1.044312,-2.746582,-2.807617,0.610352
14861,-0.011597,-0.118042,0.956177,-2.441406,-2.563477,2.075195
14871,-0.048828,-0.162842,0.826660,-1.953125,-2.807617,3.051758
14883,-0.083130,0.002930,0.883423,-2.929688,-1.464844,5.065918
14893,-0.130249,-0.115234,0.883301,-3.295898,-0.915527,5.615234
14902,-0.078735,-0.045532,1.049927,-3.723145,0.488281,6.591797
14912,-0.088989,-0.058472,1.094727,-3.601074,0.854492,7.690430
14921,-0.091675,-0.141235,0.982056,-3.112793,0.854492,8.544922
14931,-0.088989,0.018311,1.088501,-3.112793,0.854492,9.094238
14942,-0.088501,-0.245850,0.963867,-4.333496,1.708984,10.803223
14952,0.036377,-0.044067,1.035522,-4.516602,1.525879,11.840820
14961,0.059204,0.008057,0.956055,-4.394531,1.220703,12.878418
14971,0.026978,0.089600,1.102417,-4.394531,1.159668,14.587402
14981,0.006958,-0.052246,0.990356,-3.845215,1.281738,16.845703
14992,-0.003906,0.114990,1.121460,-3.479004,2.868652,18.798828
15001,-0.007813,-0.118774,0.984375,-3.173828,2.624512,20.874023
15013,-0.017090,0.028198,1.024902,-3.601074,2.075195,22.827148
15022,-0.023315,-0.076538,0.887207,-4.150391,1.464844,22.705078
15032,-0.061401,-0.145874,0.995361,-4.516602,0.793457,22.766113
15041,-0.013672,-0.127319,1.031982,-4.882812,0.427246,22.460937
15051,-0.014648,-0.078247,1.047974,-5.126953,0.549316,21.972656
15061,-0.013184,-0.095825,1.058960,-5.126953,0.061035,21.606445
15071,-0.012817,-0.140747,1.015137,-4.455566,-1.098633,20.690918
15083,0.010010,-0.261353,0.962891,-3.540039,-2.502441,19.165039
15092,0.071533,-0.305054,0.841187,-3.417969,-3.112793,18.554687
15102,0.065674,-0.111816,0.989990,-3.417969,-3.234863,17.639160
15111,0.024780,-0.205322,0.981689,-2.868652,-3.906250,16.723633
15122,0.033813,-0.161133,1.011353,-2.563477,-3.845215,15.930176
15131,0.026733,-0.193970,1.054810,-1.892090,-4.211426,14.953613
15142,-0.008545,-0.361084,0.884155,-1.037598,-4.394531,13.732910
15151,-0.020264,-0.229614,1.006104,-1.220703,-5.249023,12.084961
15161,-0.001099,-0.354004,0.900879,-2.075195,-5.981445,9.155273
15172,0.026978,-0.125732,1.013428,-2.136230,-6.774902,7.873535
15181,0.055420,-0.208130,0.933228,-2.014160,-7.507324,6.469727
15191,0.052612,-0.116211,0.980835,-1.525879,-7.568359,5.371094
15201,0.073853,-0.380127,0.859131,-0.915527,-7.690430,4.089355
15211,0.020142,-0.174561,0.963745,-1.098633,-7.629395,2.563477
15221,0.031738,-0.098267,0.992554,-0.915527,-8.483887,1.342773
15231,0.028931,-0.338745,0.951660,-0.427246,-9.155273,-1.342773
15242,-0.003174,-0.089111,1.102783,-0.549316,-9.521484,-2.075195
15252,0.023804,-0.141479,1.061646,-0.793457,-8.789063,-2.502441
15261,0.016357,-0.071167,1.045044,-0.427246,-8.728027,-2.502441
15271,0.053467,-0.135986,1.039307,-0.122070,-7.568359,-2.624512
15281,-0.013916,-0.226196,0.897095,-0.427246,-8.239746,-2.624512
15293,0.043213,-0.110718,1.008179,-1.281738,-7.141113,-2.380371
15302,-0.079712,-0.062988,0.922363,-1.953125,-6.896973,-2.685547
15312,-0.072021,0.102539,1.085083,-2.319336,-6.286621,-2.685547
15322,-0.050537,-0.118896,1.047974,-1.892090,-6.408691,-3.295898
15331,-0.026733,-0.001221,1.151978,-1.464844,-5.676270,-4.150391
15341,-0.068237,0.038940,1.162476,-0.610352,-5.981445,-4.760742
15351,-0.050171,-0.214355,1.073975,0.122070,-6.835937,-4.943848
15361,-0.116699,-0.220093,0.916260,0.732422,-6.713867,-5.432129
15373,-0.095093,-0.233765,0.824463,0.305176,-5.371094,-5.615234
15383,-0.087280,-0.163696,0.820679,-0.244141,-3.967285,-6.103516
15393,-0.008667,-0.046875,0.922729,-1.281738,-4.028320,-6.835937
15402,-0.019043,-0.265259,0.789307,-1.525879,-1.770020,-7.568359
15412,0.046387,-0.023560,0.995117,-2.990723,-3.601074,-8.300781
15421,0.059570,-0.067749,1.078857,-2.441406,-3.417969,-9.582520
15431,0.051392,-0.089111,1.057373,-2.746582,-5.432129,-10.437012
15441,0.068726,0.084473,1.166382,-0.976562,-4.089355,-10.681152
15452,0.055176,-0.259766,0.922607,-0.183105,-2.929688,-10.803223
15462,0.076904,-0.049927,1.000732,-0.122070,-4.638672,-11.535645
15471,0.044067,-0.221680,0.891602,-0.427246,-4.272461,-11.474609
15481,0.005615,-0.181885,0.827759,0.183105,-4.333496,-12.084961
15491,0.028931,-0.162964,0.844116,-0.366211,-1.525879,-11.474609
15501,0.029907,-0.291748,0.742065,-1.281738,-2.807617,-11.108398
15512,0.055054,-0.073364,1.056519,-2.563477,-1.770020,-10.742188
15522,0.006104,-0.139282,1.056885,-2.868652,-1.220703,-10.131836
15531,-0.018311,0.136597,1.185547,-2.136230,-1.159668,-9.948730
15541,0.006226,-0.066528,1.169556,-0.915527,-0.610352,-9.704590
15551,-0.070435,-0.306152,0.964111,-0.427246,-0.061035,-9.338379
15561,-0.078979,-0.021240,1.048096,-0.671387,0.000000,-8.972168
15573,-0.100830,-0.024536,1.020996,-1.831055,1.831055,-7.080078
15582,-0.000488,-0.024414,0.967041,-2.319336,2.258301,-5.981445
15592,-0.036987,-0.106689,0.883057,-2.746582,2.990723,-4.882812
15601,-0.018677,-0.040039,0.919800,-3.417969,3.173828,-4.028320
15611,-0.007324,0.037476,1.069580,-3.906250,3.356934,-3.723145
15620,0.000854,-0.175659,0.990356,-4.028320,4.028320,-3.540039
15631,-0.066040,-0.007935,1.073975,-3.967285,3.845215,-3.356934
15641,-0.014526,0.008423,1.136719,-3.417969,3.906250,-2.929688
15653,-0.007568,-0.036499,1.026245,-3.356934,4.882812,-0.854492
15663,0.054687,0.077515,1.136353,-3.601074,5.065918,0.671387
15673,-0.001343,-0.242798,0.868530,-3.479004,5.126953,1.770020
15682,0.005371,-0.025024,0.979370,-3.417969,5.554199,2.807617
15691,-0.026611,-0.059692,1.050171,-3.234863,6.103516,3.906250
15701,0.001831,-0.300659,0.922974,-3.112793,5.920410,4.028320
15711,-0.029297,-0.085815,1.017822,-2.990723,5.981445,4.333496
15722,-0.049805,-0.260010,1.011475,-2.197266,5.798340,5.249023
15732,-0.053833,-0.190918,0.979004,-1.037598,5.859375,5.554199
15742,-0.000488,-0.131836,0.992065,-0.915527,5.737305,5.798340
15751,-0.053467,-0.261108,0.977905,-1.159668,5.798340,6.042480
15761,-0.006958,-0.081299,1.023804,-1.342773,5.371094,5.981445
15771,0.025757,-0.016846,1.134399,-1.281738,5.981445,6.225586
15781,0.042603,-0.167480,0.958984,-0.488281,5.126953,6.347656
15793,0.024170,-0.031006,1.048096,0.732422,5.798340,7.385254
15802,0.068970,-0.135620,1.060303,1.525879,5.432129,7.446289
15812,0.010620,-0.227905,1.005371,1.953125,4.699707,7.324219
15821,0.084839,-0.196289,0.973145,2.258301,4.455566,7.629395
15831,0.007690,-0.158813,0.963013,2.441406,4.638672,7.873535
15841,0.091675,-0.330933,0.948120,2.075195,3.906250,8.178711
15851,-0.033081,-0.223633,0.990845,1.464844,3.723145,7.995605
15861,0.025879,0.097168,1.080322,0.976562,3.540039,8.789063
15872,0.027222,-0.338013,0.803101,1.159668,3.417969,9.094238
15882,0.014160,-0.088013,0.891846,0.976562,2.990723,9.460449
15891,0.002563,0.101563,1.030884,0.793457,2.929688,9.704590
15901,-0.010132,-0.125732,0.960083,0.732422,2.929688,10.131836
15911,-0.015381,-0.172119,0.992310,0.366211,3.417969,10.314941
15921,-0.009033,0.046387,1.052856,0.427246,2.990723,10.681152
15931,-0.050781,0.055542,1.033081,0.244141,3.112793,11.169434
15942,-0.061035,-0.064575,0.937988,0.244141,3.112793,11.718750
15952,0.029053,0.082397,1.041992,0.183105,2.563477,11.596680
15961,-0.000488,-0.075195,1.017700,0.244141,2.380371,12.084961
15971,0.012085,-0.154907,0.967896,0.549316,1.647949,11.779785
15981,0.001099,-0.022461,1.053833,0.976562,2.563477,12.329102
15991,-0.009521,-0.149048,1.030273,1.159668,1.892090,12.451172
16003,-0.023560,-0.111450,0.965576,0.366211,1.159668,12.145996
16013,0.057007,0.081299,1.110718,0.000000,0.915527,12.145996
16022,0.024658,-0.154541,1.015625,-0.183105,0.793457,12.573242
16031,0.010376,-0.239014,0.923462,-0.122070,1.220703,13.061523
16040,-0.003052,-0.073608,1.050293,0.183105,1.464844,13.183594
16051,0.035767,-0.054077,1.091553,0.000000,1.098633,12.756348
16060,0.037720,-0.233521,0.943359,-0.610352,0.122070,12.207031
16073,0.157837,-0.047485,1.004639,-0.976562,-1.403809,11.291504
16083,0.165771,-0.073486,0.907715,-1.831055,-2.441406,10.986328
16092,0.164673,-0.136353,0.959717,-2.624512,-3.417969,10.681152
16102,0.180542,0.091919,1.093994,-3.173828,-4.455566,10.070801
16111,0.138916,-0.076904,1.049561,-3.173828,-4.760742,9.460449
16120,0.049927,-0.254028,0.938477,-2.807617,-4.943848,8.605957
16131,0.060303,0.075073,1.025513,-2.929688,-5.371094,7.263184
16142,0.011719,-0.281738,0.973633,-2.563477,-5.981445,4.394531
16152,0.003052,-0.111572,0.998169,-2.014160,-7.019043,2.746582
16161,0.031616,0.140991,1.087891,-1.770020,-7.507324,1.220703
16171,0.052734,-0.205322,1.042725,-1.403809,-7.629395,0.305176
16181,0.040039,-0.307617,0.882935,-0.915527,-7.080078,-0.122070
16191,0.057861,-0.013672,0.970215,-0.854492,-6.958008,-0.793457
16201,0.069824,-0.195435,0.932861,-0.732422,-6.835937,-0.854492
16212,0.073975,-0.264160,0.838623,-1.403809,-7.629395,-1.953125
16222,0.020996,-0.083374,0.825317,-3.723145,-8.117676,-2.380371
16231,-0.002319,-0.143188,0.857788,-3.906250,-7.690430,-2.807617
16241,-0.024048,0.001465,0.977051,-4.089355,-7.202148,-2.868652
16250,-0.014282,-0.194946,0.980591,-4.455566,-8.300781,-2.929688
16261,-0.093628,-0.195312,0.977905,-3.540039,-5.737305,-4.028320
16271,0.012695,0.081787,1.163696,-4.150391,-4.455566,-3.906250
16280,0.020386,-0.045898,1.174438,-4.272461,-9.826660,-4.943848
16292,-0.060181,-0.217163,0.930054,-2.502441,-3.906250,-4.516602
16303,-0.009399,0.073608,1.022461,-2.624512,-5.981445,-4.394531
16312,-0.019043,-0.204346,0.947144,-2.868652,-4.577637,-3.967285
16322,-0.066772,-0.292969,0.770874,-3.845215,-4.394531,-3.417969
16331,-0.082642,0.020508,0.917847,-4.760742,-3.417969,-2.807617
16341,-0.091187,-0.054077,1.021484,-5.432129,-3.295898,-1.953125
16351,-0.087524,-0.142700,0.920532,-5.798340,-3.601074,-1.708984
16360,-0.093506,0.014282,0.976440,-5.371094,-1.586914,-1.464844
16371,-0.058838,-0.140625,0.953247,-5.737305,-2.441406,-1.037598
16381,-0.030396,0.143555,1.074585,-5.493164,-1.281738,-0.732422
16390,-0.040649,0.087646,1.114746,-4.272461,-0.915527,-0.122070
16400,-0.090820,-0.236694,0.979980,-3.356934,-0.793457,0.061035
16411,-0.077515,-0.204102,0.961060,-3.112793,-0.305176,0.305176
16420,-0.081299,0.062988,1.028076,-3.356934,-0.244141,-0.366211
16430,-0.026611,0.004272,1.066406,-3.967285,-0.488281,-1.159668
16441,0.009766,-0.132690,0.976685,-3.784180,-0.122070,-1.708984
16450,0.027466,0.069458,1.036133,-3.784180,-0.122070,-2.075195
16461,0.052246,-0.074585,1.013062,-3.479004,-0.183105,-2.014160
16470,0.045166,-0.192627,0.961670,-3.479004,0.061035,-2.380371
16481,0.061401,0.039795,0.998169,-3.417969,-0.549316,-2.746582
16491,0.112793,0.036865,1.009766,-2.990723,-1.098633,-3.295898
16500,0.074219,-0.233643,0.927124,-2.929688,-1.586914,-3.845215
16511,0.039917,0.008179,1.038452,-2.746582,-1.525879,-3.906250
16521,-0.003662,-0.193359,0.969604,-2.319336,-1.098633,-4.028320
16530,0.002563,-0.208008,1.041504,-2.014160,-0.610352,-4.394531
16541,-0.023071,0.001953,1.069824,-1.342773,-0.183105,-4.699707
16551,-0.032349,-0.076294,1.033447,-1.037598,-0.793457,-4.272461
16561,-0.058350,-0.307861,0.863647,-0.122070,-0.122070,-3.662109
16570,-0.087280,-0.165405,0.822510,-0.732422,0.793457,-3.234863
16581,-0.077271,-0.224731,0.850586,-1.464844,2.014160,-2.319336
16591,-0.063599,-0.074707,0.855591,-2.502441,2.807617,-1.220703
16600,-0.072754,0.078369,1.026855,-2.563477,2.990723,-0.305176
16611,-0.072021,-0.044312,0.995972,-2.563477,3.479004,0.305176
16621,-0.056641,-0.071289,0.972778,-2.685547,3.417969,0.610352
16633,-0.072754,0.072876,1.244263,-1.098633,4.028320,1.281738
16643,-0.009155,-0.064819,1.151611,0.183105,3.845215,2.136230
16652,-0.044434,-0.251831,1.040894,1.892090,3.906250,3.295898
16661,-0.013916,-0.210815,0.944580,2.929688,4.028320,4.089355
16671,0.046143,-0.124023,1.031494,3.112793,4.577637,5.004883
16681,0.088379,-0.153442,0.975586,2.563477,4.760742,5.554199
16690,0.111694,-0.319214,0.871216,1.708984,4.028320,6.225586
16701,0.055786,-0.289307,0.874146,0.671387,3.234863,6.591797
16711,0.106812,-0.160278,1.019775,0.183105,2.075195,6.591797
16721,0.045410,-0.388550,0.927612,-0.061035,1.525879,6.225586
16730,0.012207,-0.304199,0.936768,-0.732422,1.831055,5.493164
16741,-0.001343,-0.017212,0.980835,-1.342773,1.281738,4.943848
16750,0.030273,-0.082886,1.013306,-1.647949,1.037598,4.699707
16761,-0.054321,-0.121216,0.986084,-1.831055,1.342773,4.272461
16770,-0.007446,-0.015869,1.056885,-1.708984,1.647949,2.929688
16782,-0.006348,-0.083862,1.034546,-1.159668,2.014160,2.319336
16792,-0.024780,-0.168335,0.978882,-1.098633,0.793457,1.831055
16801,0.053467,-0.056030,0.954224,-1.281738,0.671387,1.159668
16810,0.037231,0.022461,1.043701,-1.220703,1.464844,1.037598
16821,0.039917,-0.010132,1.044678,-1.647949,0.976562,0.976562
16831,0.056030,-0.191528,0.920288,-2.075195,0.732422,0.976562
16840,0.030151,-0.172119,0.922607,-2.624512,0.610352,1.708984
16852,0.033447,0.121460,1.108643,-2.441406,0.488281,2.258301
16861,0.067139,-0.005249,1.083862,-1.953125,0.488281,2.563477
16871,0.002930,-0.109863,1.061890,-0.793457,0.305176,3.173828
16880,0.023560,-0.196411,1.049072,0.488281,0.366211,3.845215
16890,-0.000610,-0.141479,0.980957,1.159668,0.671387,4.394531
16901,0.000610,-0.307251,0.823486,1.281738,1.098633,5.126953
16910,-0.014038,-0.456787,0.675049,0.427246,0.366211,5.859375
16922,-0.019287,-0.324219,0.780273,-3.356934,0.549316,6.225586
16932,-0.046143,-0.274048,0.867187,-5.310059,1.037598,6.103516
16941,-0.059814,0.059082,1.109619,-6.286621,1.159668,5.920410
16951,-0.060059,0.098511,1.186646,-5.981445,1.403809,5.676270
16960,-0.030273,-0.132568,1.084839,-4.882812,2.197266,5.432129
16971,-0.082886,-0.221313,1.074097,-4.516602,1.586914,5.554199
16980,-0.053711,-0.084839,1.182251,-4.150391,2.014160,4.699707
16992,-0.006714,-0.069702,0.993164,-2.502441,2.685547,4.455566
17002,-0.021851,-0.181885,0.843140,-1.586914,2.197266,3.967285
17011,0.078369,-0.250854,0.732788,-0.915527,2.990723,3.662109
17021,0.118042,-0.036133,0.851318,-1.342773,2.136230,3.051758
17030,0.134155,0.051758,1.088745,-1.647949,1.098633,1.953125
17040,0.099365,-0.081787,1.172974,-1.708984,-0.610352,0.976562
17050,0.066040,-0.090210,1.201416,-1.525879,-1.525879,0.183105
17061,0.093872,-0.203491,1.114990,-0.610352,-0.549316,0.427246
17071,0.073364,-0.297729,1.023926,-0.488281,-0.366211,0.305176
17080,0.023682,-0.369019,1.020874,-1.037598,-0.122070,-0.061035
17091,0.038208,-0.208618,0.986206,-3.845215,-1.220703,-0.671387
17100,0.052979,-0.098389,0.965210,-4.882812,-1.342773,-1.037598
17111,0.073975,-0.180786,0.904175,-5.371094,-1.647949,-2.075195
17120,0.096680,-0.678589,0.084106,-4.821777,-2.502441,-3.295898
17130,-0.130859,-0.249878,0.279419,-13.671875,-3.356934,-3.479004
17141,-0.087158,0.288330,0.310669,-20.507812,-3.845215,-5.004883
17150,-0.000366,0.719238,0.186157,-25.329590,-2.990723,-5.371094
17160,0.000610,1.063110,0.512817,-26.733398,-1.647949,-4.638672
17170,-0.006958,0.741943,0.780151,-24.414062,-2.441406,-5.065918
17180,-0.112671,0.444336,0.944458,-23.986816,-2.502441,-5.126953
17191,-0.072388,0.567749,0.935303,-29.785156,0.000000,-4.333496
17201,-0.009033,0.888550,0.999146,-28.991699,0.244141,-2.807617
17210,0.001099,0.638916,1.143188,-25.634766,-0.061035,-2.014160
17220,0.008301,0.443726,1.553101,-21.362305,0.427246,-1.708984
17230,0.000488,0.249390,1.674438,-17.700195,-0.061035,-0.732422
17241,0.069092,0.668701,2.376831,-14.587402,0.000000,1.220703
17250,0.025024,0.803467,2.007935,-10.559082,0.976562,3.173828
17261,-0.052246,-0.038086,0.268799,2.197266,2.563477,5.554199
17271,0.028076,0.375488,1.883545,1.220703,2.014160,6.591797
17280,-0.158936,0.323242,2.038086,-3.173828,0.610352,7.812500
17290,-0.229004,0.342651,0.773193,-6.042480,1.037598,8.728027
17300,-0.059570,0.620728,-0.156860,-4.882812,2.807617,10.192871
17310,0.116821,0.993286,0.547974,0.183105,6.591797,11.596680
17320,-0.068481,0.750732,1.981812,2.380371,5.676270,11.657715
17331,-0.101440,-0.071899,1.869141,-1.770020,1.464844,6.896973
17341,0.247314,1.022339,0.175049,-4.455566,1.831055,5.371094
17350,0.154785,1.581177,1.008301,-3.356934,2.136230,6.713867
17360,-0.044312,0.942261,1.746216,-0.366211,1.647949,8.789063
17370,-0.125977,0.041382,1.365112,1.037598,1.159668,9.399414
17380,0.126587,0.109619,0.702515,-2.014160,0.793457,7.995605
17390,0.347046,1.351196,0.683594,-7.690430,1.403809,7.507324
17401,0.085571,1.613647,1.276733,-1.770020,-0.244141,8.789063
17411,-0.058960,-0.243774,1.034912,3.479004,-0.366211,4.943848
17421,0.228638,0.300537,0.703857,-0.244141,-1.708984,1.647949
17430,0.222412,1.083008,0.919312,-5.065918,-1.159668,1.525879
17440,-0.131714,1.073730,1.357788,-5.981445,-0.976562,2.624512
17450,-0.218018,0.234375,0.929565,-2.685547,-0.915527,2.197266
17460,0.031372,0.252075,0.619263,-0.549316,-0.427246,0.305176
17470,0.263672,0.669922,0.840576,-1.464844,0.488281,-0.610352
17481,-0.178711,0.453735,1.228149,-2.929688,-1.525879,-0.244141
17491,-0.139282,0.098999,0.688721,-1.831055,-0.488281,-1.159668
17500,0.132446,0.617554,0.744019,-2.563477,0.671387,-2.380371
17510,0.050293,1.006470,1.180664,-4.638672,0.305176,-2.014160
17520,-0.160889,0.770630,1.235718,-5.371094,-0.854492,-1.464844
17531,-0.125854,0.472168,0.826172,-4.150391,0.915527,-1.708984
17540,0.039307,0.701050,0.707153,-3.601074,1.770020,-2.807617
17551,0.025024,1.001831,1.200562,-4.333496,0.610352,-3.234863
17560,0.059814,0.430298,0.975708,-2.929688,0.610352,-2.563477
17570,0.161865,0.607056,0.870728,-2.258301,0.732422,-3.173828
17580,0.303589,0.919556,0.953979,-2.563477,0.366211,-3.479004
17590,0.111206,0.862305,1.096436,-1.708984,-0.854492,-2.624512
17600,-0.010620,0.476929,1.131714,-0.244141,-1.281738,-2.258301
17611,-0.055664,0.248901,0.927124,-1.159668,0.488281,-3.906250
17621,0.008301,0.776733,1.051147,-3.295898,1.464844,-4.699707
17630,-0.125244,0.652222,1.065552,-3.784180,0.671387,-4.699707
17640,-0.112183,0.473511,0.968994,-3.723145,1.403809,-5.249023
17650,-0.058960,0.538086,0.899780,-4.394531,1.403809,-5.981445
17660,-0.033325,0.702881,1.040527,-5.126953,1.525879,-6.469727
17670,-0.155151,0.770630,1.126709,-5.859375,2.197266,-5.981445
17680,-0.226196,0.723511,1.020142,-6.408691,2.685547,-5.798340
17691,-0.082153,0.790283,0.931519,-4.882812,6.347656,-6.103516
17701,0.004395,0.832642,1.031494,-5.249023,4.577637,-5.981445
17710,0.019165,0.786865,1.015137,-5.798340,5.310059,-5.187988
17720,0.094482,0.748535,0.947266,-5.920410,5.737305,-4.333496
17730,0.178833,0.855957,0.917358,-5.981445,4.943848,-3.112793
17739,0.173950,0.864502,0.976318,-5.676270,3.540039,-0.793457
17751,0.127808,0.799194,1.060913,-3.723145,5.615234,1.525879
17760,0.088745,0.770874,1.029175,-2.197266,5.065918,2.258301
17769,0.134521,0.483154,0.987549,0.122070,5.249023,1.770020
17780,0.133789,0.510864,1.070313,0.915527,4.272461,1.464844
17790,0.077148,0.401245,1.041260,2.380371,4.150391,1.770020
17800,0.067993,0.304565,0.984619,4.394531,4.638672,2.014160
17809,0.105591,0.258179,0.907349,6.835937,5.187988,1.586914
17820,0.100220,0.207520,0.842651,8.728027,4.333496,1.220703
17832,0.018433,0.206787,1.043457,11.108398,3.906250,-1.220703
17841,0.004150,0.126221,0.981812,13.305664,3.356934,-3.112793
17850,0.002563,0.165527,0.961304,16.235352,0.366211,-5.065918
17860,-0.002930,0.257446,0.963501,19.592285,3.112793,-6.591797
17869,-0.043213,0.250122,0.927979,20.690918,0.976562,-6.652832
17880,-0.081299,-0.698486,0.947388,23.315430,4.333496,-6.347656
17891,0.028931,-1.204224,1.414429,11.230469,5.371094,-3.662109
17901,0.185303,-0.467285,1.735962,4.760742,2.319336,-2.136230
17911,0.139893,-0.171997,0.908447,6.958008,2.807617,-2.624512
17920,0.262207,0.078613,1.203125,11.779785,1.098633,-3.051758
17929,0.012451,-0.062012,1.184692,14.831543,-0.610352,-1.281738
17940,0.006348,-0.142334,1.023193,14.770508,1.220703,0.854492
17950,-0.079468,0.109253,1.141113,12.023926,2.014160,2.075195
17961,-0.002197,0.314697,1.064941,9.948730,2.807617,0.122070
17970,0.014282,0.362671,1.065430,10.437012,4.821777,0.122070
17980,0.079712,0.312744,1.223511,10.070801,3.662109,0.305176
17989,0.046753,0.188721,1.266357,10.559082,4.821777,0.488281
18000,0.084229,0.039429,1.258911,11.718750,3.051758,-0.915527
18010,0.042969,-0.012939,1.169678,12.145996,2.624512,-2.807617
18020,0.017212,-0.090210,1.084106,12.451172,2.624512,-3.845215
18030,-0.019775,-0.234619,0.969971,13.305664,2.929688,-4.882812
18041,-0.088501,-0.318237,0.819702,13.854980,3.112793,-6.591797
18051,-0.082397,-0.322388,0.735840,12.939453,3.112793,-7.141113
18060,-0.090454,-0.335571,0.714722,12.451172,3.417969,-7.690430
18069,-0.067505,-0.360474,0.720459,11.840820,4.089355,-8.056641
18080,-0.024048,-0.425293,0.697998,11.291504,4.333496,-7.995605
18089,0.053345,-0.447876,0.696655,10.620117,4.455566,-7.568359
18100,0.062134,-0.417847,0.707031,9.643555,4.150391,-7.446289
18111,0.133911,-0.323730,0.671631,8.483887,3.845215,-6.103516
18120,0.164917,-0.318359,0.721924,6.591797,3.906250,-5.126953
18129,0.182495,-0.275757,0.766113,5.859375,3.784180,-3.967285
18140,0.197754,-0.222046,0.847534,4.821777,3.601074,-2.258301
18150,0.206299,-0.190063,0.868530,4.028320,3.356934,-0.793457
18160,0.214355,-0.127686,0.871216,3.417969,2.807617,0.549316
18171,0.191040,-0.126587,0.905029,2.624512,1.708984,2.807617
18180,0.169067,-0.135620,0.981812,2.197266,1.647949,3.662109
18189,0.171387,-0.123901,1.027222,2.075195,1.647949,4.333496
18200,0.174438,-0.137207,1.032837,1.708984,1.708984,4.638672
18210,0.196289,-0.174316,1.041870,1.159668,0.488281,4.272461
18219,0.171997,-0.199097,1.009033,0.122070,0.000000,3.479004
18230,0.084839,-0.118774,0.947632,-1.220703,-1.403809,1.831055
18241,0.021484,-0.051270,0.897705,-1.953125,-3.662109,-1.708984
18250,0.017334,-0.129028,0.959106,-1.464844,-4.028320,-2.929688
18261,0.122192,-0.218628,0.979126,-1.708984,-4.394531,-3.906250
18270,0.167236,-0.219604,1.023438,-2.258301,-3.906250,-4.699707
18280,0.146973,-0.201904,1.008301,-2.929688,-4.516602,-5.187988
18289,0.110352,-0.189331,1.008545,-2.746582,-4.272461,-5.310059
18300,0.082031,-0.210693,1.019531,-2.441406,-4.638672,-5.004883
18309,0.098755,-0.299561,1.006104,-1.831055,-4.638672,-4.882812
18321,0.092163,-0.308105,0.920654,-1.525879,-4.150391,-4.821777
18330,0.079346,-0.256836,0.943359,-2.258301,-5.798340,-5.859375
18340,0.033203,-0.236328,0.883301,-1.953125,-5.615234,-5.737305
18349,0.024170,-0.300537,0.899292,-1.342773,-6.042480,-5.493164
18360,0.029297,-0.346802,0.932739,-1.098633,-5.126953,-4.638672
18369,0.070312,-0.253296,0.975952,-1.464844,-4.272461,-3.784180
18380,0.047607,-0.282837,0.977661,-1.525879,-3.967285,-2.990723
18391,0.051758,-0.221191,0.909790,-1.281738,-3.234863,-0.915527
18400,0.032837,-0.099976,0.912476,-2.380371,-3.479004,-0.061035
18410,0.022583,-0.055542,0.942627,-2.685547,-3.112793,0.732422
18420,0.009644,-0.067139,0.977539,-2.807617,-3.417969,1.708984
18429,0.012451,-0.064331,1.000122,-2.990723,-2.868652,3.112793
18440,0.006836,-0.091431,1.036499,-2.868652,-2.380371,5.065918
18449,-0.002563,-0.128784,1.025513,-2.807617,-2.014160,6.958008
18462,0.001709,-0.148315,0.990112,-2.624512,-1.770020,9.582520
18471,-0.011841,-0.145386,1.000122,-2.502441,-1.464844,10.559082
18481,-0.036987,-0.117798,0.971436,-2.807617,-1.159668,11.352539
18490,-0.042603,-0.123779,0.988525,-2.868652,-0.671387,12.145996
18499,-0.057739,-0.144531,0.987183,-2.868652,0.183105,12.573242
18510,-0.078857,-0.138428,0.971191,-3.051758,0.610352,12.390137
18519,-0.067749,-0.146118,0.970215,-3.356934,0.244141,11.840820
18531,-0.015381,-0.160400,0.930786,-3.234863,0.244141,9.399414
18541,0.002563,-0.172974,0.880005,-3.173828,0.427246,7.934570
18550,0.009888,-0.180176,0.876709,-3.356934,-0.061035,6.835937
18559,0.003296,-0.152832,0.905029,-3.784180,0.305176,6.164551
18570,0.014526,-0.143066,0.941650,-4.150391,0.061035,6.164551
18580,0.053589,-0.159424,0.989624,-4.089355,1.098633,6.469727
18589,0.060669,-0.155396,1.005127,-4.150391,1.708984,6.652832
18601,0.047119,-0.129639,0.999023,-4.516602,-0.488281,6.347656
18611,0.058594,-0.115356,0.959595,-3.784180,1.953125,5.798340
18620,0.078857,-0.081543,0.966309,-4.516602,0.000000,5.554199
18629,0.099731,-0.062378,0.988281,-4.089355,0.244141,4.394531
18639,0.102051,-0.067383,0.992798,-4.211426,0.061035,4.028320
18650,0.094849,-0.074463,1.005493,-4.028320,-0.244141,3.967285
18659,0.100220,-0.087646,1.015381,-4.028320,-0.183105,4.089355
18671,0.146240,-0.107056,1.046509,-3.845215,-0.183105,3.295898
18683,0.139648,-0.108276,1.064453,-3.601074,-1.159668,2.441406
18693,0.127197,-0.097168,1.080078,-3.295898,-1.037598,1.220703
18702,0.100464,-0.074341,1.069580,-3.417969,-1.953125,0.061035
18711,0.076172,-0.046753,1.067627,-3.295898,-2.868652,-0.793457
18721,0.063354,-0.021484,1.071289,-3.112793,-2.868652,-1.159668
18730,0.070435,-0.024536,1.056030,-2.746582,-3.051758,-1.342773
18741,0.076172,-0.038818,1.037598,-2.136230,-3.234863,-1.647949
18751,0.069336,-0.047852,1.029053,-2.197266,-3.723145,-1.647949
18760,0.065063,-0.065308,1.010620,-1.953125,-3.112793,-1.892090
18770,0.063843,-0.079956,1.001221,-1.831055,-4.028320,-2.197266
18779,0.053711,-0.084839,1.005615,-1.708984,-3.601074,-2.380371
18790,0.038818,-0.090942,1.011353,-1.342773,-3.601074,-2.380371
18799,0.020752,-0.098145,0.997437,-1.098633,-4.211426,-2.319336
18811,0.028320,-0.101318,0.973633,-0.976562,-2.319336,-2.380371
18820,0.030884,-0.096680,0.978516,-1.220703,-3.784180,-2.685547
18830,0.020020,-0.091675,0.984497,-1.464844,-3.784180,-3.051758
18839,0.015015,-0.096924,0.986816,-1.708984,-4.272461,-2.868652
18850,0.020630,-0.100464,0.991089,-1.281738,-3.417969,-2.258301
18864,0.022217,-0.091431,0.999146,-1.281738,-2.563477,-0.305176
18874,0.022095,-0.086792,0.994507,-1.464844,-5.615234,0.061035
18883,0.022949,-0.078369,0.985596,-1.037598,-2.929688,0.549316
18893,0.023437,-0.074829,0.986206,-1.159668,-2.868652,1.037598
18902,0.023071,-0.078125,0.992920,-1.464844,-3.356934,1.525879
18911,0.024414,-0.088745,0.999756,-1.098633,-1.586914,1.525879
18921,0.023560,-0.100830,1.000488,-0.915527,-2.502441,1.953125
18930,0.019165,-0.108887,1.002563,-1.159668,-2.563477,2.380371
18939,0.020630,-0.115234,1.002319,-0.732422,-1.831055,2.441406
18951,0.019409,-0.116211,0.995972,-1.220703,-4.638672,2.563477
18960,0.010010,-0.117065,0.994019,-1.098633,-3.845215,2.441406
18970,0.008423,-0.127441,0.983643,-0.976562,-1.098633,3.051758
18979,0.006714,-0.123779,0.980347,-1.159668,-4.455566,2.868652
18989,0.006714,-0.096680,0.973511,-1.037598,0.061035,3.112793
19000,0.013062,-0.078857,0.970947,-1.708984,-2.197266,3.601074
19009,0.019165,-0.067871,0.978516,-1.403809,-1.464844,3.173828
19021,0.030151,-0.066162,0.988647,-1.892090,-3.051758,3.417969
19030,0.028687,-0.071899,0.989258,-1.342773,-2.624512,3.784180
19040,0.028564,-0.090820,0.997070,-1.281738,-1.647949,4.089355
19049,0.034668,-0.113159,1.002075,-1.403809,-1.525879,4.699707
19060,0.030273,-0.130859,1.002441,-1.159668,-1.831055,5.371094
19069,0.016724,-0.144775,0.994873,-1.342773,-2.441406,5.676270
19080,0.008667,-0.156494,0.997437,-1.403809,-2.258301,5.737305
19089,0.021362,-0.153564,1.003174,-1.220703,-2.136230,4.882812
19100,0.002075,-0.154297,0.996216,-1.281738,-2.014160,4.943848
