timestamp,accX,accY,accZ,gyrX,gyrY,gyrZ
11,-0.046875,-0.129883,0.923462,0.610352,-4.333496,-20.935059
21,-0.024658,-0.144287,0.865112,0.244141,-3.051758,-19.836426
31,-0.002197,-0.147705,0.907349,-0.488281,-2.319336,-18.493652
41,0.001099,-0.088013,0.946899,-1.525879,-2.502441,-17.395020
51,-0.048950,-0.059692,0.971313,-2.380371,-2.563477,-15.991211
60,-0.027710,-0.013916,1.029053,-2.014160,-1.525879,-15.563965
70,-0.046631,-0.019287,1.006348,-1.647949,-1.647949,-15.625000
80,-0.006348,-0.044678,0.988281,-0.854492,-2.075195,-16.235352
90,0.002197,-0.078003,1.003906,-1.098633,-2.075195,-16.357422
100,-0.024536,-0.047119,0.982422,-0.305176,-1.342773,-15.563965
110,-0.020630,-0.077148,1.009766,0.244141,-1.098633,-14.221191
120,-0.059937,-0.037231,1.015503,0.671387,-1.098633,-13.183594
131,-0.072632,0.034546,1.101807,1.098633,-0.671387,-12.390137
140,-0.133545,-0.070435,1.018311,1.953125,0.549316,-11.047363
152,-0.140137,-0.129883,0.959595,2.685547,0.671387,-10.498047
161,-0.136719,-0.086182,0.990967,2.868652,1.403809,-10.009766
171,-0.121704,0.013184,1.003540,2.685547,1.770020,-9.399414
180,-0.109009,-0.038696,1.019531,2.380371,2.197266,-8.300781
190,-0.134644,-0.101807,1.041138,2.319336,2.868652,-7.690430
201,-0.129395,-0.100342,1.056030,2.563477,3.601074,-7.568359
210,-0.131958,-0.097046,1.018677,2.685547,4.333496,-7.385254
220,-0.094849,-0.110840,1.003784,2.807617,4.760742,-7.934570
231,-0.062134,-0.093018,1.059448,2.563477,4.150391,-8.789063
240,-0.053833,0.009888,1.084961,2.807617,4.028320,-10.009766
250,-0.067505,0.035156,1.110596,3.112793,4.028320,-11.779785
261,-0.020508,-0.034180,1.081421,3.662109,3.051758,-13.671875
270,-0.020386,-0.092651,1.042847,4.516602,3.234863,-15.686035
280,-0.068481,-0.144043,0.987427,4.882812,2.563477,-18.127441
292,-0.158447,-0.103882,0.900635,4.455566,3.479004,-20.507812
301,-0.162964,-0.075195,0.946899,4.028320,4.638672,-21.057129
311,-0.211914,-0.002686,0.942139,3.845215,5.798340,-21.179199
321,-0.246338,0.052979,1.048950,3.906250,7.019043,-22.460937
330,-0.287964,0.067749,1.036987,3.723145,7.751465,-24.719238
341,0.086914,-0.487183,1.224731,3.784180,9.277344,-27.282715
350,0.512085,-0.283936,1.015015,1.831055,7.141113,-28.625488
362,-0.828125,0.017456,0.985840,0.793457,-3.234863,-25.695801
371,-0.642090,0.330688,0.718994,3.417969,5.981445,-16.845703
381,0.436279,-0.109009,0.592529,6.164551,20.019531,-5.249023
391,0.893799,-0.477905,0.801514,5.920410,24.658203,2.685547
401,0.063477,-0.478149,0.998047,2.197266,17.700195,2.380371
410,-0.312256,0.060425,1.322998,-1.403809,11.718750,0.122070
423,-0.324097,-0.065796,1.189941,2.380371,10.803223,-6.103516
433,-0.229248,-0.448608,0.930054,4.333496,11.413574,-5.249023
442,-0.078003,-0.476196,0.701416,2.929688,11.657715,-2.746582
452,0.071167,-0.229492,0.799683,-0.183105,13.305664,4.272461
462,0.211670,0.032104,0.990967,-1.220703,15.319824,12.634277
471,0.014893,-0.032593,0.967529,0.549316,15.930176,15.319824
481,-0.314453,-0.209229,1.066528,2.624512,15.625000,15.441895
490,-0.249390,-0.360840,1.181030,3.295898,19.653320,10.925293
500,-0.111328,-0.101929,1.281250,2.624512,16.662598,3.662109
510,-0.179077,-0.089600,0.792358,3.173828,12.084961,-3.845215
521,-0.079834,-0.224976,0.665771,3.112793,11.108398,-10.009766
531,0.088013,-0.239746,0.810181,2.075195,12.573242,-10.375977
541,0.099365,-0.107666,1.002075,0.244141,13.427734,-7.080078
551,0.037964,0.081055,1.146240,-1.098633,13.977051,-2.258301
560,0.021118,0.081909,1.146729,-0.366211,15.930176,9.460449
572,-0.042358,-0.235474,0.869507,1.342773,18.920898,11.413574
581,-0.167236,-0.279907,0.869263,0.366211,17.517090,10.253906
590,-0.219604,-0.123535,1.023926,-1.037598,15.991211,7.995605
601,-0.193604,-0.101563,1.115112,-1.647949,15.686035,5.920410
611,-0.014893,-0.147339,1.104126,-1.586914,15.930176,5.737305
620,0.070068,-0.302612,1.004883,-0.915527,16.235352,6.408691
633,0.127808,-0.399048,0.899048,-1.464844,16.479492,10.437012
642,0.169556,-0.384033,0.950195,-2.441406,16.845703,13.671875
652,0.157104,-0.317627,0.990723,-3.417969,16.662598,16.357422
662,0.109253,-0.325806,0.962036,-3.662109,15.502930,17.639160
671,0.064453,-0.321533,0.982422,-3.784180,13.610840,17.395020
681,0.059326,-0.305054,1.011230,-3.540039,12.390137,16.784668
690,0.102539,-0.353638,0.966553,-3.417969,12.023926,16.418457
703,0.088745,-0.340454,0.884277,-3.906250,10.498047,16.174316
712,0.052246,-0.279541,0.876465,-4.455566,10.070801,16.906738
722,0.077759,-0.264282,0.922363,-4.699707,9.948730,17.517090
731,0.109863,-0.236450,1.058228,-4.760742,9.582520,17.761230
741,0.156372,-0.276245,0.997803,-4.455566,8.178711,16.601562
751,0.248535,-0.242920,0.983032,-4.516602,5.432129,13.000488
761,0.174072,-0.182251,1.017090,-4.272461,2.868652,8.850098
771,0.132690,-0.158936,1.037476,-3.051758,2.258301,2.014160
782,0.182373,-0.192017,0.974609,-2.197266,2.197266,0.122070
792,0.161987,-0.240479,0.914795,-2.014160,0.488281,-1.525879
801,0.168945,-0.144653,0.893433,-2.624512,-1.098633,-2.258301
811,0.153442,-0.138428,0.876099,-2.990723,-1.770020,-1.831055
821,0.173462,-0.085815,1.038818,-3.295898,-1.525879,-0.427246
831,0.132568,-0.057861,1.081177,-2.929688,-0.305176,1.831055
840,0.063599,-0.057861,1.090332,-2.197266,0.000000,5.126953
852,0.017090,-0.083008,1.017090,-1.708984,-0.488281,5.493164
862,0.048096,-0.071655,1.052002,-1.342773,-0.488281,5.187988
871,0.025391,-0.140991,0.967773,-0.976562,-0.854492,5.004883
881,0.047241,-0.109375,1.042847,-1.342773,-1.586914,4.638672
891,0.031372,-0.060913,1.091309,-1.586914,-0.976562,5.004883
901,0.040894,-0.040649,1.081177,-1.525879,-0.549316,5.493164
910,-0.036011,-0.045776,1.027710,-0.671387,-0.732422,6.530762
922,-0.093994,-0.130493,0.910400,-0.549316,-1.037598,6.408691
932,-0.050293,-0.128784,0.960937,-0.183105,-0.610352,6.347656
942,-0.033813,-0.214355,0.957886,-0.427246,-0.793457,6.469727
951,-0.036133,-0.158813,0.990234,-0.427246,-0.549316,6.469727
961,0.035400,-0.208252,0.937500,-0.488281,-0.366211,6.774902
970,0.044189,-0.163330,0.951904,-1.159668,0.061035,7.385254
982,0.038208,-0.055908,1.016235,-1.831055,-0.122070,9.155273
991,0.042358,0.003784,1.113525,-1.770020,0.061035,10.314941
1001,-0.020020,-0.093994,1.066040,-1.953125,-0.061035,11.779785
1011,-0.037231,0.056763,1.083252,-2.319336,0.061035,13.549805
1020,-0.014648,0.059814,1.037231,-1.831055,0.183105,15.930176
1031,-0.046387,-0.021484,0.968872,-0.976562,0.122070,18.310547
1041,0.011963,-0.145264,0.901245,-0.549316,0.122070,20.568848
1052,-0.034546,-0.090820,0.922119,-1.037598,0.732422,24.291992
1062,-0.042603,-0.094971,0.997314,-1.831055,0.366211,24.963379
1071,-0.011597,-0.144409,1.118286,-1.098633,0.549316,24.475098
1081,-0.029175,-0.219971,1.117432,-0.122070,-0.061035,22.338867
1090,-0.016602,-0.234619,1.033203,0.488281,-1.281738,19.470215
1101,-0.002563,-0.321411,0.915405,0.488281,-2.319336,16.601562
1111,0.041016,-0.277344,0.963257,0.061035,-3.417969,13.854980
1122,0.012817,-0.189819,0.908081,-0.183105,-4.699707,10.620117
1131,0.023315,-0.179321,0.948730,-0.732422,-4.089355,9.582520
1141,0.063477,-0.255615,1.059814,-0.427246,-4.211426,8.422852
1151,0.091187,-0.228027,1.046997,-0.061035,-5.065918,7.446289
1161,0.040771,-0.280762,1.020752,0.427246,-5.981445,6.408691
1171,-0.002441,-0.280151,0.972412,0.976562,-6.469727,5.676270
1180,-0.008667,-0.357544,0.956543,1.342773,-6.347656,5.432129
1192,0.036987,-0.348511,0.864624,1.464844,-5.981445,4.760742
1202,0.043335,-0.307007,0.905273,0.549316,-5.859375,3.967285
1211,0.032715,-0.344971,0.940918,-0.305176,-6.408691,3.479004
1221,0.034180,-0.288086,0.955566,-0.976562,-6.347656,2.197266
1231,0.045044,-0.250244,0.959961,-1.586914,-6.835937,1.098633
1241,-0.004761,-0.301270,0.927979,-1.953125,-7.080078,0.061035
1251,-0.016113,-0.302979,0.935669,-2.624512,-6.958008,-1.037598
1261,-0.002319,-0.253052,1.015503,-3.234863,-7.019043,-2.685547
1271,-0.034424,-0.293457,0.912842,-3.234863,-7.141113,-3.723145
1280,0.010132,-0.241699,0.963501,-3.601074,-6.652832,-4.394531
1291,0.005371,-0.309570,1.039551,-3.906250,-6.469727,-4.516602
1301,0.046265,-0.140259,1.172729,-3.967285,-5.920410,-4.699707
1311,-0.008179,-0.352783,0.999023,-3.479004,-5.981445,-4.272461
1321,0.038208,-0.103760,1.113525,-2.685547,-5.798340,-3.479004
1331,0.025513,-0.358398,0.967041,-2.380371,-4.699707,-2.258301
1340,-0.088257,-0.190430,0.940674,-2.868652,-4.089355,-1.281738
1350,-0.166626,-0.347534,0.829102,-3.601074,-3.479004,-0.793457
1361,-0.217285,-0.134521,1.010010,-4.089355,-1.770020,-1.220703
1371,-0.245972,-0.129028,0.923828,-4.028320,-1.098633,-1.647949
1380,-0.262939,0.040894,1.038208,-4.089355,-0.244141,-2.563477
1392,-0.259766,-0.161377,0.935303,-3.723145,0.671387,-4.211426
1402,-0.230591,-0.023926,0.971924,-3.417969,1.037598,-4.211426
1411,-0.195557,-0.113770,0.883545,-3.234863,1.953125,-3.784180
1421,-0.131348,0.018799,0.953003,-2.746582,3.173828,-2.380371
1431,-0.148926,-0.153198,0.897583,-2.685547,3.967285,-1.159668
1440,-0.160034,0.092773,1.052612,-3.173828,5.310059,-0.244141
1451,-0.139282,0.048096,1.156006,-2.868652,6.408691,1.220703
1460,-0.136475,-0.057739,1.078003,-2.258301,7.202148,2.136230
1473,-0.008545,-0.195068,0.951172,-1.281738,7.446289,2.746582
1483,0.009766,-0.009888,0.943726,-2.197266,7.080078,3.173828
1492,0.129150,-0.010010,0.987793,-2.502441,7.446289,4.028320
1501,0.132446,-0.119629,0.971558,-2.380371,6.469727,5.004883
1511,0.211792,-0.056152,1.034058,-1.831055,5.371094,5.615234
1521,0.204834,-0.226562,0.924316,-1.586914,4.821777,6.347656
1531,0.119751,-0.149048,1.015625,-1.953125,4.577637,6.896973
1541,0.061279,-0.304199,0.962769,-1.892090,5.493164,7.324219
1552,-0.015503,-0.261230,1.022095,-1.159668,4.699707,5.676270
1562,-0.067749,-0.270386,0.990479,-0.427246,3.845215,2.929688
1572,-0.111816,-0.281982,0.996948,-0.061035,3.173828,0.183105
1581,-0.180786,-0.376709,0.892700,-0.122070,2.868652,-2.624512
1591,-0.105103,-0.161011,0.881836,-0.671387,2.929688,-5.432129
1600,-0.037842,-0.186279,0.865479,-0.671387,3.662109,-7.141113
1612,0.061279,-0.060425,1.077148,-1.037598,4.272461,-10.375977
1621,0.079956,-0.152466,0.998657,-0.488281,4.028320,-11.840820
1631,0.102539,-0.114868,1.060181,-0.793457,4.150391,-12.756348
1640,0.063721,-0.149780,1.060303,-0.854492,4.577637,-12.878418
1651,0.025635,-0.191772,0.974854,-0.915527,4.577637,-12.207031
1661,0.073364,-0.094971,0.943115,-0.793457,5.432129,-10.681152
1672,0.110352,-0.080811,0.990356,-0.793457,6.469727,-7.324219
1682,0.006470,-0.009399,0.938721,-1.098633,6.530762,-6.042480
1691,0.028809,-0.215698,0.869385,-1.647949,7.019043,-4.211426
1701,0.003906,-0.289063,0.775879,-1.892090,7.995605,-2.624512
1710,-0.047485,0.090210,1.014282,-2.380371,7.629395,-1.037598
1721,-0.068237,-0.340454,0.753784,-2.014160,7.873535,1.098633
1730,-0.014160,-0.226074,0.805786,-2.380371,9.521484,2.868652
1741,-0.027222,-0.240234,0.878662,-3.112793,9.948730,4.638672
1751,-0.033936,-0.338623,0.904297,-3.967285,10.742188,7.202148
1761,0.031738,-0.394897,0.861816,-4.211426,10.925293,8.178711
1771,0.024902,-0.252319,0.995483,-4.943848,10.437012,9.277344
1780,0.002563,-0.296021,1.000488,-5.615234,10.192871,10.131836
1791,-0.011230,-0.374756,0.838623,-6.408691,9.338379,10.681152
1801,-0.027222,-0.151733,0.985596,-7.141113,10.253906,11.413574
1811,-0.050659,-0.235474,1.027588,-7.019043,10.375977,12.512207
1821,-0.074707,-0.225098,1.111328,-5.493164,11.047363,14.831543
1831,0.004150,-0.289673,0.935425,-4.821777,11.047363,15.563965
1841,0.059570,-0.226562,1.039551,-4.821777,10.559082,15.869141
1851,0.082031,-0.280029,1.016113,-4.882812,9.643555,16.052246
1861,0.151733,-0.356445,0.963501,-5.126953,8.666992,15.930176
1871,0.138428,-0.151489,1.124756,-4.882812,7.019043,15.869141
1881,0.127930,-0.151733,1.164185,-4.089355,7.324219,16.052246
1892,0.121094,-0.227173,1.055054,-3.540039,7.080078,16.174316
1902,0.086792,-0.319580,0.958984,-3.723145,6.042480,16.540527
1911,0.119507,-0.147461,0.901245,-4.089355,5.676270,16.723633
1921,0.114136,-0.077759,0.885132,-4.211426,5.187988,16.906738
1931,0.108643,-0.250000,0.884521,-4.333496,3.723145,17.211914
1941,0.067627,-0.148071,0.947510,-4.882812,2.441406,16.845703
1954,0.041748,0.181519,1.126465,-4.821777,2.685547,16.662598
1963,0.001099,0.054687,1.125977,-4.028320,3.662109,16.845703
1972,-0.040527,-0.105591,1.116699,-3.479004,3.417969,16.540527
1982,-0.084229,-0.070679,1.074219,-2.929688,2.563477,15.502930
1992,-0.100830,0.058472,1.130859,-2.380371,2.502441,14.953613
2001,-0.095337,0.138794,1.210571,-1.159668,2.502441,14.892578
2012,-0.045044,0.139771,1.217651,0.305176,2.929688,15.197754
2021,0.009155,0.020264,1.130981,1.892090,3.051758,16.479492
2032,0.158569,-0.217285,0.954468,4.516602,2.380371,20.568848
2042,0.150146,-0.375732,0.702759,5.493164,1.403809,22.644043
2051,0.151611,-0.200439,0.654419,4.638672,0.305176,24.169922
2061,0.149170,-0.300049,0.468628,3.051758,-0.793457,25.695801
2071,0.086914,-0.224487,0.580566,0.915527,-0.305176,27.587891
2082,0.076538,0.039795,0.856323,-0.854492,-0.305176,29.113770
2091,-0.067261,0.172974,1.243896,-0.976562,-0.183105,30.395508
2102,-0.041382,-0.037231,1.477417,2.746582,0.000000,29.296875
2112,-0.022461,-0.098389,1.553223,4.028320,-0.915527,27.221680
2122,-0.012329,0.055054,1.586914,4.821777,-2.197266,25.024414
2131,0.009277,-0.037598,1.402832,7.568359,-3.356934,23.620605
2141,-0.002686,-0.136841,1.106445,10.070801,-4.272461,22.888184
2151,-0.036743,-0.265259,0.889648,11.840820,-4.211426,22.705078
2162,0.002563,-0.428833,0.778076,9.460449,-3.662109,22.521973
2172,0.001587,-0.133057,0.716431,6.713867,-4.272461,22.216797
2181,0.055786,-0.287354,0.646118,4.638672,-5.249023,21.118164
2191,0.036621,-0.340820,0.680298,2.746582,-6.713867,18.432617
2202,0.050293,-0.070312,0.931030,1.342773,-8.056641,14.770508
2214,0.099854,-0.001343,1.171021,1.342773,-9.643555,4.272461
2224,0.173828,-0.160645,1.163574,2.136230,-11.474609,-0.610352
2234,0.213867,-0.170654,1.032471,3.051758,-13.122559,-4.638672
2244,0.176636,-0.251831,0.936890,3.540039,-13.427734,-6.164551
2253,0.075928,-0.208618,0.879395,3.479004,-12.512207,-6.530762
2262,0.081909,-0.128906,0.940063,2.624512,-11.596680,-5.493164
2272,0.100708,-0.155273,1.051636,1.831055,-10.498047,-3.723145
2281,0.117310,-0.166626,1.042603,1.220703,-10.437012,-2.868652
2291,0.139282,-0.213013,1.028198,0.671387,-10.803223,-2.563477
2304,0.125854,0.212769,1.162354,-1.403809,-11.779785,-4.211426
2313,0.150024,0.093262,1.065186,-0.183105,-12.329102,-5.554199
2323,0.127808,-0.253418,0.897339,1.647949,-12.390137,-6.103516
2332,0.119141,-0.393188,0.799194,2.075195,-13.366699,-6.652832
2341,-0.015381,0.066284,0.744263,2.014160,-12.390137,-7.141113
2351,-0.079956,-0.128296,0.802856,4.333496,-11.108398,-6.896973
2361,-0.059204,-0.495361,0.838745,6.225586,-10.253906,-7.019043
2374,-0.170776,-0.135864,1.105469,1.525879,-9.216309,-8.117676
2383,-0.105713,-0.184937,1.155273,0.244141,-8.361816,-8.422852
2393,-0.004883,-0.312744,1.017944,-0.061035,-7.019043,-9.399414
2403,-0.054810,-0.351807,0.828491,-1.647949,-6.896973,-10.070801
2413,-0.006348,-0.083252,0.889771,-4.150391,-6.896973,-10.803223
2423,0.027954,0.156494,1.022095,-6.530762,-6.225586,-10.498047
2432,0.040771,0.224976,0.986084,-7.507324,-4.699707,-9.460449
2441,0.050659,0.108765,0.897217,-7.507324,-4.089355,-6.958008
2451,0.030640,0.036255,0.884033,-6.225586,-3.173828,-6.286621
2462,-0.011719,0.036499,1.024292,-5.371094,-3.173828,-5.554199
2471,-0.062012,0.089478,1.074951,-5.187988,-3.417969,-5.065918
2481,-0.079346,-0.068604,1.045898,-4.516602,-2.868652,-4.882812
2492,-0.088257,-0.187622,0.936523,-3.479004,-1.831055,-5.310059
2501,-0.097778,-0.138916,0.937012,-3.662109,-1.525879,-5.676270
2511,-0.120483,-0.138794,0.932129,-4.028320,-0.915527,-6.103516
2523,-0.104492,0.028320,1.056030,-4.699707,0.854492,-5.615234
2532,-0.106934,0.094849,1.117432,-4.394531,2.563477,-5.554199
2542,-0.038574,0.047852,1.138916,-3.601074,3.356934,-6.103516
2552,-0.001709,-0.104370,1.074707,-2.746582,4.028320,-6.652832
2561,0.055176,-0.308105,0.971313,-2.441406,3.845215,-6.896973
2572,0.121338,-0.254517,0.928223,-2.807617,3.662109,-6.591797
2581,0.032104,0.004028,1.002441,-3.295898,2.868652,-5.798340
2592,-0.002319,-0.065552,0.930908,-2.380371,5.615234,-1.770020
2602,0.059570,-0.276367,0.914917,-1.647949,6.774902,-0.610352
2611,0.021606,-0.168091,0.913574,-1.586914,6.164551,-1.403809
2621,-0.062256,-0.002563,1.019531,-1.586914,5.676270,-1.647949
2632,-0.020142,0.050049,1.044678,-1.464844,6.469727,-1.159668
2641,0.010620,-0.310303,0.969604,-0.610352,7.324219,-0.122070
2651,-0.054443,-0.392944,0.810669,-0.366211,7.263184,0.915527
2663,-0.025391,-0.017700,1.004150,-2.380371,7.385254,3.723145
2672,-0.096680,0.004028,1.067261,-3.051758,7.690430,5.798340
2682,-0.100586,-0.061646,1.006836,-2.807617,9.155273,7.263184
2691,-0.048950,-0.204468,0.917358,-2.197266,10.070801,8.178711
2702,-0.062866,-0.209839,0.887085,-2.258301,10.131836,8.361816
2711,-0.039429,-0.114868,0.925781,-2.563477,9.216309,8.239746
2724,-0.091553,-0.041016,0.979126,-2.136230,8.850098,9.277344
2733,-0.094482,-0.078613,1.070190,-1.098633,9.826660,11.718750
2743,-0.074829,-0.012817,1.107300,-0.427246,10.925293,14.160156
2752,-0.031250,-0.121948,1.104858,0.549316,12.878418,17.395020
2762,-0.053101,-0.251587,0.991455,1.464844,13.488770,20.507812
2771,0.031006,-0.269287,0.893311,1.647949,13.305664,22.766113
2782,0.011230,-0.227783,0.821045,1.220703,12.329102,24.108887
2791,0.025269,-0.238037,0.871582,0.488281,11.230469,25.329590
2801,0.039917,-0.115845,1.009033,-0.122070,10.620117,25.756836
2812,0.003418,-0.074097,1.144531,0.427246,10.192871,25.695801
2821,0.027954,-0.147095,1.126099,0.854492,10.559082,25.024414
2831,0.079468,-0.104614,1.134399,0.671387,9.155273,24.353027
2841,0.095093,-0.079834,1.130493,0.427246,7.751465,23.620605
2852,0.155396,-0.135742,1.063232,0.183105,6.591797,23.437500
2861,0.099121,-0.142578,0.893799,-0.061035,5.432129,23.803711
2873,0.022095,-0.236938,0.783813,-1.708984,4.699707,24.291992
2882,0.006226,0.013672,0.914429,-3.723145,4.760742,25.024414
2891,0.014893,0.152954,1.031006,-5.065918,4.211426,25.207520
2901,0.003540,0.009888,1.008911,-4.638672,3.967285,25.085449
2911,0.003418,-0.140503,1.000488,-4.150391,3.662109,24.719238
2922,0.044189,-0.118286,1.025757,-3.967285,3.234863,23.559570
2931,0.082031,0.018433,1.066772,-4.150391,1.892090,21.423340
2943,0.083862,-0.015015,0.950195,-3.112793,-0.305176,21.545410
2952,0.066284,-0.163086,0.865601,-2.746582,-0.610352,22.033691
2962,0.017700,-0.158691,0.872681,-3.234863,-0.427246,22.583008
2971,-0.003540,-0.054199,0.907227,-3.662109,-0.671387,22.949219
2981,-0.019409,-0.014648,0.967651,-3.417969,-0.793457,22.949219
2992,-0.016602,-0.044434,1.001465,-3.173828,-1.098633,22.399902
3001,-0.073364,-0.123657,1.026367,-3.112793,-2.624512,19.653320
3011,-0.016602,-0.193970,1.014893,-1.892090,-3.601074,17.944336
3021,0.066040,-0.077759,1.193726,-1.342773,-3.967285,16.418457
3031,0.096436,-0.032349,1.246826,-0.854492,-4.455566,15.075684
3041,0.033081,-0.123413,1.124146,0.061035,-4.821777,14.282227
3052,0.089966,-0.150269,1.035400,0.671387,-4.699707,13.427734
3061,0.094849,-0.170532,1.020264,1.037598,-4.943848,12.573242
3074,0.139404,-0.093628,0.904907,0.183105,-6.286621,10.803223
3083,0.120117,-0.123291,0.872925,-0.793457,-7.690430,10.070801
3093,0.118530,-0.096191,0.951050,-1.647949,-8.239746,9.155273
3102,0.113525,0.177856,1.181763,-2.563477,-9.521484,7.751465
3112,0.153687,0.311279,1.497437,-2.319336,-8.972168,6.164551
3121,0.196533,0.103394,1.442383,-0.366211,-9.460449,4.943848
3132,0.157715,-0.176758,1.117920,1.525879,-9.948730,3.417969
3142,0.156860,-0.304443,0.821167,2.990723,-11.352539,2.014160
3151,0.116943,-0.297729,0.655273,1.770020,-11.352539,2.380371
3161,0.030518,0.043701,0.804565,0.000000,-10.803223,2.929688
3172,-0.008179,0.128540,0.950195,-0.061035,-9.887695,3.906250
3182,-0.011353,-0.143921,0.890137,1.281738,-9.338379,4.516602
3191,0.013550,-0.295654,0.834839,1.770020,-9.094238,4.211426
3202,0.005615,-0.279297,0.918823,0.671387,-9.277344,2.929688
3212,0.058350,-0.113525,0.975098,-1.098633,-10.742188,0.549316
3221,0.016968,-0.068604,0.916992,0.000000,-10.925293,-0.488281
3231,-0.040527,-0.221924,0.828003,1.037598,-10.498047,-1.586914
3241,0.016113,-0.246216,1.023438,1.281738,-10.009766,-2.014160
3252,0.024536,-0.094116,1.188477,1.281738,-9.277344,-2.502441
3261,0.058105,-0.035034,1.307129,2.014160,-9.582520,-3.112793
3272,0.049316,-0.097412,1.206299,3.784180,-8.911133,-3.112793
3282,0.081055,-0.252930,1.066284,6.469727,-8.300781,-3.662109
3291,0.012695,-0.319336,1.087524,5.676270,-8.483887,-3.845215
3302,0.034058,-0.822021,0.150391,3.784180,-9.460449,-4.028320
3311,-0.025269,-0.190308,0.511597,-1.281738,-7.812500,-4.455566
3321,-0.010742,0.081055,0.701538,-6.164551,-6.469727,-3.540039
3332,0.136108,0.035400,0.880005,-6.713867,-6.286621,-2.258301
3341,0.142700,0.080322,1.074829,-6.958008,-6.469727,-2.746582
3353,0.182617,-0.252197,0.935791,-5.737305,-7.080078,-5.126953
3363,0.084717,0.103760,1.249512,-9.704590,-7.690430,-7.202148
3373,0.015015,0.232910,1.243896,-9.765625,-9.765625,-9.094238
3382,-0.042725,0.053955,1.196655,-7.934570,-9.887695,-10.925293
3392,0.079712,-0.187012,1.120483,-6.469727,-9.765625,-11.108398
3401,0.083252,-0.077148,1.073120,-7.202148,-7.446289,-10.925293
3412,0.075562,0.113281,1.155029,-8.422852,-8.178711,-10.986328
3421,0.095825,0.181519,1.146606,-8.728027,-5.859375,-11.108398
3433,0.004272,0.073853,0.899536,-5.432129,-7.080078,-12.695313
3442,-0.033081,-0.055786,1.005981,-3.662109,-6.774902,-13.916016
3452,0.020264,-0.149048,1.090454,-3.051758,-6.591797,-15.197754
3462,-0.011841,-0.140503,1.133667,-3.295898,-5.737305,-16.052246
3472,-0.016113,-0.022827,0.989258,-3.417969,-5.187988,-15.930176
3482,-0.066284,0.095337,0.960083,-2.624512,-4.699707,-15.380859
3493,-0.046753,-0.134277,0.946167,-1.098633,-3.417969,-13.610840
3503,0.001343,-0.227539,1.004517,0.366211,-1.525879,-12.451172
3512,-0.020752,-0.308472,0.989990,0.305176,0.183105,-11.291504
3522,-0.028809,-0.230957,0.969360,-0.610352,0.305176,-9.826660
3532,-0.030518,-0.035767,1.020996,-1.281738,1.098633,-7.934570
3541,-0.014282,0.036133,1.094482,-1.281738,2.380371,-5.859375
3552,-0.023071,-0.098267,1.058472,-0.671387,3.601074,-3.051758
3561,-0.086182,-0.135132,1.059814,-1.708984,5.310059,3.112793
3573,-0.143799,0.453491,1.007446,-1.831055,5.920410,5.615234
3582,-0.171387,-0.250122,0.826172,2.014160,6.958008,7.934570
3592,-0.244507,-0.366577,0.746704,4.394531,7.324219,10.009766
3602,-0.208374,0.279053,0.775635,3.845215,8.300781,11.840820
3611,-0.176880,-0.394043,0.795898,5.432129,8.605957,13.488770
3622,-0.194580,-0.454102,0.880493,4.516602,9.582520,15.014648
3631,-0.083496,0.049194,0.960571,1.220703,9.948730,17.333984
3643,-0.041748,-0.118774,0.932495,2.319336,10.009766,17.883301
3652,-0.043457,-0.199097,0.988159,2.624512,10.009766,18.127441
3661,-0.018677,-0.043091,1.152954,2.258301,10.192871,18.615723
3672,0.006348,0.020874,1.223511,2.075195,9.582520,18.981934
3681,-0.011719,-0.048950,1.193481,2.624512,8.850098,19.470215
3692,0.002075,-0.124023,1.066650,3.417969,8.361816,20.141602
3701,-0.063599,-0.123657,0.992676,4.028320,8.789063,22.583008
3713,-0.042358,-0.207153,1.053711,3.906250,9.521484,23.376465
3723,-0.035522,-0.117798,1.208984,2.441406,7.751465,23.681641
3732,0.013184,0.002319,1.232178,1.525879,8.605957,23.742676
3741,0.027710,-0.010498,1.192261,1.525879,6.408691,24.108887
3752,-0.015625,-0.089966,1.149658,2.990723,6.896973,24.475098
3761,-0.005493,-0.093018,1.186523,3.906250,6.835937,24.108887
3774,-0.001343,-0.227173,1.024170,3.601074,4.272461,23.010254
3783,0.039917,-0.155762,0.956543,2.624512,3.662109,22.521973
3793,0.023804,-0.086548,0.896606,1.831055,2.624512,21.728516
3802,0.047974,-0.094727,0.876587,1.098633,2.197266,20.629883
3811,0.032959,-0.121460,0.894043,0.061035,1.342773,19.531250
3822,0.025146,-0.068359,1.000854,-1.464844,0.427246,17.761230
3832,0.069946,-0.018921,1.018799,-2.441406,0.366211,15.869141
3841,0.074097,-0.103760,0.849487,-2.197266,-1.525879,12.817383
3853,0.100098,-0.172363,0.726929,-2.075195,-2.136230,11.108398
3863,0.117798,-0.136597,0.797852,-2.807617,-2.624512,9.643555
3872,0.116699,0.052612,0.938354,-3.601074,-3.601074,8.239746
3882,0.150879,0.060913,0.950439,-3.540039,-3.662109,6.530762
3892,0.122437,-0.061890,0.933472,-2.868652,-4.150391,4.882812
3902,0.127563,-0.161133,0.970703,-1.708984,-4.333496,2.807617
3913,0.118896,-0.247559,0.990479,-1.159668,-5.615234,-1.464844
3923,0.101196,-0.157593,0.988525,-1.403809,-6.591797,-2.868652
3933,0.125000,-0.108643,0.961182,-1.342773,-7.202148,-3.845215
3942,0.117310,-0.163696,0.902344,-1.464844,-6.530762,-4.333496
3952,0.111328,-0.186646,0.921387,-1.892090,-6.958008,-4.760742
3961,0.118774,-0.172852,0.959595,-2.258301,-6.896973,-5.310059
3973,0.095459,-0.109009,1.003906,-3.845215,-6.652832,-6.042480
3983,0.094727,0.002075,1.093750,-4.333496,-7.263184,-6.591797
3992,0.138916,-0.043579,1.097778,-4.394531,-7.019043,-6.713867
4002,0.111084,-0.121094,1.104736,-4.699707,-6.835937,-6.774902
4012,0.086060,-0.073975,1.150269,-5.187988,-6.896973,-7.080078
4022,0.062012,-0.028198,1.122803,-5.737305,-7.141113,-7.141113
4032,0.041870,-0.031006,1.054565,-6.042480,-6.408691,-7.202148
4043,0.047119,0.021851,0.973145,-5.615234,-6.164551,-6.958008
4053,0.057495,0.025635,1.009888,-5.371094,-5.187988,-6.286621
4062,0.063477,-0.027710,0.966675,-5.981445,-5.065918,-5.554199
4072,0.070435,-0.078979,0.933838,-6.286621,-5.310059,-5.126953
4082,0.066162,0.008423,0.897217,-6.225586,-5.859375,-4.577637
4092,0.040649,-0.005737,0.903076,-5.981445,-5.004883,-3.784180
4102,0.059448,-0.103882,0.926758,-5.493164,-4.516602,-2.807617
4111,0.029663,0.041870,0.967407,-5.981445,-4.333496,-1.892090
4124,0.043457,-0.030518,0.959839,-3.906250,-3.967285,-0.427246
4133,-0.032715,0.053955,0.942017,-3.417969,-3.662109,0.244141
4143,-0.001221,-0.003662,0.924561,-2.624512,-3.723145,0.915527
4152,-0.049561,-0.111328,0.860474,-1.342773,-3.173828,1.892090
4162,-0.044800,-0.150146,0.859009,-0.366211,-3.173828,2.624512
4171,-0.073486,-0.114990,0.913696,-0.488281,-2.197266,3.845215
4181,-0.046509,-0.106201,0.970459,-1.037598,-1.647949,5.065918
4193,-0.074585,-0.228394,0.981445,-1.220703,-1.220703,5.859375
4203,-0.065430,-0.131836,1.093628,-1.342773,-0.915527,5.676270
4212,-0.064331,-0.014648,1.203125,-0.854492,-0.732422,5.554199
4222,-0.019897,-0.050659,1.233398,0.061035,-0.915527,5.310059
4232,-0.066772,-0.133057,1.124390,1.098633,-0.793457,5.004883
4241,-0.021118,-0.114136,1.112671,1.892090,-0.610352,5.310059
4252,-0.047485,-0.075562,1.099731,2.807617,-0.122070,5.615234
4262,-0.003906,-0.134399,1.059082,3.906250,0.366211,5.371094
4273,0.006592,-0.224976,0.936035,3.540039,0.427246,5.126953
4282,0.006104,-0.174805,0.878296,2.380371,0.122070,4.516602
4292,0.011963,-0.159424,0.883545,0.793457,-0.488281,3.601074
4302,-0.021484,-0.124390,0.926514,-0.244141,-0.854492,2.685547
4312,-0.008667,-0.076782,0.963989,-1.159668,-0.488281,2.075195
4322,0.018555,-0.104858,0.964478,-1.831055,-0.610352,1.708984
4331,-0.136230,-0.156616,0.936890,-3.173828,-0.122070,0.915527
4343,0.028076,-0.233154,0.963257,-3.234863,0.549316,0.671387
4352,0.141113,-0.119019,0.827026,-3.112793,0.427246,0.549316
4362,0.057861,-0.137695,0.683960,-2.868652,0.305176,1.098633
4372,0.038696,-0.202393,0.801025,-3.356934,0.244141,2.441406
4381,0.057861,-0.133057,1.097534,-4.272461,0.793457,3.784180
4392,0.028809,0.018433,1.220337,-4.577637,-0.183105,3.845215
4403,-0.040894,0.002930,1.074829,-3.417969,0.793457,6.225586
4413,0.036987,0.026245,1.130371,-0.549316,1.892090,8.605957
4422,-0.027710,0.007690,1.171631,0.366211,1.831055,10.192871
4431,-0.067505,-0.014160,1.157227,1.037598,2.136230,10.681152
4442,-0.057373,-0.012207,1.040649,1.403809,0.915527,10.803223
4451,-0.006592,0.012695,0.958374,1.464844,0.915527,11.169434
4462,0.121704,-0.074707,0.971313,2.075195,1.159668,11.962891
4472,0.061890,-0.187744,0.999268,1.708984,0.122070,12.268066
4483,0.010254,-0.101685,0.967651,0.976562,-0.488281,11.718750
4493,-0.025391,-0.114258,0.910767,-0.122070,-1.220703,10.742188
4503,-0.032349,-0.207520,0.875977,-1.037598,-1.403809,9.460449
4512,-0.097534,-0.156982,0.916260,-2.197266,-1.220703,8.239746
4522,-0.112549,-0.017822,0.966431,-3.295898,-1.464844,7.019043
4532,-0.075195,-0.158325,0.980591,-4.455566,-1.220703,5.615234
4541,-0.026855,-0.268433,0.945190,-6.042480,-1.708984,2.990723
4553,-0.127075,0.073364,1.023682,-7.263184,-1.770020,2.136230
4563,-0.088623,0.174683,0.979736,-6.835937,-0.915527,1.708984
4572,0.049561,0.026489,0.995361,-5.737305,0.122070,1.342773
4581,0.061646,-0.224487,0.984253,-5.004883,0.305176,0.610352
4592,0.097534,-0.072998,0.952148,-5.432129,0.183105,-0.549316
4602,0.061157,0.050415,1.018921,-5.737305,-0.671387,-1.831055
4613,0.010620,-0.086060,1.042969,-5.065918,-1.647949,-4.821777
4623,-0.060547,-0.176392,0.993774,-0.793457,-2.441406,-5.981445
4633,0.069336,-0.175171,1.039063,0.427246,-2.197266,-6.591797
4642,0.048096,-0.186523,1.039917,0.976562,-1.586914,-6.591797
4652,0.110352,-0.177856,0.963745,1.403809,-1.220703,-6.347656
4662,0.121826,-0.262817,0.906860,1.831055,-0.793457,-5.737305
4672,0.186401,-0.337036,0.865112,2.075195,-0.427246,-5.004883
4682,0.127930,-0.324585,0.951172,0.244141,-1.647949,-4.943848
4692,0.062256,-0.095581,1.047974,-0.488281,-1.586914,-5.493164
4702,-0.008423,-0.059448,1.015015,-0.854492,-1.159668,-5.981445
4712,0.061401,-0.182007,0.924805,-0.671387,-0.427246,-6.225586
4722,0.012573,-0.290039,0.881226,-1.403809,-0.488281,-5.859375
4731,0.065552,-0.275146,0.888306,-2.441406,-0.732422,-5.737305
4742,-0.031006,-0.138306,0.985474,-3.601074,-0.671387,-4.577637
4752,-0.006714,0.025879,1.035034,-4.760742,0.976562,-1.525879
4762,-0.002808,0.018677,1.115723,-5.004883,1.159668,-0.488281
4772,-0.022461,-0.033203,1.111206,-5.126953,1.586914,-0.061035
4782,-0.026611,-0.055908,1.129639,-4.699707,0.915527,-0.061035
4792,-0.018311,-0.038208,1.081787,-4.089355,1.464844,0.000000
4801,-0.047974,-0.055420,1.053711,-3.356934,2.014160,0.854492
4812,-0.001343,-0.047729,0.917725,-2.441406,2.197266,2.319336
4821,0.005615,-0.100708,0.923340,-0.915527,2.746582,6.042480
4833,0.047363,-0.151489,0.955566,-0.671387,3.234863,7.812500
4842,0.057983,-0.158691,0.990112,-0.305176,2.868652,9.216309
4852,0.064453,-0.141724,0.977295,-0.366211,2.868652,10.009766
4861,0.053101,-0.105103,0.962524,-0.305176,2.624512,10.192871
4872,0.004517,-0.088989,0.935425,-0.061035,2.014160,9.765625
4882,0.011353,-0.130859,0.977783,0.000000,1.464844,9.277344
4893,0.009888,-0.145386,0.993408,0.305176,1.281738,8.605957
4902,0.002930,-0.164673,0.958862,0.671387,1.098633,9.094238
4912,-0.010254,-0.146240,0.989380,0.915527,1.464844,9.094238
4921,-0.013184,-0.106445,1.046387,1.098633,1.708984,9.277344
4932,-0.054565,-0.087769,1.060791,1.220703,1.708984,9.521484
4942,-0.012695,-0.124268,1.084717,1.403809,2.014160,9.643555
4952,-0.115112,-0.095703,1.057861,1.464844,1.953125,9.826660
4961,-0.073242,-0.080444,1.091919,1.281738,2.441406,9.948730
4973,-0.091064,-0.138062,0.955078,0.976562,1.892090,10.131836
4983,-0.083862,-0.122437,0.917847,0.244141,1.159668,10.314941
4992,0.000854,-0.046265,0.969238,-0.366211,2.319336,10.681152
5002,0.002441,-0.021484,1.007202,-0.549316,2.319336,11.108398
5011,0.047241,-0.053833,0.993530,-0.427246,2.319336,11.108398
5023,0.103638,-0.042603,0.984253,-1.159668,0.732422,10.681152
5033,0.136841,-0.131714,0.924805,-1.281738,0.488281,10.253906
5043,0.106445,-0.018066,0.998291,-1.281738,-1.159668,9.521484
5052,0.141968,-0.041626,1.086182,-1.037598,-1.037598,8.911133
5062,0.212769,-0.090942,1.048462,-0.305176,-1.586914,7.080078
5072,0.201172,-0.063599,0.999878,-0.061035,-2.807617,5.187988
5082,0.164795,0.027222,0.943970,-0.122070,-4.577637,3.479004
5091,0.127197,-0.001343,0.965698,-0.122070,-6.103516,1.831055
5103,0.105835,-0.083862,0.946777,-0.061035,-6.591797,-0.427246
5113,0.128906,-0.148071,0.913818,0.183105,-6.164551,-0.427246
5122,0.106445,-0.175293,1.037354,0.122070,-5.920410,0.000000
5132,0.081909,-0.134155,1.087769,-0.366211,-5.859375,0.244141
5142,0.044067,-0.036377,1.045898,-0.732422,-5.920410,0.427246
5152,0.009155,-0.159424,1.012451,-0.244141,-6.164551,0.244141
5163,-0.022339,-0.188354,1.006958,-0.122070,-6.347656,-1.037598
5173,-0.123169,-0.252563,1.039185,0.488281,-6.530762,-1.953125
5182,-0.157227,-0.190308,1.007324,0.610352,-5.859375,-2.258301
5192,-0.119263,-0.187134,0.911987,0.488281,-4.577637,-2.014160
5202,-0.124756,-0.239014,0.952759,0.305176,-3.417969,-1.708984
5212,-0.044922,-0.071289,1.033203,-0.915527,-3.112793,-1.464844
5221,0.025635,-0.057495,1.060059,-1.831055,-2.868652,-1.464844
5233,0.038940,-0.156250,1.009277,-2.136230,-2.990723,-2.136230
5243,0.012207,-0.067139,1.024170,-2.075195,-2.685547,-2.075195
5253,-0.012207,0.020630,1.040283,-2.014160,-3.295898,-1.770020
5263,-0.060547,-0.005005,1.070190,-1.342773,-2.746582,-1.586914
5272,-0.007690,-0.146851,0.999512,-0.305176,-2.075195,-0.671387
5282,-0.055176,-0.085327,0.938232,-0.061035,-1.708984,0.244141
5292,-0.028442,-0.027954,0.923950,0.000000,-1.037598,0.610352
5301,-0.024780,-0.134277,0.923950,0.427246,-0.610352,1.037598
5313,-0.087036,-0.110718,0.863770,0.549316,-0.732422,1.159668
5323,-0.051392,-0.099365,0.922607,0.305176,-0.244141,1.220703
5333,-0.014160,-0.105713,1.030396,-0.122070,0.000000,1.647949
5342,-0.023804,-0.070068,1.016968,-0.732422,0.183105,1.831055
5352,-0.008545,0.033203,1.016968,-1.464844,0.183105,1.708984
5362,0.030396,-0.001831,1.051392,-1.586914,0.793457,1.892090
5372,-0.019775,-0.133301,0.970825,-1.098633,0.671387,1.770020
5383,-0.050415,-0.155884,0.907227,-1.342773,0.671387,1.525879
5393,0.052002,-0.127808,0.955811,-1.159668,0.427246,2.136230
5402,-0.009033,-0.111694,0.956055,-1.708984,0.122070,2.502441
5412,0.019531,-0.083008,0.987183,-2.075195,1.098633,3.112793
5421,0.018677,-0.137329,0.970093,-2.380371,0.793457,4.089355
5432,0.015259,-0.180908,0.954712,-2.929688,1.403809,4.577637
5442,0.012573,-0.139648,1.003052,-3.723145,1.037598,4.821777
5451,-0.025879,0.027832,1.105347,-3.845215,0.244141,4.089355
5463,-0.023071,0.047974,1.104004,-2.990723,0.000000,3.540039
5472,-0.000366,0.046387,1.106201,-2.197266,0.671387,3.295898
5482,-0.055664,-0.050537,1.080811,-1.770020,0.610352,3.295898
5492,-0.039185,-0.130249,1.012573,-1.464844,0.732422,3.967285
5502,-0.022949,-0.167969,0.946411,-1.464844,1.159668,4.577637
5512,0.021973,-0.229614,0.798584,-1.159668,1.708984,5.004883
5523,0.038696,0.033813,0.950195,-1.586914,1.159668,4.760742
5532,-0.009644,-0.035278,0.945190,-2.746582,0.671387,4.089355
5542,-0.006836,-0.107300,0.900391,-2.929688,0.732422,3.112793
5551,-0.053955,-0.136108,0.877563,-3.112793,0.854492,2.136230
5562,0.022583,-0.112061,0.877686,-3.479004,1.037598,1.464844
5572,-0.039429,-0.000244,0.976074,-3.967285,1.647949,0.915527
5582,0.010986,0.026611,1.029907,-3.845215,1.403809,0.366211
5593,-0.008911,-0.131470,0.952271,-3.723145,0.976562,-0.122070
5603,-0.030273,-0.093750,1.012817,-3.601074,2.136230,0.122070
5612,0.041504,-0.028442,1.046997,-3.601074,2.136230,0.671387
5622,0.037354,-0.037598,1.066772,-3.356934,2.380371,1.159668
5631,0.087646,-0.059937,0.995483,-3.479004,2.258301,1.831055
5642,0.122192,-0.145874,0.932983,-3.784180,1.586914,2.502441
5652,0.118774,-0.160034,0.907959,-3.784180,1.220703,2.868652
5663,0.102417,0.017578,0.964722,-3.967285,0.549316,3.723145
5673,0.057495,-0.043945,0.936768,-3.723145,0.244141,4.699707
5682,0.042847,-0.167603,0.928101,-3.540039,0.488281,5.249023
5692,0.013184,-0.199951,0.942505,-3.967285,0.610352,6.469727
5702,-0.018921,-0.141479,0.980225,-4.516602,0.854492,7.263184
5712,-0.004883,-0.073730,1.019653,-4.760742,0.427246,7.812500
5721,-0.034302,-0.089478,1.028320,-4.760742,0.549316,8.178711
5733,-0.054321,-0.170288,1.038574,-4.699707,0.793457,8.178711
5743,-0.027466,-0.080566,1.113281,-3.601074,0.244141,8.178711
5752,-0.065308,0.010864,1.159180,-3.234863,0.427246,7.995605
5762,-0.038940,-0.019287,1.099976,-2.441406,0.976562,7.995605
5772,-0.032471,-0.067871,1.066406,-1.586914,1.281738,7.812500
5782,-0.015137,-0.101807,1.033325,-2.014160,1.281738,7.812500
5792,-0.003540,-0.121338,0.988525,-2.014160,0.488281,7.629395
5801,-0.017700,-0.156982,0.944702,-1.403809,0.366211,7.263184
5813,0.004272,-0.030518,0.983521,-1.403809,0.244141,6.713867
5822,0.041382,0.041260,1.090332,-1.159668,0.061035,6.713867
5832,0.014526,0.050781,1.182739,-0.732422,-0.122070,6.408691
5842,0.010864,-0.015259,1.188721,-0.305176,-0.915527,6.042480
5852,-0.006836,-0.132324,1.088989,0.854492,-0.488281,5.615234
5861,-0.041870,-0.185547,1.034790,1.831055,-0.122070,5.126953
5873,-0.007690,-0.224731,0.985718,2.563477,-0.305176,3.845215
5883,0.022217,-0.218872,0.929443,2.807617,-0.671387,2.929688
5892,0.018921,-0.181641,0.891846,2.502441,-0.305176,1.770020
5902,0.041260,-0.136108,0.937988,2.014160,-1.037598,0.793457
5912,0.106201,-0.122559,0.954956,1.281738,-1.037598,-0.305176
5922,0.072998,-0.171143,0.949097,0.854492,-0.976562,-1.525879
5932,0.063843,-0.221924,0.905029,0.793457,-0.854492,-2.746582
5943,0.053101,-0.068726,0.884033,0.427246,-0.915527,-3.479004
5953,0.059570,-0.014771,0.885010,0.305176,-1.098633,-3.479004
5962,0.062622,-0.098755,0.885620,0.488281,-1.403809,-3.112793
5972,0.055176,-0.120239,0.938721,0.793457,-0.610352,-2.746582
5982,0.010132,-0.049316,1.018677,0.976562,-0.610352,-1.770020
5992,0.018921,-0.036499,1.069092,1.220703,-0.061035,-0.549316
6002,-0.006958,-0.059570,1.044312,1.464844,0.732422,1.464844
6013,-0.089966,-0.089966,1.008057,1.647949,1.770020,4.577637
6023,-0.091064,-0.011841,0.995117,0.244141,1.647949,5.432129
6032,-0.089600,-0.018188,0.966187,-0.305176,2.502441,6.347656
6042,-0.057129,-0.023560,0.931030,-0.183105,2.868652,6.835937
6052,-0.060181,-0.069702,0.947632,0.000000,2.563477,7.141113
6061,-0.033936,-0.090210,1.074585,0.427246,2.380371,7.385254
6073,-0.071045,-0.036743,1.163452,0.793457,1.953125,7.385254
6083,0.011475,-0.007202,1.164551,1.098633,1.464844,7.812500
6092,0.056641,-0.089966,1.035767,1.464844,2.014160,8.056641
6102,0.119385,-0.125488,0.994873,1.098633,1.708984,8.361816
6112,0.089844,-0.203857,0.907715,0.549316,1.831055,8.728027
6122,0.051880,-0.180298,0.920166,-0.488281,0.854492,8.361816
6131,0.044678,0.007568,1.053467,-1.770020,0.793457,7.385254
6142,0.044922,0.138794,1.170288,-3.051758,0.915527,6.774902
6151,-0.012329,0.100952,1.219360,-2.563477,-0.305176,5.554199
6162,-0.019775,0.005493,1.135864,-1.281738,0.122070,5.676270
6172,-0.027100,0.030884,1.170410,-0.305176,1.159668,5.981445
6182,0.003296,-0.013672,1.131470,0.732422,1.464844,6.530762
6192,0.015259,-0.124878,0.998047,1.525879,0.732422,6.652832
6202,0.006836,-0.174683,0.891235,2.197266,0.915527,6.652832
6211,0.053101,-0.260864,0.759888,1.892090,0.610352,6.408691
6223,0.083130,-0.118408,0.820679,1.098633,-15.319824,5.126953
6232,0.063232,-0.010254,0.980469,0.427246,-0.610352,4.211426
6242,0.066528,-0.064697,0.984253,0.793457,-1.525879,3.295898
6251,-0.021240,-0.256836,0.974243,1.464844,-1.403809,2.685547
6262,0.031128,-0.319824,0.891724,1.464844,-1.403809,2.380371
6272,0.016846,-0.180054,0.958618,0.854492,-0.915527,2.563477
6283,0.019653,0.003906,1.002686,-0.244141,-1.098633,4.760742
6293,0.012451,-0.056274,0.945435,0.183105,-0.366211,5.981445
6302,0.018799,-0.165649,0.913330,0.610352,0.305176,7.446289
6311,-0.000488,-0.171021,0.948730,0.671387,0.244141,8.300781
6322,0.003784,-0.078247,1.005615,-0.183105,-0.122070,9.216309
6332,0.024292,-0.014771,1.059204,-0.244141,-0.549316,9.155273
6342,0.041382,-0.163818,0.980469,-0.732422,-0.854492,9.399414
6352,0.024292,-0.288940,0.921265,-0.915527,-0.671387,8.850098
6364,0.007324,-0.034180,1.078857,-2.136230,-1.037598,8.178711
6373,-0.024658,0.044189,1.113403,-2.319336,-1.464844,7.934570
6383,-0.058838,0.056519,1.022949,-1.831055,0.305176,7.202148
6392,-0.035889,-0.047852,0.998047,-2.380371,-3.601074,6.958008
6402,-0.011475,-0.112793,0.980469,-1.464844,-1.708984,5.493164
6412,0.013062,-0.094116,0.995728,-1.892090,-0.915527,5.065918
6422,0.039917,-0.088135,1.008667,-2.197266,-1.464844,3.723145
6433,0.023193,-0.194946,0.917114,-2.807617,-2.441406,1.525879
6443,0.052612,-0.073120,0.957764,-3.906250,-1.647949,0.244141
6452,0.074463,0.089844,1.087524,-4.760742,-3.112793,-1.159668
6462,0.068726,0.037964,1.079956,-4.882812,-2.807617,-2.624512
6471,0.054321,-0.173706,1.003296,-4.699707,-2.807617,-3.845215
6482,0.100830,-0.209106,0.982788,-4.699707,-3.295898,-4.821777
6491,0.069702,-0.045654,1.029541,-4.455566,-3.356934,-4.943848
6503,0.085693,-0.020996,1.067139,-4.089355,-3.540039,-5.004883
6513,0.071289,-0.119995,1.006226,-2.990723,-2.807617,-4.699707
6523,0.069702,-0.156250,0.978394,-2.502441,-2.563477,-4.089355
6533,0.033569,-0.063843,0.975708,-2.014160,-2.624512,-3.356934
6542,0.053955,-0.008301,0.970459,-1.647949,-2.136230,-3.112793
6552,0.042725,-0.128662,0.966064,-1.525879,-2.380371,-2.685547
6563,0.020386,-0.161987,0.927490,-1.342773,-1.708984,-0.854492
6573,-0.000610,0.030884,1.194092,-0.671387,-1.586914,-0.061035
6583,-0.002930,-0.099243,1.092529,0.427246,-1.281738,0.610352
6592,-0.027222,-0.392090,0.647217,1.464844,-0.671387,1.464844
6602,-0.025635,-0.645508,0.183594,0.732422,-0.488281,2.258301
6611,-0.030151,-0.227417,0.473633,-3.234863,-0.915527,2.990723
6622,-0.011353,-0.012817,0.694702,-6.835937,-1.220703,3.479004
6632,-0.071655,0.894531,1.901367,-8.911133,0.122070,4.394531
6642,-0.003052,0.852661,2.098267,3.479004,2.075195,7.385254
6653,-0.351318,-1.031738,0.600098,5.737305,1.464844,7.446289
6663,-0.164551,-0.502319,0.726196,2.807617,2.624512,7.202148
6672,0.037231,-0.046631,0.756958,-0.549316,2.136230,7.812500
6682,0.083496,0.179810,0.859863,-1.586914,0.854492,8.239746
6692,0.093750,0.015503,0.853882,-1.098633,1.037598,9.765625
6703,0.101807,-0.185059,0.879517,-0.854492,2.319336,11.840820
6712,-0.031128,-0.061890,1.087402,-1.831055,2.136230,10.803223
6722,0.024536,0.093628,1.147461,-3.417969,1.220703,10.437012
6732,0.019287,0.098511,1.116577,-3.417969,1.953125,10.498047
6742,-0.000488,-0.041138,1.094360,-2.014160,1.220703,10.803223
6751,-0.010864,-0.201782,1.066162,-0.366211,0.000000,11.169434
6762,-0.043701,-0.204834,1.129028,0.305176,0.061035,11.047363
6771,-0.023804,-0.097046,1.176880,-0.549316,-0.183105,10.314941
6783,0.024780,-0.201294,0.801636,-0.976562,-0.061035,9.704590
6792,0.041992,-0.220581,0.723267,-1.342773,0.610352,9.460449
6802,0.024780,-0.259399,0.717285,-2.502441,-0.671387,8.422852
6811,0.024902,-0.345947,0.748291,-3.723145,-1.586914,7.080078
6822,0.024536,-0.041382,0.953613,-5.981445,-2.075195,5.859375
6832,0.079590,0.107300,1.069580,-7.263184,-2.197266,4.516602
6843,0.021484,-0.162842,0.994751,-5.615234,-2.380371,2.136230
6853,0.080078,-0.397949,0.970581,-5.676270,-2.380371,0.732422
6863,0.244629,-0.439087,1.470215,-7.019043,-2.868652,-0.305176
6872,-0.088989,-0.288208,1.178101,-9.704590,-5.249023,-2.624512
6882,0.184326,0.330811,0.973999,-17.944336,-4.821777,-2.868652
6892,0.043945,-0.404297,-0.594360,-15.380859,-4.699707,-3.234863
6902,0.063965,0.305664,0.743896,-13.977051,-4.272461,-3.417969
6911,0.111084,0.220581,0.080322,-13.305664,-5.981445,-4.760742
6923,0.175781,0.396851,0.876343,-15.625000,-8.300781,-13.610840
6933,0.056641,0.242798,1.142456,-24.658203,-8.239746,-14.038086
6942,0.081909,0.083252,0.837891,-29.113770,-8.972168,-14.648438
6952,-0.145264,0.753784,0.491943,-36.437988,-6.591797,-12.512207
6962,0.052612,1.328857,0.717896,-39.672852,-2.136230,-8.972168
6972,0.089355,1.162964,0.862305,-33.996582,1.037598,-4.089355
6981,0.134644,0.323486,1.257690,-24.475098,1.892090,0.000000
6994,0.011108,0.939697,2.823120,-17.639160,-1.464844,-1.159668
7003,-0.127197,0.138184,1.127441,-10.925293,-3.356934,-1.098633
7013,0.209106,-0.626587,0.285767,-3.479004,-2.807617,0.122070
7022,0.315674,0.412842,1.881348,-5.432129,-1.403809,2.380371
7032,-0.117432,0.862427,1.828003,-8.972168,-4.028320,4.638672
7041,-0.328735,0.513794,1.196289,-7.812500,-4.638672,4.821777
7053,-0.280884,-0.289063,-0.193237,-4.211426,-0.915527,4.760742
7063,0.057983,0.848999,1.485352,-10.070801,0.732422,5.920410
7072,-0.220459,0.730835,1.171753,-13.366699,-0.610352,5.310059
7082,-0.265991,0.983154,1.164917,-14.282227,0.305176,3.295898
7091,-0.138428,0.588867,0.654785,-10.864258,0.610352,1.708984
7102,0.224121,0.464478,1.540894,-7.690430,1.953125,1.403809
7112,0.138550,0.416016,1.901245,-7.812500,2.136230,1.953125
7123,0.031738,0.518066,1.668823,-4.455566,1.831055,4.150391
7133,0.226318,0.072266,0.729004,-1.098633,0.854492,3.784180
7142,0.102295,0.629028,1.479736,-1.464844,-1.892090,3.234863
7151,-0.157471,0.461304,1.322021,-0.549316,-3.784180,3.295898
7162,-0.225708,-0.295410,0.315796,1.892090,-2.075195,3.601074
7172,0.028198,0.023804,0.594360,0.488281,0.915527,3.662109
7181,0.068359,0.848022,1.402954,-3.784180,2.258301,3.417969
7192,-0.220581,1.119873,1.392456,-5.004883,1.037598,2.136230
7203,-0.035645,0.124390,0.334473,13.916016,1.586914,-1.464844
7213,0.226074,0.486816,1.014160,-0.549316,1.831055,-2.197266
7222,-0.035767,1.188110,1.502319,-5.371094,0.366211,-0.915527
7231,-0.173950,0.771851,0.926880,-4.638672,0.793457,1.831055
7242,-0.087158,0.122803,0.209717,-0.732422,3.662109,5.126953
7251,0.301025,0.531372,0.910889,-0.244141,5.432129,7.751465
7262,0.083130,1.005981,1.763062,-2.929688,4.211426,9.887695
7273,-0.148437,0.242676,0.442261,-4.516602,4.089355,11.718750
7283,0.186279,0.291992,0.432373,-2.319336,6.103516,12.756348
7292,0.207153,1.060669,1.440552,-4.455566,5.249023,13.549805
7302,-0.143799,0.914185,1.631836,-4.028320,2.563477,13.488770
7312,-0.288086,0.239136,0.822388,-1.098633,2.502441,12.939453
7322,0.079468,-0.013672,0.436035,-0.732422,4.943848,12.573242
7332,0.287598,0.742920,1.214355,-4.882812,4.882812,12.023926
7343,-0.406006,0.286255,0.983643,-7.019043,2.075195,10.559082
7352,-0.072876,-0.252441,0.415894,3.540039,4.943848,9.399414
7362,0.273193,0.174438,0.820190,1.586914,5.737305,8.239746
7372,0.113037,0.953979,1.633301,-3.601074,3.051758,6.958008
7382,-0.179321,0.671753,1.262939,-4.699707,1.037598,6.713867
7392,-0.095581,0.065918,0.300659,-1.708984,3.356934,7.995605
7401,0.382690,0.364624,0.589722,-0.549316,5.126953,9.216309
7413,-0.078735,0.823242,1.593262,-2.746582,3.417969,8.178711
7422,-0.254028,0.338623,0.913330,-1.403809,0.305176,7.202148
7432,0.211426,0.183472,0.283325,0.366211,3.479004,7.080078
7442,0.450439,0.908691,1.128052,-1.708984,3.540039,6.530762
7451,-0.008423,0.932251,1.426025,-3.356934,0.427246,4.943848
7462,-0.308472,0.503540,1.134644,-1.586914,-0.610352,2.990723
7472,-0.000732,0.029297,0.442627,0.732422,1.220703,1.342773
7483,0.059570,1.006104,1.395142,-1.098633,0.061035,0.244141
7492,-0.290161,0.580811,1.237671,-3.845215,-0.488281,0.183105
7502,-0.226074,0.350586,0.751221,-1.281738,2.624512,0.122070
7512,0.252075,0.341309,0.616455,-0.061035,3.601074,-0.488281
7522,0.244507,0.680054,1.312256,-1.892090,2.197266,-1.281738
7532,-0.144531,0.673218,1.617065,-4.211426,-1.403809,-2.197266
7543,-0.275269,0.152588,0.887939,-2.014160,2.014160,-2.075195
7553,0.372925,0.943237,0.939087,-2.441406,3.051758,-1.586914
7562,-0.032959,0.664429,1.242920,-3.234863,1.892090,-0.732422
7572,-0.078247,0.244263,1.069458,-3.234863,2.197266,-0.488281
7582,-0.002075,0.450562,0.772705,-3.356934,3.051758,-1.281738
7592,0.286255,0.792603,0.854614,-3.234863,1.525879,-3.051758
7602,0.008667,0.764771,1.130127,-2.258301,-0.183105,-4.211426
7612,-0.064331,0.617310,0.945923,-0.915527,-0.610352,-4.760742
7623,0.395264,0.681274,1.136963,1.831055,1.892090,-6.103516
7633,-0.287354,0.794434,1.124268,3.662109,-1.770020,-8.666992
7642,-0.113647,0.484741,0.927490,5.859375,-2.807617,-10.009766
7652,0.377686,-0.307617,1.012939,5.920410,0.549316,-9.338379
7662,0.325562,0.653198,1.208740,1.770020,2.258301,-7.385254
7672,0.401978,0.206421,0.850708,0.122070,0.244141,-6.835937
7682,-0.171265,0.344116,0.856567,0.976562,-1.159668,-5.493164
7693,-0.133789,0.076904,1.166382,3.967285,-1.831055,-4.882812
7703,0.000366,0.023437,1.097778,4.821777,-0.122070,-4.577637
7712,-0.353027,0.044067,1.142700,5.126953,-0.366211,-5.004883
7723,-0.242310,0.078247,1.050903,5.432129,-0.732422,-6.042480
7732,-0.264526,0.139648,1.015869,4.699707,-0.488281,-6.408691
7742,-0.041748,0.142090,1.001587,4.760742,0.427246,-5.676270
7752,0.006226,0.069946,0.968140,5.249023,2.075195,-2.929688
7763,0.187134,0.040161,1.025024,5.310059,5.065918,2.319336
7772,0.246704,-0.051025,1.029541,5.432129,4.943848,3.723145
7782,0.303223,-0.203979,1.003052,6.225586,4.211426,4.150391
7792,0.252441,-0.418701,0.882812,6.652832,2.746582,3.295898
7802,0.181519,-0.189819,0.900269,6.286621,0.671387,1.770020
7813,0.155151,-0.166260,1.078613,5.432129,-0.793457,-0.610352
7822,0.130737,-0.081909,1.433716,5.065918,-2.624512,-3.662109
7833,0.019409,-0.375244,1.212524,8.239746,-4.089355,-10.314941
7843,0.184570,0.229248,1.415894,7.812500,-4.150391,-14.282227
7853,-0.002441,0.306030,0.965332,7.995605,-4.638672,-15.258789
7863,-0.078247,0.226807,0.506470,8.361816,-5.920410,-16.357422
7872,0.065918,0.257080,0.992310,7.995605,-5.187988,-18.798828
7882,0.176636,-0.058838,1.395752,9.216309,-7.080078,-23.437500
7892,0.243408,-0.391113,1.360840,9.826660,-9.460449,-30.883789
7903,0.207153,-0.203613,1.051392,9.948730,-11.230469,-37.475586
7913,0.093384,-0.162354,0.845947,11.169434,-10.009766,-36.010742
7922,0.242920,-0.133301,0.932129,11.840820,-9.765625,-35.217285
7932,0.269409,-0.332642,1.020630,13.244629,-10.742188,-36.743164
7942,0.248535,-0.407959,1.059448,13.122559,-13.671875,-39.794922
7952,0.193359,-0.322388,1.005493,10.437012,-15.380859,-40.466309
7963,0.082886,-0.131348,0.781616,5.065918,-12.695313,-33.508301
7972,-0.091064,0.152832,0.691895,5.004883,-10.559082,-27.770996
7983,-0.187866,-0.007446,0.848267,6.103516,-9.399414,-24.047852
7993,-0.097168,-0.178345,1.017090,7.324219,-9.094238,-22.644043
8002,-0.085083,-0.338135,1.056274,8.056641,-10.070801,-21.667480
8012,-0.154663,-0.275269,0.968018,7.324219,-10.253906,-20.690918
8022,-0.292603,-0.083496,0.751221,5.310059,-9.582520,-17.761230
8033,-0.361206,0.065308,0.606812,3.662109,-4.577637,-9.338379
8043,-0.331421,-0.049316,0.723755,4.089355,-2.014160,-6.530762
8052,-0.261108,-0.208496,0.852539,4.272461,-0.427246,-4.821777
8062,-0.185913,-0.284546,0.897095,3.479004,0.183105,-4.028320
8072,-0.193481,-0.150391,0.822510,1.464844,-1.037598,-3.112793
8082,-0.227051,-0.088257,0.765259,0.793457,-0.183105,-0.915527
8093,-0.253418,-0.133057,0.762695,0.854492,0.732422,1.586914
8102,-0.211182,-0.118164,0.751465,0.427246,2.075195,6.103516
8112,-0.163574,-0.147949,0.842407,-0.183105,4.699707,7.690430
8123,-0.096558,-0.147095,1.023804,-0.854492,5.676270,9.399414
8132,-0.102173,-0.163208,1.009521,-1.220703,5.249023,11.413574
8143,-0.063843,-0.201172,1.002930,-0.671387,6.652832,12.695313
8152,0.010254,-0.128906,1.002930,-0.915527,6.774902,13.671875
8162,0.066528,-0.070190,1.011353,-1.403809,7.507324,14.648438
8173,0.097900,-0.091553,1.018066,-1.525879,7.080078,15.991211
8182,0.066284,-0.097656,1.038330,-1.708984,6.591797,16.723633
8193,0.119385,-0.145020,1.052368,-1.586914,6.225586,17.028809
8203,0.143921,-0.157471,1.044189,-1.525879,6.103516,16.601562
8212,0.141357,-0.160400,1.021851,-2.014160,4.943848,16.113281
8222,0.122559,-0.176025,1.002930,-2.075195,4.272461,15.502930
8232,0.103638,-0.155518,0.994507,-2.319336,3.723145,15.075684
8242,0.090454,-0.137939,0.985352,-2.563477,3.295898,13.671875
8252,0.067627,-0.144043,0.972534,-2.563477,2.868652,12.634277
8262,0.014404,-0.118286,0.979126,-2.929688,2.807617,11.718750
8272,0.005737,-0.125854,0.986328,-2.990723,1.586914,10.437012
8282,0.002075,-0.115356,0.984253,-2.807617,2.258301,8.972168
8292,0.009399,-0.093628,0.983887,-2.807617,2.075195,7.446289
8302,0.031494,-0.082886,0.985229,-2.929688,2.258301,6.103516
8312,0.057861,-0.069946,0.983276,-2.563477,1.708984,5.187988
8323,0.063599,-0.054443,0.990479,-2.685547,0.976562,3.295898
8333,0.062744,-0.053589,0.995361,-2.258301,0.610352,2.746582
8342,0.054443,-0.055542,0.996826,-2.319336,0.732422,2.502441
8352,0.042480,-0.064575,0.995239,-2.197266,0.122070,2.319336
8362,0.036621,-0.070557,0.999878,-1.770020,0.854492,2.441406
8373,0.042725,-0.070312,1.005981,-1.831055,0.915527,2.441406
8382,0.063477,-0.075928,1.014404,-1.708984,0.061035,1.953125
8392,0.075317,-0.078857,1.011475,-1.586914,-0.488281,1.647949
8402,0.057007,-0.078003,1.006958,-1.647949,-1.159668,1.342773
8412,0.047607,-0.083252,1.002930,-1.647949,-0.732422,0.976562
8422,0.050659,-0.089722,1.000122,-1.586914,-0.793457,1.037598
8432,0.051392,-0.098022,1.000488,-1.403809,-0.671387,1.281738
8443,0.035767,-0.097046,1.005737,-1.586914,-1.159668,1.464844
8452,0.017578,-0.081787,1.009521,-1.220703,-0.793457,2.014160
8462,0.007324,-0.067749,1.008057,-1.281738,-1.037598,2.197266
8473,-0.009399,-0.046265,1.007690,-1.342773,-1.037598,2.197266
8482,-0.008667,-0.050903,1.004883,-0.976562,-0.915527,2.258301
8493,-0.002319,-0.065796,1.000732,-0.732422,-0.915527,2.197266
8502,0.009399,-0.076294,1.000366,-0.732422,-1.525879,2.258301
8513,0.016357,-0.097046,0.992920,-0.854492,-1.037598,2.441406
8522,0.012695,-0.113525,0.965332,-1.037598,-1.281738,3.051758
8534,-0.021240,0.104126,0.865479,-1.220703,-0.305176,4.272461
8543,-0.025024,-0.020630,0.943237,0.183105,0.244141,5.249023
8553,-0.001221,-0.144897,1.078857,0.976562,1.037598,6.408691
8562,0.003296,-0.116699,1.149780,-0.671387,0.671387,7.446289
8572,-0.005005,0.050293,1.100098,-2.136230,0.732422,7.995605
8583,0.039917,-0.173584,1.002197,-0.793457,0.244141,8.422852
8592,0.077759,-0.245239,0.989746,0.305176,-0.366211,8.178711
8602,0.017700,-0.052612,0.971924,-0.976562,-0.488281,8.972168
8612,-0.009644,-0.161377,0.975342,-0.427246,-0.122070,9.094238
8623,-0.001587,-0.107056,0.954590,-1.342773,1.098633,9.643555
8632,-0.033203,-0.066895,0.958374,-1.586914,0.854492,10.192871
8642,-0.005005,-0.081299,0.993896,-0.976562,0.793457,9.521484
8652,0.011230,-0.038696,1.006592,-1.525879,0.671387,8.972168
8662,0.022827,-0.038696,1.003906,-1.708984,0.488281,8.361816
8673,0.099365,-0.117310,1.021118,-0.915527,0.122070,6.408691
8682,0.087891,-0.115601,1.005615,-1.037598,-0.366211,6.042480
8692,0.088867,-0.160767,0.994385,-0.732422,-0.061035,5.493164
8703,0.086792,-0.162109,0.974609,-0.671387,-0.366211,4.638672
8712,0.085205,-0.141113,0.994873,-1.098633,-1.220703,3.845215
8723,0.070557,-0.148193,1.016602,-1.220703,-2.136230,2.807617
8732,0.037842,-0.125977,0.974731,-1.342773,-2.136230,1.525879
8744,0.024292,-0.107910,0.997314,-1.342773,-2.136230,1.281738
8753,0.025513,-0.099976,0.976562,-1.464844,-1.647949,1.403809
8763,0.034668,-0.096191,0.999023,-1.342773,-1.953125,1.281738
8772,0.034180,-0.081787,0.990967,-1.403809,-2.197266,0.915527
8782,0.052490,-0.082520,0.987305,-1.403809,-1.892090,0.610352
8793,0.047729,-0.078491,0.993530,-1.403809,-2.441406,0.183105
8802,0.054199,-0.080444,0.989014,-1.403809,-3.112793,-0.305176
8812,0.055786,-0.085327,1.007813,-1.525879,-3.540039,-0.793457
8823,-0.002686,-0.117554,1.016479,-1.098633,-4.150391,-1.342773
8833,0.001709,-0.140869,1.011963,-1.037598,-3.051758,-1.281738
8842,-0.031006,-0.123779,1.008667,-1.159668,-3.295898,-1.220703
8853,-0.023071,-0.151367,0.998535,-1.037598,-3.051758,-0.610352
8863,-0.046387,-0.129028,0.994629,-1.220703,-3.173828,-0.549316
8872,-0.078735,-0.139038,0.971436,-1.281738,-2.197266,1.159668
8884,-0.080078,-0.110352,0.969116,-1.159668,-1.159668,3.234863
8893,-0.035278,-0.151611,0.958740,-0.427246,-0.183105,4.760742
8903,-0.024292,-0.224487,0.976440,-0.183105,-0.305176,5.310059
8912,-0.051270,-0.192505,1.004639,-0.610352,-0.854492,5.432129
8923,-0.058105,-0.091431,1.050537,-1.159668,-0.549316,5.065918
8933,-0.027100,-0.052612,1.013672,-1.403809,-0.549316,5.004883
8942,-0.048950,-0.065063,0.917236,-0.732422,-0.732422,4.516602
8952,0.004150,-0.128418,0.981323,-0.915527,-1.464844,4.943848
8963,-0.000732,-0.168579,0.992432,-0.976562,-0.793457,4.760742
8972,0.095947,-0.215332,0.967896,-1.708984,-0.488281,5.004883
8982,0.121460,-0.031006,1.127563,-1.647949,-1.525879,4.333496
8993,0.065308,-0.126343,1.013672,-1.159668,-1.586914,3.784180
9002,0.052612,-0.232666,0.910034,-1.098633,-1.525879,2.929688
9015,0.056641,-0.138672,1.034180,-1.281738,-1.770020,3.051758
9024,-0.017334,-0.142700,1.009521,-1.220703,-2.197266,3.356934
9034,-0.019043,-0.150269,0.980469,-0.732422,-1.281738,4.028320
9044,-0.006348,-0.162842,0.968750,-0.732422,-0.305176,4.333496
9053,-0.014038,-0.182007,0.964966,-0.549316,-1.159668,3.845215
9063,-0.012695,-0.187744,0.947510,-0.732422,-1.770020,3.112793
9073,-0.023437,-0.177002,0.984131,-1.220703,-1.770020,3.723145
9082,-0.074463,-0.147339,1.020630,-1.281738,0.488281,2.868652
9094,-0.159424,-0.198242,1.015137,-0.122070,0.671387,0.427246
9103,-0.132324,-0.291260,0.959351,0.244141,0.671387,-2.258301
9112,-0.083496,-0.283936,0.927124,-0.183105,-0.549316,-4.821777
9122,-0.070923,-0.200439,0.942993,-0.915527,-0.976562,-6.408691
9133,-0.093872,-0.141113,0.976440,-0.793457,-0.305176,-6.347656
9143,-0.093750,-0.133057,0.999268,-0.488281,0.366211,-5.065918
9152,-0.092407,-0.133667,1.009033,0.000000,2.319336,-1.342773
9164,0.002075,-0.183350,0.999268,0.671387,3.295898,0.610352
9173,0.009033,-0.211304,0.962280,0.366211,2.929688,1.159668
9182,-0.074829,-0.203369,0.964233,0.122070,2.197266,1.464844
9193,-0.052246,-0.255981,0.965576,0.244141,2.258301,2.929688
9203,-0.077393,-0.308105,0.963379,0.061035,2.136230,3.540039
9214,-0.156616,-0.305786,0.973022,-0.122070,4.089355,5.432129
9223,-0.139282,-0.288818,0.983032,0.122070,5.615234,6.835937
9233,-0.049561,-0.277710,0.986450,0.122070,7.019043,8.178711
9243,-0.041870,-0.280151,1.003174,0.122070,7.385254,9.399414
9252,-0.033203,-0.247192,1.027710,0.366211,7.873535,10.437012
9262,-0.052734,-0.256226,0.996826,0.305176,7.263184,11.474609
9273,-0.070557,-0.227783,0.949707,0.122070,7.446289,12.878418
9282,-0.044922,-0.168213,0.916992,0.000000,7.812500,15.197754
9295,-0.016724,-0.094971,0.927979,-0.244141,9.582520,23.193359
9304,-0.035400,-0.075317,0.954468,-0.610352,10.375977,28.381348
9314,-0.036621,-0.104736,0.957031,-0.732422,12.573242,33.508301
9323,-0.024902,-0.140991,0.945679,-0.793457,13.610840,38.024902
9333,-0.009521,-0.134644,0.952148,-1.525879,13.977051,41.870117
9343,-0.000610,-0.125366,0.961914,-1.770020,14.221191,45.043945
9352,0.009277,-0.131836,1.001587,-1.708984,13.793945,47.912598
9365,0.008545,-0.254395,0.990112,-0.976562,14.221191,53.527832
9374,0.023804,-0.253418,0.983032,-1.342773,14.831543,55.969238
9384,0.010498,-0.238647,0.990234,-1.647949,14.770508,58.105469
9393,0.012451,-0.219238,0.977173,-2.014160,15.258789,59.692383
9403,0.021606,-0.224365,0.946533,-1.831055,15.258789,60.729980
9413,0.002441,-0.272217,0.930664,-1.342773,15.563965,61.584473
9423,-0.023804,-0.310547,0.984985,-1.098633,15.747070,62.438965
9432,-0.056763,-0.323486,1.048828,-1.586914,15.869141,64.270020
9444,-0.030029,-0.369507,0.945923,-1.831055,16.174316,64.880371
9454,-0.014893,-0.355347,0.948608,-1.586914,17.028809,64.941406
9463,0.021240,-0.371826,0.991455,-1.281738,17.150879,64.331055
9472,0.062012,-0.431885,0.979126,-0.976562,16.601562,63.659668
9483,0.083618,-0.450806,0.974609,-0.976562,15.808105,62.011719
9493,0.124756,-0.385376,1.025146,-1.037598,15.625000,60.302734
9504,0.127075,-0.370728,0.963135,-0.915527,14.282227,56.579590
9513,0.152222,-0.351318,0.955933,-0.244141,13.183594,54.443359
9523,0.171021,-0.396240,0.916748,0.061035,12.207031,52.978516
9533,0.203247,-0.354492,0.951782,0.183105,11.535645,51.391602
9543,0.295044,-0.324585,0.977295,-0.549316,10.498047,49.621582
9553,0.304932,-0.269043,0.993530,-0.732422,9.582520,48.400879
9564,0.331909,-0.251831,1.004883,-0.061035,7.934570,44.677734
9574,0.283447,-0.298218,0.982422,0.000000,6.591797,42.297363
9584,0.190674,-0.331421,0.993042,0.305176,5.798340,39.367676
9593,0.091064,-0.300171,1.012329,0.488281,4.028320,35.522461
9603,0.033447,-0.333984,0.998535,0.732422,2.563477,31.188965
9613,-0.005127,-0.376221,0.992920,0.976562,1.525879,27.099609
9623,0.015015,-0.330444,0.983887,0.854492,0.915527,23.559570
9634,0.008667,-0.281128,0.979736,0.732422,-0.183105,18.615723
9644,0.147095,-0.339600,0.961792,0.793457,-0.122070,16.601562
9653,0.184326,-0.333008,0.976196,0.488281,-0.427246,14.465332
9663,0.226685,-0.313843,0.997314,0.366211,-0.427246,11.962891
9673,0.243652,-0.375488,0.999878,0.427246,-1.647949,9.460449
9682,0.258667,-0.393311,1.009033,0.244141,-2.868652,6.164551
9693,0.251587,-0.357544,1.005005,0.000000,-4.394531,2.319336
9702,0.248901,-0.277222,0.995850,0.061035,-5.004883,-0.610352
9714,0.275879,-0.322510,0.986450,0.549316,-6.958008,-5.432129
9724,0.253784,-0.294312,0.975586,0.793457,-7.812500,-7.080078
9733,0.265015,-0.272827,0.912598,0.549316,-7.873535,-8.483887
9742,0.235229,-0.285400,0.934570,0.244141,-8.361816,-10.253906
9753,0.228516,-0.243774,0.919922,0.000000,-8.911133,-12.268066
9762,0.160156,-0.167725,0.976440,-0.305176,-8.911133,-13.488770
9774,0.150879,-0.160278,0.977295,-0.915527,-9.216309,-14.648438
9784,0.149414,-0.128784,1.016479,-1.220703,-9.460449,-14.343262
9793,0.173462,-0.118286,0.971802,-1.037598,-8.850098,-13.977051
9803,0.193481,-0.130005,0.998291,-0.854492,-8.666992,-13.916016
9812,0.189575,-0.187988,0.955200,-0.854492,-9.216309,-14.160156
9823,0.136841,-0.097656,0.918457,-1.220703,-9.948730,-14.770508
9833,0.179077,-0.050293,0.891724,-1.647949,-9.826660,-14.892578
9844,0.145142,-0.074463,0.942261,-1.770020,-10.131836,-16.052246
9854,0.215332,-0.152954,0.960449,-1.586914,-10.131836,-16.235352
9863,0.205811,-0.151245,1.017822,-1.586914,-10.131836,-16.418457
9873,0.198364,-0.152222,0.989746,-1.464844,-11.047363,-17.089844
9882,0.146118,-0.191528,1.018677,-1.342773,-11.352539,-17.883301
9893,0.162964,-0.223145,0.954102,-1.586914,-11.718750,-18.432617
9903,0.127319,-0.192871,0.956543,-1.953125,-11.474609,-19.287109
9914,0.119995,-0.157227,0.991211,-1.953125,-10.559082,-19.409180
9924,0.091064,-0.106323,1.039429,-2.502441,-10.498047,-18.981934
9934,0.043335,-0.116943,1.045044,-2.197266,-10.375977,-19.531250
9943,-0.014038,-0.115967,1.007568,-2.258301,-10.742188,-20.690918
9953,-0.027954,-0.063110,1.013428,-2.319336,-11.169434,-21.789551
9963,-0.048218,-0.068481,0.978271,-1.953125,-10.253906,-22.216797
9973,-0.009277,-0.030640,1.005737,-2.136230,-10.314941,-22.033691
9983,0.027588,-0.018066,0.967163,-1.892090,-8.972168,-19.042969
9995,0.126709,-0.032959,0.938354,-2.136230,-7.141113,-17.089844
10004,0.114136,-0.058716,0.906250,-2.624512,-6.286621,-15.319824
10014,0.136475,0.038574,0.976562,-2.990723,-6.774902,-13.793945
10024,0.166504,-0.012329,0.991821,-2.624512,-6.530762,-13.122559
10033,0.113770,0.017578,1.033081,-2.624512,-7.324219,-12.573242
10043,0.090332,0.004272,1.031128,-2.258301,-7.507324,-11.840820
10054,0.097046,-0.043091,1.018311,-1.525879,-7.202148,-10.070801
10064,0.091797,-0.092896,0.926147,-1.220703,-6.530762,-9.033203
10073,0.078369,-0.133423,0.954346,-1.342773,-6.164551,-7.812500
10083,0.146851,-0.217163,0.932007,-1.342773,-5.981445,-7.019043
10093,0.140991,-0.152588,0.974976,-2.014160,-6.774902,-6.591797
10103,0.169800,-0.122314,1.054932,-2.136230,-7.263184,-6.530762
10113,-0.047607,-0.072998,0.833130,-1.831055,-7.690430,-6.774902
10122,-0.023193,-0.081909,0.942505,-1.037598,-6.469727,-7.141113
10134,-0.012573,-0.198486,1.062256,-0.671387,-3.967285,-7.263184
10144,-0.100830,-0.201050,1.008179,-0.671387,-3.540039,-7.446289
10154,-0.205322,-0.171021,1.012573,-1.281738,-3.540039,-8.239746
10164,-0.200684,-0.065186,1.015137,-1.281738,-3.784180,-9.399414
10173,-0.075073,-0.023926,0.988647,-1.159668,-3.356934,-10.375977
10183,-0.019775,-0.026978,1.020508,-1.831055,-4.089355,-10.742188
10192,-0.006836,0.005493,1.074097,-2.319336,-4.150391,-10.314941
10204,-0.009888,0.053223,1.016113,-2.380371,-3.723145,-6.774902
10214,-0.005127,0.057495,0.990479,-2.197266,-0.244141,-4.394531
10223,-0.011353,-0.057373,0.999390,-1.586914,0.671387,-1.586914
10233,-0.044189,-0.135986,1.018799,-1.037598,0.793457,0.732422
10242,-0.060669,-0.134277,1.012207,-1.525879,0.793457,3.173828
10253,-0.044189,-0.022583,1.029053,-2.319336,1.281738,6.225586
10264,-0.024292,-0.079468,0.859253,-2.685547,3.356934,13.305664
10274,0.043213,-0.097900,0.899658,-2.990723,4.394531,16.845703
10283,0.066406,-0.213013,0.951294,-2.685547,4.882812,19.836426
10293,0.021118,-0.329346,1.187988,-1.647949,4.455566,20.935059
10303,0.069214,-0.149902,1.012695,-1.708984,3.540039,20.446777
10313,0.072998,-0.115845,1.032593,-1.831055,3.356934,20.690918
10323,0.057861,-0.102173,0.969116,-1.403809,2.868652,21.179199
10334,0.000488,-0.129150,0.904175,-1.220703,1.647949,20.629883
10344,-0.002563,-0.114624,0.980225,-1.647949,1.403809,20.385742
10353,0.054810,-0.148437,1.000366,-1.647949,2.685547,20.874023
10362,0.027466,-0.219482,1.016113,-0.854492,3.540039,21.301270
10373,-0.034180,-0.201172,0.948730,-0.671387,3.234863,20.202637
10383,-0.053833,-0.224487,1.006226,-0.915527,2.380371,19.104004
10393,-0.047485,-0.088501,1.017456,-0.976562,2.258301,17.883301
10404,-0.016357,-0.155884,1.001587,-0.732422,1.831055,16.784668
10414,0.042847,-0.104736,1.025024,-0.366211,1.342773,16.723633
10423,0.087036,-0.139160,0.981079,-0.366211,1.098633,17.150879
10432,0.127686,-0.105347,1.038818,-0.488281,1.831055,18.188477
10443,0.095459,-0.032837,1.032593,-0.610352,2.136230,18.676758
10453,0.133423,-0.107666,1.002930,-0.122070,1.342773,19.653320
10463,0.093506,-0.176636,1.041260,0.061035,1.220703,19.653320
10474,0.052124,-0.160767,0.975952,-0.183105,0.244141,17.150879
10483,0.009033,-0.215332,0.995483,-0.427246,-0.305176,14.648438
10494,0.029907,-0.165771,0.945435,-0.610352,-0.793457,12.023926
10503,0.071167,-0.158691,0.984131,-0.732422,-1.403809,9.765625
10513,0.109131,-0.132202,1.025269,-0.610352,-2.258301,8.300781
10523,0.140869,-0.103027,1.003418,-0.366211,-2.746582,7.690430
10532,0.149780,-0.106201,1.028564,0.122070,-2.685547,7.934570
10543,0.141357,-0.124512,1.030151,0.122070,-2.807617,8.666992
10554,0.112549,-0.164062,0.981934,0.000000,-2.929688,9.826660
10563,0.096191,-0.196533,0.951782,0.183105,-3.417969,9.765625
10572,0.086426,-0.174561,0.978027,0.183105,-3.967285,8.728027
10583,0.085815,-0.217163,0.978638,0.183105,-4.638672,7.568359
10593,0.084717,-0.209717,0.985352,0.122070,-5.187988,7.019043
10602,0.087036,-0.136719,0.989258,0.305176,-5.493164,6.835937
10613,0.058594,-0.200317,0.967041,0.793457,-5.310059,6.896973
10624,0.004272,-0.194702,0.958374,0.854492,-5.737305,6.958008
10633,0.002808,-0.240723,0.970093,0.732422,-5.859375,6.652832
10643,-0.011108,-0.260254,0.972778,0.610352,-5.615234,5.920410
10652,-0.005615,-0.197144,0.989502,0.732422,-5.432129,4.821777
10663,0.017334,-0.276001,0.991333,1.098633,-5.187988,4.089355
10672,0.024902,-0.336182,0.975098,0.976562,-5.432129,3.173828
10683,0.041138,-0.236084,1.003052,0.915527,-5.737305,2.441406
10694,0.043701,-0.267578,0.940552,0.976562,-6.347656,1.831055
10704,0.033813,-0.292358,0.969482,0.427246,-6.408691,1.770020
10713,0.027222,-0.298584,0.978271,0.427246,-6.347656,1.708984
10723,0.019287,-0.210205,0.971313,0.366211,-5.859375,1.953125
10733,0.037598,-0.293701,0.927368,0.183105,-5.554199,1.770020
10742,0.033569,-0.277344,0.995239,0.305176,-5.676270,1.403809
10753,0.041504,-0.256348,1.016602,0.305176,-5.981445,0.915527
10764,0.055908,-0.285278,0.957886,0.671387,-5.859375,0.000000
10774,0.055298,-0.323364,0.944458,0.488281,-6.042480,-0.854492
10783,0.032715,-0.324707,0.964233,0.488281,-6.042480,-1.525879
10792,0.015991,-0.330200,0.949707,0.427246,-6.469727,-2.258301
10803,0.022217,-0.347534,0.936401,0.488281,-6.530762,-3.234863
10812,0.004883,-0.307129,0.970215,0.122070,-6.530762,-4.089355
10824,0.019897,-0.374634,0.954590,-0.122070,-6.591797,-5.371094
10834,0.044189,-0.275635,0.999390,-0.305176,-6.713867,-5.798340
10843,0.036133,-0.317993,1.004028,-0.366211,-7.202148,-5.737305
10853,0.059814,-0.317749,0.997070,-0.366211,-6.835937,-5.310059
10863,0.065308,-0.320313,0.976929,-0.305176,-6.591797,-4.882812
10873,0.035278,-0.305420,0.975952,-0.549316,-6.469727,-4.516602
10883,0.041748,-0.308960,0.963379,-0.549316,-6.652832,-4.089355
10894,0.015503,-0.326416,0.961914,-0.610352,-6.042480,-3.540039
10904,-0.012573,-0.282349,1.003174,-0.732422,-5.676270,-3.784180
10914,0.008911,-0.278198,1.017090,-0.549316,-5.554199,-3.906250
10923,-0.021729,-0.253052,1.019043,-0.610352,-5.676270,-3.845215
10933,0.015259,-0.276123,0.992310,-0.854492,-5.737305,-3.601074
10943,-0.020996,-0.308716,0.936157,-0.976562,-5.432129,-3.173828
10953,-0.006958,-0.329834,0.917847,-0.976562,-5.126953,-2.868652
10962,-0.022339,-0.345825,0.889160,-1.037598,-4.577637,-2.502441
10974,-0.015747,-0.350952,0.935547,-1.403809,-4.821777,-2.197266
10984,-0.005127,-0.317871,0.965088,-2.014160,-4.028320,-1.953125
10993,0.010498,-0.286987,1.028076,-2.319336,-3.967285,-1.647949
11003,0.012451,-0.222168,1.048096,-2.441406,-4.577637,-1.342773
11013,-0.004272,-0.185425,1.058716,-2.258301,-4.699707,-0.976562
11023,0.016846,-0.235474,1.030640,-2.136230,-4.272461,-0.244141
11032,0.005005,-0.271240,0.983643,-2.075195,-4.028320,0.427246
11044,-0.043091,-0.228638,0.964233,-2.319336,-4.333496,0.915527
11054,-0.072510,-0.155640,0.973877,-2.929688,-3.784180,1.586914
11063,-0.074219,-0.206787,0.939575,-2.929688,-2.807617,2.075195
11073,-0.084839,-0.223145,0.966797,-2.990723,-2.441406,2.441406
11083,-0.089722,-0.216187,0.997314,-2.929688,-1.770020,2.685547
11093,-0.112183,-0.205078,0.986206,-3.356934,-1.403809,2.685547
11104,-0.106689,-0.172363,0.991211,-3.662109,-1.464844,2.075195
11114,-0.086914,-0.174194,0.976929,-3.723145,-1.342773,1.892090
11123,-0.085571,-0.152100,1.005005,-3.662109,-1.037598,2.136230
11132,-0.058472,-0.121460,1.054077,-3.540039,-0.244141,2.868652
11143,-0.030273,-0.223633,1.032349,-2.990723,0.915527,3.845215
11154,0.015503,-0.146606,1.037231,-2.563477,1.464844,4.394531
11163,0.035400,-0.208252,0.993896,-2.441406,1.098633,4.455566
11174,0.005615,-0.162231,0.960205,-2.685547,-0.427246,3.906250
11183,0.013306,-0.075562,1.029175,-2.685547,-0.610352,3.784180
11194,-0.009888,-0.061646,1.019653,-2.685547,-1.037598,3.845215
11203,-0.021973,-0.013916,1.024658,-2.685547,-0.915527,3.967285
11213,-0.004150,-0.064575,1.014282,-2.563477,-0.549316,4.821777
11223,0.024414,-0.042969,1.025269,-2.258301,-0.427246,5.554199
11233,0.028076,-0.006592,1.065796,-2.075195,-0.244141,6.103516
11244,0.018677,-0.103271,1.026855,-1.525879,-0.244141,5.798340
11254,-0.011597,-0.147827,0.969604,-1.220703,-0.305176,4.882812
11263,-0.035767,-0.137939,0.894775,-1.403809,-1.037598,3.662109
11273,-0.037109,-0.113647,0.913086,-1.770020,-1.647949,2.197266
11283,-0.011353,-0.131836,0.900146,-2.197266,-1.403809,1.159668
11293,-0.011353,-0.105225,0.947144,-2.563477,-2.258301,0.122070
11303,0.005249,-0.115601,0.997559,-2.624512,-1.586914,-0.488281
11313,0.041870,-0.107788,1.036621,-2.624512,-1.770020,-1.281738
11324,0.090332,-0.165405,1.039917,-2.319336,-2.197266,-3.295898
11334,0.088745,-0.205078,0.980957,-2.197266,-3.051758,-5.065918
11343,0.117432,-0.175049,0.983765,-1.892090,-3.417969,-6.347656
11353,0.081543,-0.228271,0.954590,-2.258301,-3.906250,-7.568359
11363,0.032593,-0.104004,0.983765,-2.319336,-4.760742,-8.666992
11373,-0.018433,-0.213745,0.957397,-1.708984,-4.821777,-9.521484
11383,0.040161,-0.164307,0.942017,-2.136230,-4.577637,-10.131836
11394,-0.003418,-0.197754,0.978394,-2.197266,-3.967285,-10.864258
11404,-0.023560,-0.128662,1.017700,-2.319336,-4.272461,-11.413574
11414,-0.048706,-0.115845,1.042114,-2.197266,-4.211426,-12.390137
11423,-0.053833,-0.185547,0.995605,-1.831055,-4.699707,-13.916016
11433,-0.049316,-0.152344,0.985840,-1.892090,-4.150391,-15.258789
11444,-0.019897,-0.110718,1.012695,-2.014160,-3.295898,-16.540527
11453,-0.023071,-0.142212,0.999268,-2.197266,-2.624512,-18.493652
11463,0.009521,-0.030396,1.023926,-1.708984,-2.929688,-19.409180
11473,0.038452,-0.160889,1.004395,-1.586914,-2.807617,-20.202637
11483,0.085937,-0.218872,0.942139,-1.525879,-3.295898,-21.240234
11493,0.078003,-0.243896,0.893921,-1.892090,-3.540039,-22.094727
11502,0.044922,-0.142944,0.952881,-2.197266,-3.234863,-22.521973
11513,0.026245,-0.172607,0.974365,-2.502441,-2.807617,-22.827148
11525,-0.052246,-0.121704,1.027710,-2.502441,-2.197266,-22.827148
11535,-0.077759,-0.100952,1.040039,-2.136230,-1.037598,-22.644043
11544,-0.077026,-0.200562,0.959106,-1.525879,-0.427246,-22.155762
11554,-0.071777,-0.159302,0.950317,-1.159668,0.610352,-21.362305
11563,-0.009766,-0.186279,0.945190,-0.793457,0.854492,-20.141602
11573,-0.010254,-0.240479,0.943726,-0.732422,1.892090,-18.920898
11583,-0.006348,-0.169312,0.981079,-0.793457,2.136230,-17.333984
11593,-0.030396,-0.149414,0.970947,-0.915527,2.563477,-15.625000
11604,-0.025879,-0.236328,0.951660,-0.732422,3.295898,-11.901855
11613,-0.044556,-0.192993,0.985962,-0.610352,4.943848,-9.765625
11623,-0.089355,-0.233398,1.024414,-0.366211,5.371094,-7.934570
11633,-0.074829,-0.323120,0.994751,-0.366211,5.859375,-6.408691
11643,-0.072021,-0.296021,0.975708,-0.671387,6.530762,-4.333496
11653,-0.093140,-0.218872,0.970703,-1.220703,6.774902,-2.136230
11663,-0.090942,-0.155884,0.951904,-1.464844,7.568359,0.061035
11674,-0.133057,-0.265137,0.945801,-1.525879,8.850098,3.784180
11683,-0.128540,-0.239014,0.938843,-2.014160,9.460449,5.249023
11693,-0.086182,-0.268555,0.925171,-2.258301,10.192871,6.408691
11703,-0.056641,-0.249512,0.945435,-2.441406,10.375977,7.507324
11713,-0.061279,-0.184570,0.959595,-2.807617,10.803223,8.728027
11723,-0.052246,-0.227661,0.954468,-3.051758,10.498047,9.521484
11733,-0.036255,-0.245361,0.934204,-3.051758,10.620117,10.375977
11744,-0.033813,-0.258789,0.963379,-2.929688,10.437012,12.023926
11754,-0.033203,-0.292725,1.008301,-2.929688,10.803223,12.695313
11763,-0.074097,-0.260742,1.100952,-2.746582,10.253906,13.000488
11773,-0.040161,-0.212646,1.100952,-2.136230,9.765625,12.817383
11783,-0.028320,-0.208496,1.018799,-1.586914,9.948730,12.878418
11793,0.026001,-0.250854,0.974731,-0.793457,10.070801,13.000488
11804,0.055298,-0.307373,0.903198,-0.793457,9.277344,13.000488
11813,0.056763,-0.305908,0.904907,-1.342773,7.934570,12.634277
11824,0.030640,-0.283325,0.946045,-2.014160,7.751465,12.084961
11833,0.052979,-0.217041,0.985474,-2.441406,7.202148,11.291504
11843,0.050293,-0.207397,0.995972,-2.563477,7.019043,10.559082
11853,0.056763,-0.271851,1.067993,-2.685547,6.713867,9.155273
11863,0.060547,-0.235840,1.058960,-2.441406,5.981445,7.263184
11874,0.098877,-0.280151,0.984375,-2.441406,4.211426,2.502441
11884,0.157837,-0.207031,1.035767,-2.258301,2.990723,-0.244141
11893,0.152344,-0.179077,1.055176,-2.075195,2.014160,-2.563477
11904,0.168945,-0.256348,0.966675,-2.136230,0.305176,-4.455566
11913,0.231323,-0.175293,0.961304,-1.708984,0.122070,-5.615234
11922,0.237305,-0.193359,0.965454,-1.403809,-0.427246,-6.225586
11933,0.255981,-0.233154,0.940063,-1.586914,-0.915527,-6.469727
11945,0.226440,-0.047974,1.013428,-1.953125,-1.342773,-6.042480
11955,0.145386,-0.093872,1.009399,-1.770020,-1.403809,-5.676270
11965,0.141113,-0.036377,1.081787,-1.586914,-1.525879,-5.615234
11974,0.079834,-0.092529,1.007568,-1.037598,-1.342773,-5.554199
11984,0.062256,-0.111328,0.957886,-0.976562,-1.464844,-5.187988
11994,0.072021,-0.067749,0.991211,-1.403809,-2.380371,-4.882812
12003,0.068848,-0.044678,0.999023,-1.708984,-3.417969,-3.845215
12015,-0.027222,-0.047119,1.058716,-1.586914,-2.624512,-0.671387
12025,-0.064331,-0.131470,1.020142,-1.464844,-2.319336,0.549316
12035,-0.064819,-0.118286,1.018311,-1.525879,-1.403809,1.647949
12044,-0.072632,-0.045898,1.012695,-1.464844,-0.366211,2.258301
12054,-0.101440,-0.167603,0.938721,-0.793457,-0.061035,2.502441
12063,-0.134644,-0.163574,0.959229,-0.488281,0.610352,2.319336
12073,-0.141724,-0.120850,0.967407,-0.305176,0.976562,2.075195
12085,-0.155029,-0.093140,1.044922,-0.366211,1.953125,2.685547
12095,-0.138306,-0.120850,1.054199,-0.061035,2.990723,3.601074
12104,-0.113037,-0.103027,1.033936,-0.061035,3.906250,5.310059
12114,-0.048584,-0.072754,1.086792,0.366211,4.394531,7.385254
12123,0.014526,-0.147583,1.002563,0.793457,4.943848,9.643555
12133,0.061035,-0.118530,0.998901,0.915527,4.638672,11.535645
12143,0.081543,-0.108398,0.975952,1.281738,4.089355,13.732910
12154,0.122559,-0.130249,0.916504,0.305176,4.089355,18.981934
12163,0.073730,-0.013428,1.021484,-0.549316,4.638672,21.423340
12174,0.000854,0.000000,1.020142,-0.976562,4.516602,23.681641
12183,-0.051025,0.028198,1.019409,-1.403809,4.089355,25.268555
12193,-0.054810,-0.041504,0.985107,-1.098633,4.394531,26.611328
12203,-0.080444,-0.110229,0.919189,-1.098633,3.906250,27.587891
12213,-0.098389,-0.110718,0.942383,-1.159668,3.723145,27.954102
12224,-0.069580,-0.134766,0.952515,-1.708984,3.723145,28.381348
12233,-0.035522,-0.117920,1.006226,-1.647949,3.356934,28.747559
12244,0.056396,-0.182495,0.929565,-1.342773,2.075195,28.808594
12258,0.065918,-0.202393,0.959229,-1.403809,0.000000,28.198242
12267,0.107300,-0.202515,0.980469,-1.403809,0.000000,28.198242
12276,0.075439,-0.153564,0.975220,-1.892090,-1.770020,26.428223
12285,0.048096,-0.169067,0.969849,-1.586914,-2.563477,25.268555
12295,0.045166,-0.191284,1.065674,-1.220703,-2.441406,24.047852
12303,0.045166,-0.191284,1.065674,-0.793457,-3.356934,22.888184
12314,0.088501,-0.323120,0.954224,-0.305176,-3.967285,21.911621
12323,0.006226,-0.323486,0.845581,-0.122070,-5.493164,20.385742
12333,0.008057,-0.299805,0.880859,-0.732422,-5.737305,18.615723
12343,0.015015,-0.276611,0.993408,-1.831055,-6.713867,16.235352
12353,-0.022217,-0.239990,1.012329,-2.502441,-7.751465,13.610840
12362,-0.007690,-0.236816,0.949463,-2.441406,-8.300781,11.474609
12374,0.067139,-0.242676,0.998657,-2.075195,-9.033203,6.469727
12383,0.105713,-0.282104,1.059692,-2.380371,-9.521484,4.577637
12393,0.089111,-0.168701,1.085815,-2.380371,-9.887695,2.746582
12403,0.080322,-0.234497,1.017578,-1.647949,-10.498047,1.098633
12413,0.101440,-0.217163,1.148804,-1.281738,-11.108398,-0.732422
12423,0.123413,-0.343506,1.063721,-0.671387,-11.596680,-2.929688
12434,0.114868,-0.276611,0.974365,-0.671387,-12.878418,-6.164551
12444,0.064087,-0.302856,0.924683,-0.915527,-13.061523,-7.141113
12453,0.069458,-0.234741,1.041748,-1.403809,-12.756348,-7.812500
12463,0.054810,-0.273926,0.957886,-1.647949,-13.061523,-8.361816
12473,0.024170,-0.167969,0.968628,-1.831055,-12.390137,-8.361816
12483,0.028198,-0.258423,0.950806,-2.014160,-12.268066,-8.239746
12494,0.038818,-0.170166,1.036011,-2.685547,-11.657715,-8.178711
12503,0.015381,-0.214111,1.022095,-2.929688,-11.413574,-8.117676
12514,-0.061768,-0.155762,0.939331,-2.685547,-10.864258,-8.422852
12524,-0.083130,-0.077271,1.056396,-2.441406,-9.887695,-8.666992
12533,-0.097778,-0.131592,1.049683,-2.319336,-10.314941,-8.666992
12543,-0.123657,0.006104,1.031616,-1.892090,-8.850098,-8.483887
12553,-0.175049,-0.134644,0.915039,-1.586914,-8.483887,-8.178711
12563,-0.167969,-0.103149,0.903564,-1.464844,-7.690430,-7.873535
12576,-0.170166,-0.075928,0.989868,-1.647949,-5.676270,-7.507324
12585,-0.175171,-0.113647,0.967285,-1.525879,-5.065918,-7.446289
12595,-0.160034,-0.018921,1.057983,-1.403809,-3.662109,-7.263184
12604,-0.137207,-0.079346,1.073853,-0.915527,-2.807617,-6.713867
12614,-0.131958,-0.044312,0.989990,-0.671387,-2.014160,-6.347656
12624,-0.121338,-0.124756,0.960815,-0.427246,-1.647949,-6.103516
12633,-0.120361,-0.110962,0.955933,-0.244141,-0.793457,-5.981445
12643,-0.076904,-0.086060,0.955200,-0.427246,-0.427246,-6.530762
12653,-0.052246,-0.056396,0.973145,-0.427246,-0.488281,-6.652832
12663,-0.002686,-0.161865,0.924316,-0.244141,-0.244141,-6.713867
12673,0.069092,-0.164307,1.027344,-0.061035,0.122070,-6.713867
12683,0.005249,-0.150269,1.077148,0.061035,-0.427246,-7.385254
12693,0.014282,-0.194702,1.114380,0.732422,-0.854492,-8.178711
12703,-0.039795,-0.292236,0.920410,1.525879,-0.976562,-9.582520
12712,0.054321,-0.172729,1.106201,1.953125,-0.427246,-10.925293
12724,0.109497,-0.101074,1.094971,1.892090,-0.244141,-12.695313
12733,0.135254,-0.303101,1.019409,1.770020,-0.610352,-13.793945
12743,0.176147,-0.083008,1.117432,1.831055,-1.281738,-14.953613
12753,0.131348,-0.073608,1.169434,2.319336,-2.258301,-15.686035
12763,0.048706,-0.296387,0.947021,2.807617,-2.868652,-16.906738
12773,0.125244,0.055176,1.111206,2.685547,-2.014160,-17.395020
12783,0.097534,-0.216675,0.958008,2.868652,-1.647949,-17.028809
12794,0.048462,-0.058228,0.991577,2.868652,-1.403809,-15.075684
12803,-0.009888,-0.087036,0.907227,2.807617,-0.549316,-12.817383
12813,-0.025635,-0.123779,0.956909,2.136230,0.244141,-10.559082
12823,-0.084229,-0.156616,0.999878,1.403809,0.915527,-8.850098
12833,-0.126343,-0.057495,0.993042,0.854492,1.586914,-7.446289
12843,-0.119751,-0.005005,0.985474,0.671387,2.258301,-6.225586
12853,-0.156616,-0.214722,0.895142,0.610352,2.929688,-4.638672
12864,-0.210327,-0.276367,0.821289,0.488281,5.126953,-0.976562
12874,-0.132690,-0.223145,0.814331,-0.366211,6.103516,0.915527
12883,-0.151001,-0.120972,0.834595,-1.098633,6.774902,2.624512
12893,-0.085693,-0.098267,1.028442,-1.464844,7.141113,4.089355
12903,-0.068359,-0.295532,0.934937,-1.281738,7.263184,5.310059
12913,-0.023926,-0.098511,1.022827,-0.915527,7.873535,6.408691
12924,-0.024536,-0.311401,1.027100,-0.183105,7.934570,7.629395
12934,-0.021362,-0.103516,1.119019,-0.122070,7.446289,7.385254
12944,0.033081,-0.262085,1.006348,-0.061035,7.141113,6.652832
12953,-0.017822,-0.326416,0.930054,0.122070,6.896973,5.676270
12963,-0.019287,-0.166382,1.065796,0.000000,6.835937,4.455566
12973,-0.002197,-0.309326,0.966675,0.305176,6.652832,2.746582
12983,0.028687,-0.301147,0.888062,0.610352,5.798340,0.549316
12994,0.101685,-0.177124,1.086548,1.281738,3.601074,-3.295898
13004,0.166504,-0.177856,0.982666,1.220703,2.441406,-5.065918
13014,0.254761,-0.270386,1.123901,1.525879,0.976562,-5.737305
13023,0.229004,-0.551147,0.901001,1.098633,0.854492,-6.042480
13033,0.209595,-0.143188,0.981079,-0.366211,0.549316,-6.286621
13043,0.178101,-0.219116,0.883545,-0.732422,0.183105,-6.408691
13053,0.155029,-0.320068,0.770142,-1.220703,0.610352,-6.408691
13063,0.113525,-0.187500,0.923462,-1.831055,0.488281,-5.920410
13074,0.061401,0.010132,1.034668,-4.516602,-0.549316,-6.469727
13084,0.101074,-0.096069,1.032837,-5.126953,-1.037598,-6.286621
13093,0.035400,-0.238281,0.943237,-5.004883,-0.671387,-5.676270
13103,0.076538,0.164062,1.028687,-5.065918,-0.183105,-5.249023
13114,0.085693,-0.105713,0.880493,-4.882812,-0.061035,-4.394531
13123,0.077759,-0.036743,0.912476,-5.249023,-0.183105,-3.784180
13133,0.117188,-0.078369,0.947144,-5.615234,-0.488281,-2.929688
13145,0.064209,0.104614,0.991699,-6.286621,-0.915527,-2.319336
13154,0.059814,-0.205444,0.898682,-6.408691,-1.159668,-1.220703
13163,0.029053,0.069580,0.997925,-6.958008,-0.915527,-0.793457
13173,0.007813,0.118286,1.081177,-6.774902,-0.549316,-0.427246
13184,-0.030029,-0.084473,0.913818,-6.286621,0.122070,0.427246
13193,0.011353,0.104614,1.061523,-5.615234,-0.061035,1.098633
13204,0.004883,-0.131226,0.972656,-4.699707,-0.732422,1.892090
13214,0.004028,0.052002,1.104858,-4.089355,-1.037598,2.441406
13223,-0.021240,-0.282593,0.973511,-3.540039,-0.793457,2.990723
13233,-0.054687,-0.082764,1.000122,-3.784180,-0.549316,3.723145
13243,-0.024048,-0.064453,1.057617,-4.028320,-0.427246,4.211426
13253,-0.048706,-0.305054,1.006104,-3.845215,0.549316,4.516602
13262,-0.046631,-0.080444,1.107788,-4.028320,0.061035,4.638672
13275,-0.023193,-0.148682,1.055542,-3.540039,-0.244141,4.394531
13285,-0.048706,-0.066406,1.037231,-3.112793,-0.427246,4.089355
13294,-0.054443,-0.168823,1.060181,-2.746582,-0.122070,3.479004
13304,-0.050293,-0.191284,0.950439,-3.173828,0.244141,3.417969
13313,-0.018799,-0.014160,1.007568,-3.784180,0.488281,3.051758
13323,-0.036865,-0.204224,0.825806,-4.089355,-0.244141,2.441406
13333,-0.002808,0.018066,0.956665,-5.004883,-0.305176,2.197266
13343,-0.002197,-0.118774,0.874023,-5.859375,0.122070,2.746582
13354,0.002930,-0.055542,1.039063,-5.920410,-0.183105,3.051758
13364,-0.000244,-0.254272,0.968872,-5.126953,0.183105,3.234863
13373,0.066895,0.053345,1.066772,-4.638672,-0.122070,3.356934
13383,0.070435,-0.039673,1.047241,-3.723145,-0.183105,3.601074
13393,0.047119,-0.219971,0.949463,-2.319336,-1.342773,3.662109
13403,0.025146,-0.084961,1.146973,-1.098633,-1.647949,3.234863
13415,-0.008911,-0.322876,1.008545,0.305176,-1.708984,2.868652
13425,0.036133,-0.061157,0.922607,1.159668,-1.770020,2.319336
13434,0.095947,-0.068726,1.016235,1.953125,-2.014160,2.075195
13444,0.055176,-0.298828,1.026123,2.563477,-1.953125,1.403809
13453,0.093872,-0.125732,0.960205,2.807617,-3.356934,-0.244141
13463,0.091309,-0.060059,0.892090,3.234863,-3.601074,-1.220703
13473,0.058960,-0.335327,0.830933,3.051758,-3.540039,-2.014160
13485,0.015381,0.107666,1.081543,1.159668,-4.455566,-5.371094
13495,0.027100,-0.110840,0.993896,1.281738,-4.333496,-6.591797
13504,0.027954,-0.114014,0.960205,1.892090,-4.516602,-7.690430
13514,0.034668,-0.006592,1.112061,2.563477,-4.882812,-8.789063
13523,-0.026001,-0.143311,1.063843,2.868652,-5.065918,-9.704590
13533,-0.051636,-0.281250,1.095581,2.868652,-4.638672,-10.253906
13543,-0.029419,-0.099121,1.153442,2.563477,-4.211426,-10.437012
13553,-0.032837,-0.080078,1.145874,2.441406,-3.479004,-9.521484
13563,-0.110107,-0.173706,1.024414,2.807617,-1.708984,-8.300781
13573,-0.075562,-0.135864,1.014404,2.807617,-0.183105,-7.141113
13583,-0.090942,-0.271973,0.954346,2.685547,0.549316,-5.493164
13593,-0.100464,-0.339966,0.865723,1.586914,1.708984,-4.028320
13603,-0.057861,-0.087158,0.913818,0.061035,1.342773,-2.746582
13613,-0.031616,-0.270508,0.896851,-0.366211,1.708984,-1.037598
13623,-0.065063,-0.076538,0.842529,-0.366211,2.563477,0.610352
13634,-0.068359,-0.208618,0.989990,-0.244141,3.479004,3.906250
13644,-0.140869,-0.117065,0.996216,0.427246,3.845215,5.004883
13654,-0.169189,0.106201,1.057617,1.647949,3.967285,6.164551
13663,-0.196899,-0.116699,0.989990,2.502441,5.187988,7.080078
13673,-0.249146,-0.335815,0.848022,2.258301,5.187988,7.141113
13682,-0.237183,-0.137207,0.924561,2.136230,6.835937,6.774902
13694,-0.188477,0.034058,1.056885,0.793457,6.713867,6.347656
13704,-0.197632,-0.161011,0.839478,0.183105,6.591797,5.493164
13713,-0.112427,0.077881,0.970703,-0.549316,6.713867,4.760742
13723,-0.073242,-0.163452,0.885864,-0.671387,7.446289,4.211426
13732,-0.012817,-0.174927,0.812866,-1.342773,7.385254,3.173828
13743,0.086792,0.081665,0.979126,-2.441406,6.958008,2.136230
13753,0.106079,-0.260376,0.782837,-3.112793,6.103516,1.342773
13764,0.120117,-0.097656,0.867920,-4.028320,5.737305,0.000000
13774,0.099365,-0.177246,0.974487,-4.333496,5.554199,-0.122070
13783,0.048950,0.019775,1.073975,-3.906250,5.676270,-1.098633
13793,0.053467,-0.146973,1.067871,-3.723145,4.882812,-2.136230
13803,-0.028320,-0.311890,0.957275,-3.662109,4.577637,-3.295898
13813,-0.015991,-0.030518,1.077881,-3.906250,5.004883,-4.028320
13823,-0.047974,-0.158691,1.118286,-4.089355,5.310059,-4.394531
13833,-0.081299,-0.217896,0.997314,-4.394531,4.821777,-3.906250
13844,0.008057,0.104248,1.262451,-3.662109,7.202148,-2.380371
13854,0.005981,-0.222778,1.045044,-3.112793,7.324219,-0.976562
13864,0.016846,-0.221069,0.942383,-3.234863,7.080078,0.488281
13874,-0.036743,0.113281,1.067261,-3.601074,6.774902,1.586914
13883,-0.043335,-0.066162,0.997559,-3.662109,7.324219,3.601074
13893,-0.045166,-0.244751,0.966919,-3.479004,8.483887,5.798340
13902,-0.041138,0.102173,1.097778,-3.173828,8.483887,7.995605
13914,-0.061279,-0.396118,0.790283,-2.563477,8.666992,10.620117
13923,-0.042114,-0.197266,0.836914,-2.136230,8.056641,11.047363
13933,0.009644,-0.197266,0.853394,-2.807617,8.422852,11.169434
13943,0.000610,-0.250244,0.804810,-3.601074,8.300781,11.169434
13953,0.040283,-0.219482,0.950562,-4.150391,7.629395,10.925293
13963,0.001953,-0.236572,0.957520,-4.394531,7.385254,10.620117
13973,-0.039307,-0.153198,0.921875,-4.394531,7.019043,9.948730
13984,-0.018555,-0.114258,0.981079,-5.065918,6.469727,7.202148
13994,-0.038818,-0.103149,0.954712,-5.065918,6.408691,6.286621
14004,0.037476,0.029175,1.011841,-4.638672,7.080078,5.798340
14013,0.072388,-0.091919,0.961426,-3.845215,6.896973,6.164551
14022,0.089600,-0.308105,0.913086,-3.417969,6.835937,6.774902
14033,0.065308,0.037109,1.084473,-3.356934,6.347656,7.690430
14042,0.078369,0.045898,1.136597,-2.563477,6.225586,9.216309
14054,0.048096,-0.226318,0.978760,-1.159668,5.920410,11.230469
14063,0.081909,-0.003296,1.123657,0.549316,6.225586,11.779785
14072,0.045166,-0.231201,1.087524,1.159668,5.371094,11.840820
14083,0.064209,-0.327271,1.039063,2.075195,4.943848,11.291504
14093,0.039551,-0.308594,1.053223,2.563477,3.906250,10.681152
14103,0.032104,-0.146484,0.991699,2.624512,3.723145,10.070801
14114,0.070557,-0.124268,1.025269,1.342773,2.441406,8.544922
14124,0.074585,-0.301514,0.925781,0.915527,2.075195,7.873535
14133,0.067017,-0.100342,0.976440,0.244141,1.586914,7.446289
14143,0.116089,-0.070801,0.982178,-0.549316,1.647949,6.958008
14153,0.084595,-0.209717,1.015381,-1.098633,1.220703,6.774902
14163,0.059082,-0.135986,1.073975,-1.770020,1.831055,6.469727
14173,0.065552,0.004517,1.101440,-2.319336,0.854492,6.286621
14183,0.060547,-0.024048,1.112915,-2.136230,0.427246,6.225586
14194,0.036743,-0.058838,1.009644,-1.525879,-0.183105,6.652832
14204,0.037842,0.017212,1.011353,-1.647949,-0.305176,6.958008
14213,0.032837,0.087769,1.069336,-1.708984,0.000000,7.690430
14223,0.012329,-0.034546,0.969604,-1.831055,0.671387,8.178711
14233,-0.053467,-0.063599,0.884888,-1.403809,1.037598,9.094238
14243,-0.055542,0.116211,0.916260,-0.610352,1.892090,10.009766
14255,-0.013794,-0.153076,1.056396,0.549316,1.464844,10.742188
14265,-0.050537,-0.192139,0.999634,0.915527,0.915527,10.253906
14274,-0.032837,-0.126343,0.990845,1.403809,0.671387,10.559082
14284,0.031738,-0.074097,0.950562,2.258301,1.159668,11.047363
14293,0.046021,-0.253052,0.851196,2.502441,0.854492,11.169434
14303,0.059448,-0.298828,0.818115,2.319336,1.037598,11.108398
14313,0.059570,-0.175171,0.864136,1.464844,0.976562,10.742188
14323,0.025391,-0.169189,0.885254,0.976562,-0.183105,9.704590
14334,0.063965,-0.089478,0.942505,0.000000,-0.671387,9.094238
14344,0.068359,-0.117554,1.061157,0.244141,-0.976562,8.605957
14353,0.099609,-0.136963,1.116333,-0.061035,-1.342773,8.361816
14363,0.119507,-0.087036,1.131592,-0.183105,-2.258301,8.239746
14373,0.123291,-0.102295,1.086304,0.244141,-2.380371,8.361816
14383,0.143677,0.060059,1.053345,0.305176,-2.624512,8.239746
14393,0.151733,0.031250,1.061890,0.122070,-3.601074,7.690430
14404,0.072754,-0.159058,0.874878,-0.488281,-4.821777,7.141113
14414,0.055542,0.059082,0.999390,-1.159668,-4.577637,6.652832
14424,0.023193,-0.013672,0.944092,-1.647949,-4.272461,6.713867
14433,-0.037964,-0.286987,0.850830,-1.647949,-4.150391,6.469727
14443,-0.042236,-0.126953,0.880249,-2.441406,-3.845215,6.591797
14453,-0.036499,-0.076538,1.039307,-3.051758,-3.906250,7.019043
14465,-0.028320,-0.088135,1.053101,-3.723145,-3.295898,9.277344
14475,0.010986,0.055298,1.087402,-3.479004,-3.051758,10.559082
14485,0.028320,-0.170776,1.053467,-3.234863,-3.356934,11.047363
14495,-0.005005,-0.330933,0.888428,-3.112793,-3.356934,11.230469
14504,-0.017090,-0.196167,0.991943,-3.417969,-3.479004,10.803223
14514,0.016724,0.059448,1.075195,-3.356934,-3.906250,10.131836
14523,-0.033936,-0.095093,1.045532,-3.112793,-4.333496,9.521484
14533,-0.073608,-0.349121,0.918091,-2.502441,-4.577637,8.117676
14543,-0.080566,-0.374756,0.973267,-2.502441,-3.845215,7.446289
14553,-0.075806,-0.035400,1.104126,-2.441406,-3.967285,6.958008
14563,-0.078247,-0.132812,1.015503,-2.136230,-3.601074,6.591797
14573,-0.039185,-0.171143,0.987427,-2.075195,-2.624512,6.774902
14583,-0.073730,-0.179687,0.982178,-1.647949,-2.197266,6.774902
14592,-0.038086,-0.124756,0.993164,-1.770020,-2.258301,6.286621
14604,-0.093994,-0.133423,1.020996,-1.770020,-2.258301,5.676270
14613,0.014404,-0.142944,0.963501,-1.098633,-1.831055,5.615234
14623,-0.003540,-0.289551,0.962402,-0.549316,-2.136230,5.371094
14633,0.021362,-0.293213,0.927612,-0.732422,-2.563477,4.821777
14643,0.007324,-0.240845,0.901123,-1.342773,-2.441406,4.272461
14653,0.007935,-0.084473,0.967163,-1.892090,-3.051758,3.967285
14663,0.092773,0.050781,1.012207,-2.136230,-2.685547,3.479004
14675,0.088623,-0.140015,1.006714,-2.136230,-2.685547,3.417969
14685,0.032104,-0.112305,0.995728,-1.464844,-3.417969,2.929688
14694,0.039673,-0.007080,1.026123,-1.525879,-4.028320,2.868652
14704,-0.019653,0.055420,1.018799,-1.159668,-3.417969,2.441406
14713,0.010864,-0.060059,0.993286,-1.037598,-3.051758,1.953125
14723,-0.007935,-0.191650,0.934937,-0.976562,-4.028320,1.953125
14733,-0.044067,-0.110352,0.946777,-0.549316,-3.112793,1.953125
14743,-0.029785,-0.045410,0.962769,-0.305176,-3.295898,2.319336
14753,-0.018677,-0.140869,0.898682,-0.732422,-2.014160,2.624512
14763,0.021484,-0.101685,0.894409,-1.708984,-2.136230,2.685547
14773,0.049805,0.003662,0.973022,-2.380371,-1.892090,2.258301
14783,0.016846,-0.094604,0.949829,-2.502441,-2.563477,2.136230
14793,0.018066,-0.045776,1.066528,-2.441406,-2.136230,1.281738
14803,0.014160,0.000732,1.136597,-2.319336,-2.929688,0.732422
14813,0.061279,-0.048462,1.118286,-1.831055,-2.929688,-0.305176
14824,0.040283,-0.291870,0.897705,-1.281738,-2.685547,-0.549316
14834,0.043945,-0.201416,0.869263,-1.464844,-2.380371,-0.488281
14843,0.077515,0.056519,0.954346,-2.014160,-1.770020,-0.305176
14853,0.049805,0.019043,0.968628,-2.624512,-2.868652,-0.427246
14863,0.023071,-0.092163,1.003662,-2.868652,-2.685547,-0.793457
14873,0.020630,-0.087891,1.023438,-2.868652,-2.685547,-1.098633
14883,0.022827,-0.025391,1.045288,-2.502441,-2.685547,-2.014160
14893,0.023682,0.016113,1.167603,-2.319336,-2.563477,-2.319336
14902,-0.008789,-0.009888,1.128540,-1.892090,-2.319336,-2.685547
14913,-0.032471,-0.026123,1.145508,-0.793457,-1.708984,-2.929688
14923,0.002197,-0.116211,1.033325,0.000000,-3.173828,-2.685547
14932,0.004150,-0.074341,1.022583,1.220703,-1.647949,-2.258301
14942,0.055786,-0.062134,1.061890,1.159668,-1.953125,-2.136230
14955,0.105103,-0.145020,0.942749,1.220703,-1.647949,-3.051758
14965,0.098511,-0.061523,0.946533,0.976562,-2.746582,-3.295898
14974,0.127686,-0.092041,0.930420,1.098633,-2.746582,-3.417969
14984,0.047241,-0.205322,0.914429,1.159668,-2.624512,-3.601074
14993,0.045288,-0.115601,1.012085,0.610352,-2.746582,-3.662109
15003,0.036743,-0.068970,1.069092,0.305176,-2.807617,-3.662109
15012,0.000977,-0.090332,1.048096,0.915527,-1.220703,-3.601074
15025,-0.032471,-0.118164,0.969727,2.197266,-0.915527,-3.601074
15035,-0.003662,-0.063721,0.984863,2.990723,-1.037598,-3.417969
15045,0.015869,-0.046753,0.977783,2.563477,-2.502441,-2.868652
15054,0.004761,-0.214966,0.828491,3.295898,0.854492,-2.258301
15064,-0.007568,-0.247437,0.714844,2.746582,-0.061035,-1.098633
15073,-0.019409,-0.141724,0.810425,2.014160,-0.305176,0.305176
15083,-0.038086,-0.140869,0.831055,0.549316,0.610352,1.770020
15095,-0.090698,-0.039551,1.010254,-1.525879,1.831055,4.516602
15105,-0.118408,0.030396,1.086426,-1.953125,1.342773,5.676270
15114,-0.116211,0.036499,1.073486,-1.647949,1.708984,6.591797
15124,-0.083618,-0.051147,1.031616,-0.488281,3.784180,7.568359
15133,-0.077148,-0.091797,1.030151,-0.122070,1.831055,8.544922
15143,-0.013062,-0.052734,1.031372,0.305176,2.929688,9.277344
15153,-0.041260,-0.073120,1.010376,0.488281,4.150391,9.582520
15163,0.016235,-0.090942,1.035034,0.244141,4.089355,10.620117
15174,0.047974,-0.079346,1.100098,0.122070,2.441406,10.803223
15184,0.010742,-0.171387,1.121826,0.427246,2.807617,10.742188
15193,-0.009277,-0.206909,1.125122,0.061035,2.380371,10.620117
15203,-0.025391,-0.177979,1.137329,-0.061035,1.586914,10.437012
15212,-0.003540,-0.082397,1.094971,0.244141,1.647949,10.253906
15223,0.010986,-0.005127,1.098022,0.244141,1.525879,10.192871
15235,0.008301,-0.129272,0.976440,0.366211,1.159668,9.094238
15245,-0.021973,-0.202637,0.874756,-0.183105,1.464844,8.666992
15255,-0.014526,-0.085693,0.885254,-0.732422,0.610352,7.568359
15264,0.036133,-0.081421,0.924072,-1.403809,0.732422,6.774902
15274,0.028442,-0.208496,0.846558,-2.258301,0.976562,5.737305
15283,0.031616,-0.131226,0.925903,-3.112793,0.244141,5.065918
15293,0.026611,-0.157959,0.928223,-3.784180,0.122070,4.333496
15302,0.019165,-0.207275,0.894165,-4.211426,0.000000,3.784180
15314,0.038330,0.122925,1.163696,-4.882812,-0.244141,3.295898
15323,0.011353,-0.098022,1.010742,-4.455566,-0.366211,2.746582
15333,-0.005127,-0.174072,0.900879,-3.601074,-0.610352,2.441406
15343,0.008179,0.064087,0.940674,-3.051758,-0.671387,2.136230
15353,0.036499,-0.105469,0.868286,-2.685547,-0.976562,1.953125
15362,0.020630,-0.245728,0.772217,-2.441406,-0.244141,2.136230
15375,0.049927,-0.077881,0.912598,-2.441406,-0.183105,2.502441
15385,0.078125,-0.211548,0.919678,-2.136230,-0.549316,2.746582
15394,0.040771,-0.131348,0.956055,-1.525879,1.403809,2.502441
15404,0.070190,-0.088257,0.980713,-1.831055,-1.464844,2.014160
15413,0.044678,-0.196533,0.994141,-2.380371,-1.403809,2.197266
15423,0.038940,-0.111328,1.008301,-2.258301,-0.915527,1.953125
15432,0.063599,0.004150,1.042358,-1.953125,-1.342773,1.647949
15444,0.060791,-0.118774,1.019897,-0.793457,-0.976562,1.831055
15453,0.040771,-0.156006,1.032593,-1.098633,-1.281738,1.708984
15463,0.031128,-0.062378,1.148315,-1.586914,-1.525879,1.647949
15473,0.019531,-0.091675,1.095947,-2.136230,-1.647949,1.708984
15483,0.018921,-0.160889,1.054688,-2.197266,-2.502441,1.464844
15493,0.011597,-0.133667,1.028564,-2.319336,-2.197266,1.586914
15502,0.033691,-0.085449,1.087891,-2.746582,-1.525879,1.342773
15514,0.045288,-0.187622,1.067505,-3.723145,-1.953125,-0.244141
15524,0.024170,0.007202,1.004272,-3.845215,-2.136230,-1.281738
15533,0.037842,0.001099,1.000732,-3.906250,-2.319336,-2.014160
15543,0.027222,-0.133789,0.926514,-3.662109,-2.502441,-2.685547
15552,0.018921,-0.090454,0.913696,-3.356934,-1.586914,-3.479004
15562,0.021240,0.090820,1.012817,-3.479004,-1.525879,-3.540039
15573,-0.001831,-0.052979,0.980835,-2.990723,-1.159668,-2.990723
15583,-0.005005,-0.242310,0.807739,-2.502441,-1.037598,-2.075195
15593,0.003906,-0.068115,0.918213,-2.441406,-0.976562,-1.525879
15602,-0.020386,-0.295654,0.913818,-2.441406,-0.610352,-0.854492
15613,-0.062134,-0.167603,1.004761,-2.746582,-0.671387,-0.488281
15623,-0.076416,-0.628418,0.978882,-2.441406,-0.549316,0.000000
15633,-0.093994,0.044434,1.134033,-5.004883,-0.427246,0.000000
15643,0.009521,-0.045532,0.890625,-8.666992,1.403809,1.403809
15653,-0.057129,-0.718262,-0.595459,-8.239746,-0.122070,0.793457
15664,0.081665,0.202515,0.410156,-14.404297,0.732422,1.464844
15674,-0.086182,0.094360,0.077881,-18.615723,-1.220703,-2.075195
15683,-0.062134,0.521729,0.395996,-23.986816,-1.037598,-3.479004
15693,-0.064453,0.708984,0.917480,-25.146484,1.464844,-1.770020
15703,-0.001099,0.448975,0.828369,-24.902344,1.159668,-1.220703
15713,-0.062012,0.418823,0.661743,-27.465820,1.220703,0.000000
15723,0.037598,1.039795,0.913330,-31.921387,2.868652,3.906250
15733,0.089111,0.956787,1.172974,-28.503418,2.441406,4.577637
15743,0.029053,0.385132,1.414307,-25.390625,6.958008,4.516602
15753,0.045044,0.624390,1.488647,-25.390625,2.380371,4.577637
15763,0.142090,0.475586,1.360840,-21.484375,1.953125,5.676270
15774,0.250244,0.605347,1.821899,-17.211914,1.708984,8.300781
15783,0.105347,0.665527,1.894897,-14.038086,3.051758,11.352539
15793,-0.066284,0.010376,0.829468,-8.728027,3.662109,13.244629
15804,-0.000366,0.402344,1.631104,-9.643555,3.051758,13.427734
15813,-0.191772,0.629517,1.273315,-13.854980,0.488281,13.122559
15823,-0.178223,0.837036,0.807129,-15.014648,1.098633,12.939453
15833,-0.117065,0.462036,0.708618,-10.681152,5.004883,14.892578
15843,0.018066,0.421509,1.662842,-6.042480,6.103516,15.502930
15853,-0.149414,0.227295,1.856445,-4.028320,4.577637,14.038086
15865,0.027100,0.142090,0.800049,-1.281738,1.647949,8.972168
15875,0.249268,-0.111328,0.832275,0.000000,3.479004,8.544922
15884,0.086670,0.416138,1.511108,-2.258301,2.258301,8.728027
15894,-0.138184,0.728882,1.319092,-3.967285,0.122070,8.666992
15903,-0.151001,0.320190,0.341675,-3.234863,0.366211,9.582520
15913,0.163940,0.301758,0.615479,-2.685547,2.319336,10.803223
15923,0.188965,0.621948,1.398682,-4.150391,2.319336,11.962891
15933,-0.163940,0.803223,1.394409,-5.371094,1.342773,12.634277
15943,-0.182251,0.506348,0.710571,0.427246,2.746582,11.718750
15953,0.294556,0.473877,1.000610,-0.183105,2.441406,10.620117
15963,0.023560,0.764648,1.370605,-4.394531,0.427246,9.399414
15973,-0.134033,0.781372,0.865845,-7.202148,-0.549316,8.422852
15983,-0.063965,0.584351,0.352661,-5.737305,0.122070,7.751465
15993,0.182495,0.524536,0.628906,-3.784180,1.586914,7.385254
16003,0.098999,0.679932,1.222290,-4.577637,-15.197754,7.507324
16014,-0.091797,0.592896,0.754272,-5.920410,0.854492,7.080078
16024,0.070923,0.567139,0.632324,-4.516602,2.502441,6.713867
16033,0.266602,0.611450,1.095093,-3.540039,1.953125,5.981445
16043,-0.047485,0.484619,1.278809,-3.906250,-0.854492,5.126953
16053,-0.073975,0.449219,1.048950,-4.211426,-1.281738,3.723145
16063,0.030640,0.554932,0.795044,-4.394531,-0.427246,2.685547
16073,0.247437,0.708130,0.932861,-4.089355,-14.953613,2.990723
16084,-0.055664,0.368896,1.214966,-2.197266,-1.037598,3.051758
16094,0.022339,0.189087,0.944580,-1.525879,-0.610352,2.441406
16103,0.128418,0.491333,0.861816,-2.685547,-0.671387,1.831055
16113,0.062744,0.817017,1.056519,-3.479004,-1.281738,1.342773
16123,-0.074219,0.629761,0.927612,-2.990723,-0.732422,1.831055
16133,-0.057617,0.486450,0.883789,-2.258301,0.122070,1.525879
16145,0.105225,0.647095,1.118286,-2.563477,-0.366211,-1.525879
16155,-0.008179,0.776001,1.109741,-3.051758,-1.892090,-2.929688
16165,-0.000610,0.448364,0.814087,-0.793457,-1.342773,-3.356934
16174,0.121948,0.481201,0.958252,0.854492,-0.122070,-3.723145
16184,0.164307,0.542114,1.086670,1.281738,-0.915527,-4.089355
16193,0.082153,0.348267,1.035156,0.671387,-1.770020,-3.967285
16203,0.077759,0.334473,0.893555,-0.610352,-1.831055,-3.784180
16215,0.122681,0.802002,1.072266,-3.051758,-1.892090,-4.882812
16225,-0.028442,0.836792,1.160400,-3.784180,-2.502441,-6.408691
16235,-0.021729,0.633179,1.026611,-2.319336,-2.929688,-8.056641
16244,0.028687,0.545654,0.892334,-1.159668,-2.502441,-9.704590
16254,0.133911,0.776245,0.972900,-2.319336,-2.441406,-11.108398
16263,0.084595,0.836670,1.116577,-2.807617,-2.929688,-11.718750
16273,0.028198,0.635132,1.091431,-2.380371,-2.929688,-11.779785
16285,0.063965,0.626953,0.927979,-2.258301,-2.380371,-12.084961
16295,0.046997,0.750122,1.070068,-2.563477,-2.868652,-11.779785
16304,-0.048340,0.690918,1.146484,-2.624512,-3.356934,-11.169434
16314,-0.114136,0.552734,1.024780,-1.708984,-2.197266,-10.375977
16324,-0.077271,0.526123,0.932373,-0.976562,-0.671387,-8.972168
16333,-0.018799,0.619263,0.979492,-1.342773,-0.671387,-7.507324
16343,-0.022827,0.650269,1.001465,-1.525879,-0.549316,-5.981445
16356,-0.056763,0.489990,0.888916,-0.122070,2.075195,-1.159668
16365,-0.018188,0.447876,1.051758,1.159668,2.563477,0.793457
16374,-0.111694,0.535156,1.121460,1.647949,2.014160,1.647949
16384,-0.127563,0.386108,1.026978,2.990723,2.624512,2.258301
16393,-0.029907,0.233398,0.961182,5.249023,3.234863,3.234863
16404,0.151489,0.227539,0.940552,6.530762,4.516602,4.699707
16413,0.146851,0.167969,0.990967,6.469727,4.333496,7.141113
16425,0.086060,-0.273438,1.062378,6.958008,5.493164,12.756348
16435,0.145996,-0.503052,1.102173,8.422852,6.347656,13.793945
16444,0.160034,-0.520996,1.116821,8.544922,6.408691,12.817383
16454,0.049438,-0.377441,0.999390,6.896973,4.211426,9.887695
16463,-0.033203,-0.235352,0.905029,5.615234,2.441406,5.004883
16473,-0.038818,-0.104736,0.865967,5.554199,0.671387,-0.793457
16484,-0.011963,-0.041748,0.937988,5.554199,0.488281,-5.310059
16493,-0.011475,-0.002686,1.013550,5.371094,2.075195,-10.192871
16504,0.071655,0.102295,1.104126,4.333496,1.892090,-11.535645
16514,0.080811,0.159302,1.140381,4.882812,2.197266,-12.634277
16523,0.160767,0.229980,1.594727,5.676270,1.220703,-13.183594
16533,0.257935,0.154419,1.999512,6.958008,-0.427246,-14.587402
16543,0.112305,0.060303,1.492676,8.789063,-2.624512,-17.395020
16553,0.298462,0.519165,1.835449,10.192871,-4.272461,-19.714355
16565,0.072876,0.242310,0.985474,12.695313,-4.577637,-13.732910
16574,0.219360,0.067749,0.939453,16.052246,-2.868652,-10.437012
16584,0.336914,-0.083008,1.064209,16.967773,-3.967285,-9.521484
16593,0.283569,0.235840,1.117676,15.808105,-6.164551,-11.718750
16604,0.206543,-0.118530,1.058350,15.136719,-7.507324,-12.145996
16613,0.015991,-0.400757,0.882568,14.282227,-5.981445,-10.864258
16623,-0.006104,0.087158,0.899658,12.939453,-3.845215,-8.300781
16636,-0.023071,-0.292725,0.807129,16.052246,-1.892090,-5.554199
16645,-0.080200,-0.466797,0.982544,17.700195,-2.441406,-5.371094
16655,-0.105347,-0.664429,0.908813,19.287109,-3.112793,-5.493164
16664,-0.132202,-0.687256,0.765503,19.042969,-3.112793,-5.249023
16674,-0.164062,-0.511108,0.606323,17.211914,-2.258301,-3.845215
16683,-0.190674,-0.292358,0.399414,14.465332,-1.342773,-1.464844
16693,-0.150391,-0.136230,0.320190,11.901855,-0.183105,1.220703
16705,-0.034180,-0.151001,0.548706,5.676270,1.586914,6.347656
16715,-0.013672,0.021362,0.724976,2.136230,2.319336,8.361816
16724,-0.008057,-0.070923,0.924683,1.892090,2.990723,10.375977
16734,-0.023437,-0.278198,0.963623,3.112793,3.112793,10.681152
16743,0.055542,-0.228271,0.966309,2.685547,2.929688,10.131836
16754,0.026123,-0.220703,0.946777,2.746582,2.197266,9.765625
16763,0.015015,-0.248291,0.933838,3.356934,1.525879,8.850098
16775,-0.061157,-0.176147,0.836914,1.586914,1.464844,8.544922
16785,-0.080078,-0.267578,0.896362,1.342773,2.380371,9.033203
16794,-0.027832,-0.268188,0.932861,0.976562,2.868652,9.094238
16804,0.027588,-0.260132,0.966675,-0.061035,3.417969,9.155273
16813,0.054077,-0.312134,0.989746,-0.244141,3.173828,8.666992
16824,0.071655,-0.303223,0.980469,-0.793457,2.807617,7.873535
16833,0.053223,-0.234741,0.968506,-1.770020,2.502441,7.568359
16843,0.047852,-0.209961,0.988525,-1.831055,2.624512,6.652832
16854,0.113403,-0.162109,0.964966,-2.441406,3.051758,5.981445
16864,0.099121,-0.166016,0.957397,-2.868652,2.319336,5.676270
16873,0.082031,-0.179443,0.985107,-3.051758,2.197266,5.371094
16883,0.078003,-0.167969,1.012817,-3.479004,2.136230,5.554199
16894,0.078003,-0.175171,1.015625,-3.601074,1.770020,5.615234
16903,0.070312,-0.175659,1.016357,-3.356934,2.075195,5.554199
16915,0.022705,-0.104736,0.956055,-3.845215,1.342773,5.126953
16925,0.009521,-0.099121,0.958740,-3.784180,1.281738,4.821777
16934,0.010742,-0.081055,0.971680,-3.845215,1.586914,4.699707
16944,0.015015,-0.083252,0.982056,-3.967285,1.892090,4.760742
16954,0.026733,-0.100220,0.985229,-3.662109,1.647949,4.638672
16963,0.045044,-0.104492,0.991821,-3.601074,1.342773,4.394531
16973,0.053589,-0.097656,0.997192,-3.723145,0.915527,4.333496
16986,0.069458,-0.105103,0.950317,-3.295898,1.281738,5.004883
16995,0.072876,-0.107544,0.902222,-3.723145,1.464844,5.432129
17004,0.076050,-0.135986,0.862061,-3.662109,2.014160,5.737305
17014,0.075317,-0.146729,0.834351,-3.723145,1.647949,6.103516
17023,0.064697,-0.131592,0.873901,-4.150391,1.892090,6.530762
17034,0.052612,-0.133789,0.935181,-4.821777,2.014160,6.591797
17043,0.062378,-0.176636,0.980469,-4.760742,2.136230,6.103516
17055,0.083252,-0.180908,1.006348,-4.760742,1.220703,3.173828
17065,0.083496,-0.145874,0.979980,-4.638672,0.427246,1.770020
17075,0.095337,-0.098267,0.959595,-4.699707,-0.244141,0.366211
17084,0.105957,-0.061401,0.963501,-4.882812,-0.793457,-0.671387
17094,0.117798,-0.050903,0.974243,-5.065918,-1.037598,-1.647949
17103,0.110718,-0.065308,0.984741,-4.943848,-1.098633,-2.136230
17113,0.107544,-0.083496,1.004272,-4.882812,-1.342773,-2.136230
17126,0.111450,-0.079468,1.065796,-5.004883,-1.831055,-1.892090
17135,0.104858,-0.061523,1.076050,-4.638672,-1.403809,-2.014160
17145,0.090576,-0.037720,1.070923,-4.150391,-1.464844,-2.258301
17154,0.072021,-0.011841,1.065918,-4.150391,-1.831055,-2.197266
17164,0.048462,0.003052,1.044312,-3.906250,-1.770020,-2.136230
17173,0.036377,0.006958,1.049927,-3.540039,-1.953125,-1.770020
17183,0.034546,-0.000977,1.058472,-3.417969,-2.258301,-1.342773
17193,0.035645,-0.012451,1.070435,-3.234863,-2.014160,-0.244141
17205,0.030518,-0.028442,1.065918,-2.502441,-1.892090,0.610352
17214,0.027222,-0.024658,1.050659,-2.441406,-1.708984,1.403809
17223,0.015991,-0.016113,1.046387,-2.197266,-1.708984,2.380371
17233,0.003906,-0.008423,1.037476,-1.831055,-1.281738,3.112793
17243,-0.002686,-0.007690,1.021484,-1.647949,-1.403809,3.845215
17254,-0.006348,-0.019653,1.004028,-1.342773,-0.976562,4.516602
17263,0.008301,-0.040283,0.992187,-1.098633,-1.037598,4.638672
17274,0.043457,-0.090698,0.970215,-0.915527,-0.915527,4.699707
17286,0.040405,-0.100464,0.972290,-0.976562,-0.976562,4.882812
17295,0.044312,-0.104980,0.985107,-0.976562,-0.488281,5.371094
17305,0.049805,-0.107544,0.992187,-1.037598,-0.366211,5.981445
17314,0.043579,-0.105103,0.992187,-1.098633,-0.488281,6.225586
17324,0.035156,-0.091309,0.988770,-1.037598,-0.366211,6.225586
17336,0.032593,-0.064575,0.991089,-1.098633,-0.549316,6.103516
17345,0.044067,-0.063843,0.988037,-0.976562,-0.549316,5.798340
17355,0.058350,-0.077026,0.982056,-0.976562,-0.549316,5.310059
17364,0.077026,-0.092651,0.985718,-0.915527,-1.098633,4.882812
17373,0.086914,-0.109497,0.995972,-0.854492,-1.342773,4.455566
17384,0.088501,-0.122070,1.004761,-0.915527,-1.342773,3.967285
17393,0.082397,-0.126221,1.008179,-1.037598,-1.403809,3.540039
17405,0.063599,-0.111450,0.999146,-0.976562,-1.708984,2.746582
17414,0.065308,-0.096313,1.000977,-0.976562,-1.831055,2.563477
17424,0.070923,-0.089478,1.001953,-1.220703,-2.563477,2.014160
17433,0.073364,-0.089722,1.001099,-1.220703,-2.624512,1.220703
17443,0.072754,-0.092285,1.000610,-1.220703,-3.051758,0.732422
17454,0.073608,-0.097412,1.001709,-1.220703,-2.990723,0.732422
17463,0.072388,-0.105469,1.002075,-0.915527,-3.173828,0.488281
17476,0.051147,-0.116211,0.998047,-0.976562,-3.540039,0.122070
17485,0.039063,-0.113037,0.991699,-1.037598,-2.990723,0.000000
17494,0.035767,-0.115723,0.989746,-1.220703,-2.746582,-0.305176
17504,0.039307,-0.122192,0.965942,-1.342773,-3.417969,-0.549316
17513,0.020752,-0.112793,0.991943,-1.281738,-3.540039,-0.915527
17523,0.009033,-0.078491,1.007935,-1.586914,-3.479004,-0.793457
17534,0.010010,-0.102173,0.997070,-1.525879,-3.295898,-0.549316
17543,0.001221,-0.130493,0.988770,-1.281738,-2.807617,-0.122070
17555,-0.015991,-0.086182,0.984009,-1.403809,-2.746582,0.000000
17564,-0.024292,-0.095703,0.957153,-1.525879,-2.746582,0.122070
17574,-0.020996,-0.057495,0.970703,-1.525879,-2.258301,0.366211
17583,-0.012939,-0.002563,0.978271,-1.708984,-2.197266,0.366211
17593,0.005127,-0.035400,0.964233,-1.770020,-1.892090,0.671387
17604,0.017822,-0.061401,0.942871,-1.647949,-1.770020,1.037598
17613,0.040161,-0.047363,0.982056,-1.586914,-1.953125,1.464844
17623,0.030029,-0.036743,0.998291,-1.586914,-1.525879,1.525879
17634,0.022949,-0.076660,1.030396,-1.586914,-1.525879,2.075195
17643,-0.001221,-0.087769,1.026855,-1.464844,-1.708984,2.441406
17653,0.025024,-0.112305,1.007568,-1.098633,-1.281738,2.929688
17664,0.026489,-0.129883,1.010376,-1.159668,-1.281738,3.173828
17673,0.018555,-0.131470,0.996826,-1.159668,-1.647949,3.234863
17685,0.009277,-0.119507,0.981323,-1.220703,-1.831055,3.967285
17695,-0.006958,-0.098022,0.975952,-1.464844,-1.220703,4.394531
17705,0.020752,-0.069092,0.956177,-1.525879,-0.915527,4.760742
17714,0.040283,-0.056152,0.990967,-1.831055,-1.342773,4.760742
17724,0.019409,-0.033081,0.992310,-1.892090,-1.281738,4.638672
17733,0.035522,-0.033691,1.000854,-2.014160,-1.281738,4.699707
17743,0.058716,-0.042847,1.050415,-1.892090,-1.281738,4.272461
17756,0.033691,-0.092651,1.047119,-1.281738,-1.892090,3.112793
17765,0.027954,-0.129883,0.998535,-0.976562,-1.647949,2.136230
17774,-0.020630,-0.145142,0.972412,-0.854492,-1.525879,1.770020
17784,-0.082764,-0.124390,0.976074,-0.854492,-1.281738,2.136230
17793,-0.087158,-0.111816,0.978027,-1.220703,0.183105,4.089355
17804,-0.037476,-0.120483,0.980225,-0.976562,0.854492,5.737305
17813,-0.051270,-0.135986,1.017212,-1.220703,0.244141,5.920410
17825,-0.025757,-0.140503,1.014282,-1.464844,-0.366211,4.760742
17834,0.014526,-0.127197,1.020020,-1.525879,0.549316,4.089355
17844,0.040894,-0.127441,1.000488,-1.464844,0.122070,3.662109
17853,0.040039,-0.127930,0.984619,-1.342773,-0.061035,3.173828
17863,0.062622,-0.129395,0.976929,-1.281738,-0.183105,2.746582
17874,0.090088,-0.095947,0.997559,-1.220703,-0.793457,2.258301
17883,0.100586,-0.092285,0.992798,-1.098633,-0.793457,1.831055
17896,0.071167,-0.126953,0.993042,-1.159668,-1.403809,0.854492
17905,0.036011,-0.086548,0.996826,-1.220703,-0.915527,0.610352
17914,0.006958,-0.007202,1.057007,-1.281738,-0.915527,1.525879
17924,0.090576,-0.091431,1.047241,-0.854492,-0.488281,2.319336
17933,0.021118,-0.090820,0.977539,-0.854492,-0.854492,1.403809
17943,0.069824,-0.175049,0.883789,-0.854492,-1.098633,1.159668
17954,0.140503,-0.039429,0.989258,-0.793457,-1.586914,-0.732422
17963,0.160889,-0.063843,1.032471,-0.549316,-3.356934,-5.310059
17975,0.045532,-0.080566,1.041138,-0.671387,-3.784180,-7.080078
17984,0.018311,-0.079712,1.034546,-0.488281,-3.417969,-7.873535
17993,-0.006836,-0.131348,0.983032,-0.610352,-3.295898,-8.056641
18003,-0.016724,-0.066772,1.002808,-0.671387,-2.441406,-7.690430
18013,-0.043091,-0.031860,1.001953,-0.610352,-2.319336,-7.446289
18023,-0.093750,-0.061768,0.996216,-0.549316,-2.563477,-6.958008
18035,-0.089111,-0.152344,0.946533,-0.488281,-1.831055,-7.141113
18044,-0.036743,-0.137451,0.956665,-1.586914,-1.342773,-8.178711
18054,-0.073120,-0.093140,0.976929,-1.831055,-2.075195,-8.728027
18064,-0.086792,-0.088135,1.017456,-1.647949,-1.159668,-8.850098
18073,-0.054443,-0.105957,1.044922,-1.525879,-0.732422,-8.056641
18083,0.009277,-0.174561,1.045288,-1.098633,-0.305176,-7.324219
18093,0.036377,-0.156494,1.024658,-1.037598,-0.549316,-7.080078
18103,0.039551,-0.211182,0.973999,-0.976562,-0.793457,-5.920410
18113,0.054932,-0.255249,0.894775,-1.098633,-1.586914,-6.774902
18124,0.012451,-0.227783,0.939941,-1.464844,-1.159668,-6.347656
18133,0.029663,-0.246460,0.980103,-1.770020,-1.770020,-6.347656
18143,0.040527,-0.264038,1.000488,-1.586914,-1.037598,-5.920410
18153,0.010254,-0.287354,1.004517,-1.586914,-0.793457,-5.004883
18164,0.012939,-0.285034,1.000488,-1.586914,-0.488281,-4.943848
18173,0.040283,-0.299561,0.976440,-1.403809,-1.525879,-6.469727
18185,0.014648,-0.317749,0.958862,-1.403809,-2.197266,-7.507324
18195,0.016479,-0.311157,0.980957,-1.403809,-2.441406,-8.300781
18204,0.017822,-0.297974,1.000610,-1.342773,-2.014160,-8.911133
18214,0.013428,-0.294434,1.000610,-1.525879,-2.136230,-9.277344
18223,0.020142,-0.307495,0.984497,-1.403809,-1.770020,-9.399414
18233,0.024170,-0.312256,0.963013,-1.220703,-1.403809,-9.399414
18245,0.016113,-0.253174,0.995117,-1.586914,-1.770020,-9.582520
18255,-0.004517,-0.241333,0.997070,-1.342773,-1.831055,-9.948730
18265,-0.027832,-0.250488,0.985229,-1.220703,-2.197266,-10.131836
18275,-0.053223,-0.252930,0.974854,-1.159668,-1.770020,-10.131836
18285,-0.064331,-0.228271,0.974731,-1.281738,-1.708984,-10.192871
18295,-0.056274,-0.206543,0.965820,-1.464844,-1.831055,-10.009766
18304,-0.047729,-0.201904,0.983398,-1.342773,-0.854492,-8.544922
18314,-0.033936,-0.217163,1.000366,-1.525879,-0.976562,-7.568359
18324,-0.012695,-0.212402,0.990479,-1.708984,-0.610352,-6.591797
18334,-0.011230,-0.183350,0.990112,-1.953125,-0.305176,-5.737305
18344,0.003906,-0.167603,0.975464,-1.892090,0.000000,-4.821777
18353,0.017578,-0.152466,0.981934,-1.953125,0.183105,-3.723145
18364,0.023926,-0.171021,0.983887,-1.953125,0.366211,-2.929688
18373,0.014648,-0.211182,0.967529,-1.831055,-0.061035,-2.014160
18383,0.006714,-0.200806,0.969604,-2.075195,0.793457,-0.244141
18395,0.030273,-0.160400,0.989258,-2.136230,0.793457,0.366211
18404,0.033813,-0.190674,1.001221,-1.831055,0.488281,1.098633
18413,0.026733,-0.237061,1.000122,-1.525879,0.915527,1.525879
18423,0.000977,-0.231323,0.995483,-1.892090,0.732422,1.098633
18434,-0.013550,-0.204834,0.990723,-2.258301,0.732422,0.793457
18443,-0.036499,-0.170410,0.997314,-2.624512,0.183105,0.305176
18455,-0.051636,-0.203369,0.966919,-1.892090,0.610352,-0.305176
18465,-0.022339,-0.206055,0.965454,-1.892090,1.220703,-0.305176
18475,0.009155,-0.202393,0.969238,-2.136230,1.586914,-0.061035
18484,0.030518,-0.196167,0.997070,-2.258301,1.220703,0.122070
18494,0.035400,-0.254272,0.981079,-1.953125,0.549316,0.610352
18503,0.050903,-0.261841,0.988281,-2.136230,0.793457,1.098633
18514,0.076782,-0.232056,0.991943,-2.441406,0.244141,1.831055
18523,0.090088,-0.178345,1.004028,-2.075195,0.000000,3.479004
18534,0.085937,-0.252075,0.968506,-1.892090,0.427246,4.455566
18544,0.072876,-0.236084,0.997803,-2.075195,0.549316,5.187988
18554,0.006714,-0.243774,1.014526,-1.953125,0.427246,5.493164
18563,-0.046997,-0.239624,0.969727,-2.075195,-0.122070,5.737305
18573,-0.081299,-0.192505,0.961182,-2.380371,0.183105,5.981445
18583,-0.117432,-0.125122,0.993042,-2.380371,0.732422,6.591797
18595,-0.134644,-0.163940,0.945801,-2.075195,1.220703,7.934570
18605,-0.097778,-0.167358,0.981079,-2.136230,1.831055,9.399414
18615,-0.099731,-0.145996,0.995850,-2.319336,2.563477,10.925293
18624,-0.047852,-0.123291,0.959351,-2.258301,2.807617,12.145996
18634,-0.026245,-0.076172,0.983398,-2.258301,3.295898,13.977051
18643,-0.021606,-0.093262,1.005127,-2.258301,3.723145,15.869141
18653,-0.018311,-0.172241,0.952881,-1.647949,3.784180,16.784668
18663,0.011353,-0.169067,0.963501,-1.770020,4.455566,21.057129
18675,0.002563,-0.162964,0.970459,-2.441406,4.638672,22.460937
18684,0.012817,-0.118896,0.962646,-2.502441,4.638672,23.864746
18693,0.019287,-0.144409,0.997681,-2.441406,5.249023,26.062012
18703,-0.000977,-0.205811,0.949951,-2.136230,5.859375,27.221680
18713,-0.053101,-0.190186,0.971924,-2.136230,6.408691,27.709961
18723,-0.119385,-0.178833,1.013306,-2.441406,6.835937,28.503418
18736,-0.114136,-0.148560,1.010620,-2.258301,7.873535,27.709961
18745,-0.100464,-0.166260,1.024292,-2.380371,7.385254,27.038574
18754,-0.103027,-0.196045,0.976318,-2.197266,6.469727,26.489258
18764,-0.068359,-0.143311,1.006592,-2.380371,7.019043,25.878906
18773,-0.005127,-0.119141,0.991699,-2.380371,7.995605,26.367187
18783,0.005737,-0.066162,0.970825,-2.197266,8.178711,27.038574
18794,0.008179,-0.006592,0.987183,-2.014160,8.239746,27.648926
18803,-0.040894,-0.054443,0.948242,-1.342773,9.338379,30.944824
18815,-0.053955,-0.046875,1.016357,-1.647949,9.460449,32.592773
18824,-0.076904,-0.033569,1.053711,-1.892090,10.131836,34.545898
18834,-0.108765,0.002075,1.026733,-2.075195,10.375977,35.888672
18843,-0.084839,-0.036255,0.999634,-2.014160,10.620117,36.621094
18853,-0.079468,-0.060059,0.998291,-1.525879,11.962891,37.475586
18863,-0.021973,-0.086670,0.967163,-1.464844,12.512207,38.024902
18873,0.033691,-0.054565,0.988892,-2.014160,12.084961,39.306641
18883,0.005371,-0.038452,1.016113,-2.136230,11.840820,40.283203
18893,0.039185,-0.023071,1.035522,-1.770020,11.718750,41.564941
18904,0.038086,-0.036133,1.012085,-1.403809,11.962891,43.151855
18913,0.158936,-0.011597,0.913940,-0.915527,12.512207,44.555664
18923,0.166260,0.012085,0.854370,-0.854492,12.207031,46.752930
18933,0.141479,-0.016357,0.909180,-0.366211,11.169434,49.316406
18943,0.095947,-0.148315,0.999268,-0.427246,9.582520,53.161621
18954,-0.067505,-0.098877,1.128418,-1.525879,11.413574,54.748535
18964,-0.022217,-0.068726,1.089722,-1.708984,12.573242,56.213379
18974,-0.025391,-0.083740,1.018066,-1.525879,14.709473,57.861328
18983,0.068237,-0.074097,0.945679,-1.342773,14.953613,58.837891
18993,0.070679,-0.108521,0.934204,-1.159668,14.404297,59.204102
19004,0.028198,-0.110840,0.957153,-1.037598,13.793945,58.959961
19013,0.075806,-0.093994,0.961792,-1.098633,11.657715,56.396484
19024,0.011719,-0.069336,0.996338,-1.220703,11.230469,54.321289
19034,0.102539,-0.148926,1.001953,-1.220703,10.253906,51.269531
19043,0.144775,-0.138550,1.023315,-0.732422,9.582520,48.034668
19054,0.286865,-0.146973,0.998657,-0.549316,7.629395,43.884277
19063,0.350342,-0.122559,0.998169,-0.488281,5.310059,39.489746
19073,0.347534,-0.073853,0.995483,-0.610352,3.173828,35.522461
19085,0.441040,-0.025879,1.035522,0.366211,-0.122070,28.930664
19095,0.420288,-0.027466,1.048828,0.732422,-1.342773,26.733398
19104,0.364014,-0.036011,1.047363,0.732422,-1.647949,24.780273
19114,0.272095,0.000977,1.017212,0.488281,-1.708984,22.888184
19123,0.218506,0.001709,0.985840,0.305176,-2.075195,20.751953
19134,0.161865,-0.059326,0.959473,0.183105,-2.868652,17.578125
