timestamp,accX,accY,accZ,gyrX,gyrY,gyrZ
10,-0.106567,-0.137817,1.122070,0.305176,8.178711,9.643555
20,-0.109375,-0.059814,1.203613,0.610352,7.934570,8.728027
30,-0.092529,-0.044922,1.127075,2.197266,7.690430,6.408691
41,-0.010864,-0.194946,0.864990,2.380371,6.469727,4.943848
50,0.031250,-0.246460,0.798340,1.525879,5.615234,4.516602
61,-0.012207,-0.166992,0.866943,0.793457,5.859375,5.737305
70,-0.004028,-0.010620,0.935059,0.122070,6.225586,7.507324
80,-0.002075,-0.166138,0.967651,0.183105,7.202148,9.521484
90,0.008911,-0.197998,0.946045,0.732422,7.324219,10.498047
101,0.043945,-0.214722,1.036743,1.159668,6.896973,10.009766
111,0.047729,-0.201050,1.031128,-0.122070,6.652832,8.789063
121,0.063965,-0.087280,1.044067,-0.061035,5.554199,7.934570
130,0.049316,-0.126465,1.034790,0.244141,4.821777,7.080078
140,0.052490,-0.201782,0.976318,0.183105,4.211426,5.981445
150,-0.001587,-0.180298,0.997559,-0.427246,4.028320,5.004883
160,0.004395,-0.113037,1.077393,-1.037598,3.601074,4.211426
171,0.086914,-0.091553,1.020264,-1.037598,3.295898,4.272461
181,0.114136,-0.117310,1.083740,-0.732422,3.051758,4.028320
190,0.091309,-0.143677,1.023193,-0.610352,2.380371,3.906250
200,0.062500,-0.121094,1.010986,-1.098633,1.953125,3.417969
211,0.077393,-0.094116,1.040649,-0.976562,1.525879,3.112793
220,0.112793,-0.197632,0.979858,-0.488281,1.831055,3.173828
232,0.129517,-0.277710,0.924927,-1.708984,-0.244141,2.136230
241,-0.013672,-0.110840,1.051270,-1.647949,-0.732422,1.464844
251,0.016846,-0.140015,1.020142,-0.671387,-0.244141,0.976562
261,0.073120,-0.209717,1.085571,-0.061035,0.671387,0.671387
270,0.012695,-0.182739,1.133789,-0.183105,0.305176,-0.549316
280,-0.004517,-0.095825,1.115479,0.000000,-0.610352,-2.441406
291,-0.007690,-0.065186,1.130737,1.037598,-0.488281,-4.394531
301,0.054077,-0.229248,1.003906,1.647949,-0.732422,-7.202148
310,0.149536,-0.194214,0.863647,0.366211,-2.136230,-7.690430
320,0.045166,-0.078003,0.884521,-0.427246,-2.502441,-7.263184
331,0.043091,-0.103760,0.827515,-0.549316,-1.525879,-6.042480
340,0.051514,-0.193359,0.809204,-0.732422,-0.671387,-4.577637
350,-0.001953,-0.212524,0.911133,-0.732422,-0.244141,-3.173828
360,-0.031372,-0.051270,1.021606,-0.549316,0.183105,-2.807617
370,-0.083130,-0.129639,1.002563,0.183105,0.671387,-3.051758
382,-0.049927,-0.183472,1.081421,0.854492,1.159668,-5.859375
391,-0.074829,-0.255005,0.925659,1.220703,0.854492,-6.958008
401,-0.051147,-0.202637,0.907593,0.183105,0.671387,-7.690430
410,-0.072144,-0.157715,0.971924,-0.732422,1.220703,-7.690430
420,-0.072388,-0.030029,0.968994,-1.403809,2.258301,-7.629395
431,-0.026611,-0.026489,1.047485,-1.525879,3.112793,-7.263184
441,0.010254,-0.077759,1.063721,-1.403809,3.723145,-6.896973
451,0.056885,-0.089844,0.953247,-0.427246,2.502441,-7.568359
460,0.043945,-0.093872,0.972046,-0.305176,1.647949,-8.300781
470,0.227417,-0.189697,0.935181,-0.183105,0.915527,-7.873535
481,0.163208,-0.101074,0.968872,-0.427246,-0.854492,-10.620117
491,-0.103394,-0.056885,1.094849,-0.732422,-0.549316,-10.925293
501,-0.115112,-0.049683,1.131958,-0.610352,3.051758,-8.666992
511,0.055664,-0.141357,1.036987,-0.305176,6.652832,-3.234863
520,0.019775,-0.251587,0.925781,-0.915527,5.798340,-1.770020
530,0.022949,-0.176880,0.978516,-1.586914,5.187988,0.122070
540,0.053345,-0.157959,0.990845,-1.586914,5.065918,2.136230
550,0.073975,-0.252441,0.947632,-1.403809,4.577637,3.173828
560,0.016479,-0.280884,0.977295,-1.464844,3.906250,4.699707
571,0.046021,-0.200562,0.976562,-2.075195,4.394531,7.019043
581,0.076904,-0.171387,1.012329,-2.441406,5.737305,15.319824
590,0.055664,-0.223389,1.022583,-2.258301,7.568359,18.981934
600,-0.031128,-0.150024,1.093018,-1.586914,7.385254,22.094727
610,-0.038696,-0.140747,1.109863,-0.793457,6.774902,23.864746
620,-0.001587,-0.168457,1.121094,-0.061035,6.530762,25.085449
631,0.012939,-0.139648,1.052734,0.488281,5.676270,26.428223
641,-0.007202,-0.190186,0.986572,1.342773,5.126953,27.893066
650,-0.049683,-0.223267,0.980957,1.708984,4.577637,29.174805
662,-0.084229,-0.104736,0.895874,0.366211,4.821777,30.578613
671,-0.102417,-0.092529,0.967041,0.061035,4.943848,30.761719
681,-0.087036,-0.128784,0.956055,0.244141,4.516602,29.785156
690,-0.081909,-0.037354,0.975220,0.183105,4.089355,28.259277
701,-0.018066,-0.114624,0.935059,0.549316,3.417969,27.038574
710,0.049561,-0.081665,0.942627,0.610352,2.868652,25.695801
722,0.072510,-0.178955,0.953369,-0.305176,0.793457,23.925781
731,0.031250,-0.039673,0.951416,-0.915527,-0.549316,23.315430
741,0.007324,0.006226,0.974243,-1.281738,-0.915527,23.254395
751,-0.039307,-0.036133,1.080200,-1.159668,-0.610352,23.620605
760,0.014160,-0.078857,1.058838,-1.220703,-0.183105,23.864746
770,-0.015259,-0.114380,1.010620,-1.342773,-0.122070,23.864746
781,0.010010,-0.015869,1.009644,-1.525879,-0.854492,23.437500
791,0.014038,-0.073608,0.964233,-1.464844,-1.831055,22.583008
800,0.013184,-0.068481,1.038330,-1.586914,-3.234863,21.850586
811,0.050659,-0.090942,1.022827,-1.464844,-3.601074,21.240234
820,0.045898,-0.074707,0.953247,-1.403809,-4.333496,20.263672
830,0.013184,-0.186523,0.958496,-1.403809,-4.760742,19.287109
840,0.055542,-0.156494,0.978027,-1.403809,-4.943848,17.944336
850,0.011108,-0.106201,1.007446,-1.342773,-5.859375,16.540527
862,0.069458,-0.156860,0.953003,-0.976562,-7.507324,14.770508
871,0.069092,-0.228271,0.910645,-0.854492,-8.056641,13.793945
881,0.115479,-0.228882,0.935059,-1.098633,-8.056641,13.549805
890,0.127441,-0.165527,1.039917,-1.708984,-8.483887,13.549805
900,0.124268,-0.176025,1.015503,-1.525879,-9.094238,12.695313
910,0.068115,-0.094849,1.018066,-0.915527,-9.704590,11.535645
920,0.099609,-0.183960,0.988892,-0.549316,-10.192871,10.375977
932,0.102173,-0.257813,1.049072,-0.854492,-11.779785,7.019043
941,0.069336,-0.168457,0.919312,-0.915527,-12.878418,5.371094
951,0.085327,-0.151489,0.968262,-1.037598,-13.854980,3.906250
960,0.096924,-0.211182,1.040161,-1.464844,-14.282227,3.051758
970,0.058472,-0.006470,1.224487,-1.831055,-14.282227,1.831055
980,0.054443,-0.069336,1.143555,-1.647949,-14.648438,0.183105
990,0.043213,-0.264893,1.046631,-0.854492,-14.892578,-1.098633
1002,0.062744,-0.299805,0.933228,-2.258301,-15.563965,-4.150391
1011,0.100464,0.011108,1.032593,-2.685547,-16.235352,-5.615234
1021,0.061035,-0.181763,0.977051,-2.197266,-17.272949,-6.958008
1030,0.036743,-0.144653,1.019409,-2.014160,-16.906738,-7.934570
1041,0.006226,-0.224487,0.962158,-2.136230,-16.662598,-9.216309
1050,0.052612,-0.181885,1.044922,-2.258301,-16.174316,-10.742188
1060,0.004028,-0.154175,0.984619,-2.258301,-16.174316,-12.390137
1071,0.021973,-0.236572,0.964966,-2.075195,-16.906738,-15.747070
1081,0.044434,-0.257202,0.857788,-1.892090,-17.456055,-17.150879
1091,0.064331,-0.116333,0.974243,-1.892090,-17.272949,-18.249512
1101,0.006836,-0.280029,0.925049,-1.708984,-16.601562,-18.493652
1111,0.010742,-0.125000,0.999756,-1.953125,-16.296387,-19.348145
1120,0.029785,-0.150024,0.915405,-1.525879,-15.869141,-20.080566
1130,0.024170,-0.120239,0.955444,-1.220703,-15.136719,-20.935059
1142,-0.015625,-0.128906,0.927002,-0.854492,-14.465332,-22.216797
1152,-0.020386,-0.151123,0.881348,-1.159668,-14.099121,-22.888184
1161,-0.066772,-0.144897,0.840942,-1.892090,-13.427734,-23.437500
1171,-0.045532,-0.085937,0.942627,-2.502441,-12.512207,-23.925781
1181,-0.120239,-0.096802,0.890381,-3.112793,-12.451172,-24.597168
1190,-0.029907,-0.041016,0.995972,-3.051758,-11.840820,-25.695801
1200,-0.077881,-0.033447,1.045532,-2.746582,-11.230469,-26.733398
1212,-0.026123,-0.042847,1.049683,-2.441406,-10.131836,-28.320312
1222,0.062256,-0.066895,0.995239,-2.014160,-9.094238,-28.686523
1231,0.045288,-0.055786,1.036133,-1.647949,-8.789063,-28.747559
1241,0.024170,-0.061768,1.055054,-1.525879,-8.850098,-28.686523
1250,0.023682,-0.059204,1.038330,-1.098633,-8.178711,-28.503418
1261,-0.025146,-0.145264,0.959229,-0.549316,-7.263184,-28.686523
1271,-0.007324,-0.125488,1.061279,-0.671387,-6.713867,-29.418945
1280,-0.057495,-0.123413,1.104004,-0.671387,-6.591797,-31.555176
1292,-0.067261,-0.121338,1.028931,-0.244141,-6.408691,-32.470703
1302,-0.060059,-0.168579,1.040161,0.427246,-5.981445,-33.264160
1312,0.015869,-0.145508,0.996094,0.366211,-4.821777,-33.691406
1321,0.017578,-0.103516,1.032227,0.244141,-4.455566,-33.813477
1330,0.041382,-0.136108,0.973145,0.305176,-3.417969,-33.386230
1341,0.043823,-0.076904,1.050537,0.061035,-3.173828,-32.348633
1350,0.069214,-0.072632,1.015869,-0.244141,-3.356934,-30.395508
1362,0.035278,-0.103027,0.865845,0.061035,-1.892090,-29.235840
1372,0.055176,-0.141235,0.984375,-0.183105,-0.732422,-27.465820
1381,0.017944,-0.147461,0.962524,-1.220703,-0.427246,-25.817871
1391,-0.024414,-0.060791,0.944580,-1.831055,0.122070,-24.658203
1400,-0.032593,-0.046265,0.991943,-1.831055,0.671387,-23.864746
1410,-0.002197,-0.089966,0.971558,-1.647949,0.915527,-23.376465
1420,-0.033325,-0.125977,1.015625,-1.342773,1.647949,-22.827148
1432,0.018066,-0.023682,1.091309,-0.793457,2.075195,-21.423340
1441,-0.017456,-0.099365,1.038330,-0.244141,3.112793,-20.202637
1451,-0.062744,-0.127563,1.058105,0.488281,3.906250,-19.348145
1460,-0.067627,-0.143066,1.029175,1.159668,4.089355,-18.676758
1470,-0.088623,-0.190063,0.952271,1.525879,4.638672,-18.188477
1480,-0.095459,-0.167114,0.961670,1.525879,5.187988,-17.700195
1490,-0.131348,-0.246094,0.958618,1.892090,6.042480,-17.089844
1502,-0.124756,-0.248047,0.849854,2.380371,6.896973,-15.502930
1511,-0.089722,-0.317871,0.797974,2.746582,7.812500,-14.343262
1520,-0.107178,-0.274292,0.851318,2.563477,8.361816,-12.451172
1530,-0.068726,-0.226318,0.936646,1.953125,8.972168,-10.498047
1540,-0.132446,-0.174805,0.980713,1.831055,10.070801,-8.911133
1550,-0.035889,-0.196411,1.003540,2.380371,10.620117,-8.300781
1561,-0.131714,-0.243652,0.912964,2.990723,10.986328,-8.483887
1571,-0.061646,-0.244141,1.035278,2.380371,11.352539,-8.483887
1580,0.033081,-0.101318,1.041870,2.319336,11.352539,-8.850098
1590,-0.051880,-0.305298,0.900269,2.807617,11.047363,-8.850098
1601,0.015747,-0.393433,0.796997,2.685547,11.108398,-9.155273
1611,0.055542,-0.439819,0.649902,1.037598,10.742188,-8.972168
1620,0.115356,-0.123779,0.906250,-1.220703,10.314941,-8.117676
1632,-0.015015,0.042236,1.160889,-2.197266,11.169434,-6.347656
1641,-0.032104,-0.017090,1.265137,-2.258301,11.596680,-5.432129
1650,-0.105469,-0.161621,1.058838,-1.281738,11.718750,-5.371094
1660,-0.134521,-0.077881,1.038574,-1.220703,11.962891,-5.798340
1671,-0.032959,-0.117310,0.911255,-1.770020,12.329102,-4.394531
1681,-0.010742,-0.016602,0.923706,-2.563477,11.779785,-2.502441
1691,0.052490,-0.023437,0.917969,-2.136230,11.779785,-0.732422
1700,0.005005,-0.177490,0.821777,-2.197266,12.329102,1.647949
1710,0.084473,-0.140625,0.855713,-4.577637,13.366699,6.042480
1721,0.089844,0.119629,1.136719,-5.065918,13.427734,7.568359
1730,0.020508,0.007935,1.094238,-3.906250,13.000488,8.117676
1740,0.026733,-0.027466,1.173340,-2.868652,12.329102,8.850098
1750,-0.020630,-0.156982,1.114136,-2.075195,11.352539,9.216309
1760,0.016357,-0.135254,1.002075,-1.403809,10.375977,9.033203
1772,0.022949,-0.047852,1.004272,-1.098633,9.338379,11.840820
1781,-0.002441,-0.057983,0.906006,-1.464844,9.582520,13.549805
1791,-0.012085,-0.159058,0.834106,-2.258301,9.582520,15.258789
1800,-0.075806,0.109009,1.017456,-3.173828,10.131836,15.991211
1810,-0.122803,-0.088623,0.919434,-3.356934,9.826660,15.625000
1821,-0.168579,0.008667,0.988403,-2.990723,9.277344,14.892578
1830,-0.121704,-0.078003,1.071533,-2.319336,9.399414,13.671875
1842,-0.096069,-0.125977,1.032837,-0.610352,8.422852,12.329102
1851,-0.067505,-0.287720,0.994995,0.000000,8.056641,12.207031
1861,0.019043,-0.036011,1.071045,-0.305176,8.666992,12.512207
1870,0.009155,-0.062378,0.975586,-0.915527,8.300781,13.122559
1881,0.009399,0.050903,1.021851,-1.098633,8.117676,13.732910
1890,-0.041870,-0.058838,1.061646,-0.976562,7.690430,13.977051
1901,-0.005005,-0.100464,1.066895,-0.976562,7.141113,13.732910
1910,-0.018677,0.055054,1.168945,-0.671387,6.958008,13.916016
1920,0.044189,-0.090454,1.074707,0.549316,6.591797,15.563965
1931,0.063965,-0.088745,1.100098,1.464844,6.408691,16.479492
1941,0.060547,-0.176514,1.020996,2.014160,5.920410,17.272949
1950,0.035156,-0.225464,0.994995,2.746582,5.432129,18.127441
1960,-0.062256,-0.363892,0.847168,2.014160,4.638672,18.615723
1970,-0.089722,-0.262207,0.731934,0.915527,4.577637,19.042969
1982,-0.131592,-0.239136,0.716309,-1.770020,5.493164,20.202637
1992,-0.184204,-0.236816,0.714966,-3.112793,5.554199,20.141602
2002,-0.136353,-0.026611,0.686890,-4.333496,5.249023,19.714355
2011,-0.095215,-0.034424,0.925537,-4.821777,4.943848,18.859863
2020,-0.049072,-0.018921,1.150146,-4.577637,4.272461,17.761230
2030,-0.024780,0.014038,1.312378,-3.845215,2.746582,16.357422
2041,0.036743,-0.123169,1.139771,-1.647949,1.953125,14.343262
2050,0.037598,-0.259888,1.067871,0.183105,1.281738,12.084961
2061,0.142700,-0.114014,1.065430,0.122070,1.220703,8.300781
2071,0.167114,-0.165649,1.146484,0.610352,-0.793457,6.713867
2080,0.114014,-0.397095,0.898437,0.305176,-1.953125,4.943848
2090,0.121094,0.074463,0.837646,-0.610352,-1.770020,4.455566
2100,0.169922,-0.010498,0.859009,-0.305176,-1.281738,3.967285
2111,0.192993,-0.138550,0.912964,-0.244141,-1.647949,2.685547
2120,0.096436,-0.160522,1.035645,-1.342773,-3.662109,1.525879
2130,0.120361,-0.112671,1.019775,-1.464844,-5.187988,-1.464844
2140,0.157715,-0.204102,1.078857,-1.525879,-5.920410,-3.112793
2151,0.077637,-0.079834,1.122437,-1.708984,-6.591797,-4.333496
2160,0.075684,-0.058716,1.150635,-1.586914,-6.652832,-4.577637
2170,-0.000854,-0.225830,1.042725,-0.793457,-6.469727,-4.394531
2180,-0.072998,-0.139404,1.053711,-0.427246,-6.103516,-3.967285
2192,-0.084229,-0.197754,1.025757,-0.244141,-3.967285,-1.586914
2201,-0.123901,-0.023437,1.017334,-0.610352,-2.868652,0.488281
2211,-0.134888,-0.200806,0.925415,-0.732422,-2.258301,2.563477
2221,-0.091187,-0.268433,0.854736,-1.403809,-2.136230,4.638672
2230,-0.093872,-0.081909,1.014160,-1.770020,-1.220703,6.408691
2240,-0.112549,-0.158569,1.012329,-2.563477,-1.342773,7.568359
2250,-0.113647,-0.131836,1.038086,-2.868652,-0.976562,8.483887
2262,-0.111084,-0.123047,1.073364,-2.868652,-0.183105,9.521484
2271,-0.164551,0.006592,1.019775,-3.051758,0.061035,10.009766
2280,-0.159302,0.003174,1.010742,-2.868652,0.305176,10.192871
2290,-0.171143,0.035034,1.100098,-2.441406,0.610352,10.314941
2300,-0.187622,0.052124,1.044189,-0.854492,1.403809,9.765625
2310,-0.191040,-0.107422,0.975098,0.732422,1.647949,8.789063
2320,-0.168335,-0.184082,0.907349,1.770020,2.014160,8.300781
2335,-0.108521,-0.274902,0.891235,2.075195,2.868652,6.958008
2345,-0.075806,-0.183105,0.928467,1.770020,2.319336,5.737305
2354,-0.007080,-0.208252,0.874146,0.732422,1.831055,4.821777
2364,0.029053,-0.279785,0.766235,-0.366211,1.953125,4.089355
2373,0.067749,-0.122681,0.883179,-1.525879,2.075195,3.723145
2383,0.095825,-0.183594,0.723755,-2.502441,1.953125,2.624512
2391,0.087646,0.025513,0.926880,-2.502441,1.953125,2.624512
2401,0.139648,-0.004761,0.937866,-3.967285,0.488281,1.159668
2412,0.134521,-0.050049,1.103882,-2.502441,-0.366211,-0.305176
2422,0.168213,-0.267334,1.038696,-1.708984,-0.854492,-1.647949
2432,0.145630,-0.184814,1.074341,-1.098633,-1.831055,-2.746582
2441,0.130493,-0.207764,1.043457,-0.305176,-2.380371,-3.906250
2451,0.053833,-0.370361,0.832520,-0.305176,-3.173828,-4.455566
2460,0.068237,-0.096069,0.901733,-1.220703,-2.990723,-4.760742
2470,0.022827,-0.126953,0.890991,-1.770020,-2.746582,-4.882812
2481,-0.050293,0.024170,1.133667,-2.441406,-2.258301,-6.713867
2491,0.032349,-0.026978,1.262085,-3.540039,-2.624512,-8.117676
2501,-0.078735,-0.184082,1.080200,-3.356934,-2.868652,-9.582520
2510,-0.021362,-0.000366,1.118896,-3.234863,-2.746582,-11.108398
2520,0.101929,-0.024902,1.066650,-2.990723,-2.685547,-11.718750
2530,0.149780,-0.273804,0.944336,-3.417969,-2.624512,-11.840820
2541,0.136230,0.048462,1.056885,-4.150391,-2.563477,-10.314941
2551,0.098633,-0.121338,0.937256,-3.662109,-2.685547,-9.582520
2561,0.069824,-0.030396,1.031860,-3.295898,-2.868652,-9.094238
2570,0.063599,-0.146362,1.003174,-3.112793,-2.807617,-8.728027
2580,0.091187,-0.162964,0.913574,-3.356934,-2.746582,-8.361816
2590,0.078003,-0.097046,0.975586,-3.601074,-3.051758,-7.690430
2600,0.082764,-0.319214,0.901733,-3.662109,-2.990723,-6.774902
2610,-0.023926,-0.139282,0.889160,-3.906250,-2.868652,-6.103516
2620,0.029297,-0.102417,0.926636,-4.882812,-1.953125,-4.699707
2631,-0.038574,-0.068359,0.989258,-4.882812,-1.098633,-4.455566
2641,-0.132812,-0.092529,1.084961,-4.699707,-0.305176,-4.089355
2651,-0.133545,-0.250977,1.002319,-4.028320,0.427246,-4.150391
2661,-0.151611,-0.105835,1.070679,-3.173828,0.854492,-4.455566
2670,-0.169067,-0.079834,1.074585,-2.258301,1.037598,-4.882812
2680,-0.089478,-0.278687,0.922729,-1.159668,1.770020,-5.310059
2690,-0.007935,-0.171753,0.927979,0.305176,1.892090,-5.187988
2702,-0.025513,-0.413208,0.900757,0.854492,1.831055,-4.516602
2712,-0.025391,-0.304688,0.896973,1.098633,2.197266,-3.845215
2722,0.033081,-0.166626,0.946411,0.976562,2.929688,-2.624512
2731,0.018433,-0.358643,0.845825,0.427246,3.295898,-1.403809
2741,0.008057,-0.235474,0.845459,-0.549316,3.173828,-0.976562
2750,-0.008423,-0.081787,0.911865,-1.098633,3.234863,-2.075195
2762,0.004272,-0.258301,0.827515,-1.403809,2.746582,-2.868652
2772,0.132935,-0.052856,0.923096,-2.319336,2.685547,-3.662109
2781,0.106567,-0.305664,0.878662,-3.295898,2.319336,-3.662109
2791,0.146118,-0.261108,0.893799,-4.272461,2.441406,-3.112793
2800,0.108276,0.080078,1.098022,-4.638672,2.380371,-1.953125
2810,0.135010,0.082397,1.099365,-4.333496,2.685547,-0.671387
2819,0.116211,-0.105469,1.086914,-3.967285,2.441406,0.244141
2832,0.106445,0.084595,1.154053,-3.662109,1.586914,0.976562
2841,0.064819,0.102905,1.117676,-3.662109,0.854492,1.403809
2851,0.068970,0.067871,1.127563,-3.112793,0.976562,1.892090
2860,0.004639,-0.006836,1.032959,-2.441406,1.281738,2.624512
2870,0.012207,-0.041992,1.015259,-2.319336,1.098633,3.417969
2880,-0.032715,-0.026733,1.044434,-2.319336,1.342773,4.150391
2890,-0.061157,-0.112793,0.971191,-2.319336,1.586914,5.187988
2900,-0.158203,-0.046143,0.974609,-2.258301,2.258301,6.835937
2910,-0.142456,-0.066406,0.984131,-2.075195,2.685547,7.324219
2920,-0.148315,-0.149414,1.012695,-1.953125,3.234863,8.117676
2930,-0.106201,-0.066650,1.091797,-1.586914,3.356934,8.728027
2940,-0.131104,-0.045410,1.099243,-1.220703,3.234863,9.216309
2950,-0.079834,-0.154541,1.070557,-0.854492,3.906250,9.704590
2959,-0.086182,-0.328613,1.030151,-0.488281,4.394531,10.070801
2972,-0.036133,0.055786,1.069824,-0.183105,3.967285,10.192871
2982,0.058228,-0.031738,1.067139,0.000000,3.662109,9.948730
2991,0.032715,-0.286743,0.940308,0.000000,2.990723,9.826660
3000,0.110596,-0.131104,0.871460,-0.427246,2.929688,9.887695
3010,0.082764,0.058838,1.029053,-1.037598,2.197266,10.131836
3020,0.149048,0.009766,1.068237,-1.037598,2.319336,9.887695
3030,0.118652,-0.175903,0.954468,-1.159668,1.464844,9.155273
3042,0.124390,-0.024780,0.989624,-0.610352,-0.427246,6.835937
3052,0.067383,-0.163452,0.904175,-0.061035,-1.525879,5.798340
3061,0.062012,-0.091919,0.926880,0.183105,-1.892090,4.638672
3071,-0.000610,-0.039673,0.978760,0.671387,-1.953125,3.540039
3080,-0.003540,-0.126831,0.882324,1.586914,-1.770020,2.807617
3090,-0.031250,-0.176392,0.877930,2.197266,-1.708984,2.624512
3101,0.003662,-0.227051,0.932007,2.136230,-2.075195,1.770020
3111,-0.005371,-0.188477,1.140747,2.197266,-2.319336,1.342773
3120,-0.012085,-0.283936,1.062500,2.563477,-1.953125,0.793457
3130,-0.026001,-0.352783,0.891113,2.563477,-2.319336,-0.488281
3140,0.008911,-0.192749,0.976685,1.831055,-2.197266,-1.586914
3150,0.080566,0.012207,1.130493,0.915527,-2.380371,-2.563477
3160,0.083130,-0.059692,1.118774,0.793457,-2.868652,-3.234863
3171,0.082764,-0.232788,1.040405,2.502441,-2.319336,-3.906250
3181,0.101685,-0.002441,1.200073,3.173828,-2.502441,-3.662109
3191,0.050293,-0.122803,1.113159,4.089355,-2.685547,-2.685547
3200,0.003784,-0.259766,0.970093,4.943848,-2.563477,-1.586914
3210,-0.012573,-0.390625,0.903809,4.821777,-1.708984,-0.061035
3221,-0.053223,-0.375244,0.786987,3.601074,-1.098633,2.136230
3230,-0.078491,-0.112427,0.901978,1.892090,-0.915527,4.272461
3240,-0.111572,-0.037598,1.005615,0.549316,0.000000,6.530762
3251,-0.134644,-0.041870,1.064697,-0.671387,0.854492,10.131836
3261,-0.061523,-0.020996,1.137329,-1.403809,0.610352,10.803223
3271,-0.090332,0.024780,1.129272,-0.915527,0.488281,11.535645
3280,-0.050537,0.020996,1.092041,-0.366211,0.671387,11.779785
3291,-0.114380,-0.114136,0.999634,-0.061035,0.305176,11.840820
3300,-0.090698,-0.239502,0.911133,-0.244141,0.854492,11.718750
3310,-0.171753,-0.119141,0.837402,-0.488281,1.159668,11.474609
3321,-0.172363,-0.105225,0.744873,-0.854492,1.770020,8.850098
3331,-0.165283,-0.185059,0.748413,-2.075195,1.708984,6.835937
3340,-0.129150,-0.005859,0.892090,-3.295898,0.732422,3.784180
3350,-0.096924,0.105835,0.979614,-3.662109,0.305176,1.586914
3360,-0.018188,-0.007935,1.058350,-3.295898,0.610352,0.244141
3371,-0.007446,-0.180664,1.085449,-2.136230,0.854492,-0.427246
3380,0.038330,-0.164795,1.062012,-1.342773,1.098633,-0.244141
3390,0.045654,-0.021973,1.096069,-0.305176,2.746582,0.244141
3401,0.055176,-0.126343,1.064575,-0.061035,2.319336,-0.305176
3410,0.075439,-0.195679,0.924683,0.244141,2.014160,-1.220703
3420,0.072754,-0.144775,0.928467,0.366211,0.915527,-1.892090
3430,0.114014,-0.041870,1.060425,0.183105,0.427246,-2.563477
3440,0.094727,-0.091553,1.102051,-0.366211,0.183105,-2.746582
3450,0.076660,-0.197998,1.082153,-0.854492,0.061035,-2.807617
3461,0.001343,-0.247559,1.046875,-0.610352,0.000000,-2.014160
3471,-0.000977,-0.130127,1.084229,-0.915527,0.122070,-1.220703
3481,0.036377,-0.003784,1.160400,-1.098633,-0.244141,-0.854492
3490,-0.033813,-0.117798,1.112793,-0.549316,0.366211,-0.427246
3500,-0.060059,-0.070435,0.940063,-0.427246,-0.183105,-0.549316
3510,0.003784,-0.155884,0.868408,-0.427246,0.366211,-0.488281
3520,-0.013428,-0.043457,0.964111,-0.793457,1.098633,0.244141
3531,-0.008789,-0.301392,0.775146,-0.976562,0.976562,0.305176
3541,0.012451,0.000488,0.890381,-3.601074,1.037598,0.732422
3550,0.013672,0.086670,1.076294,-4.882812,0.610352,0.976562
3560,0.005005,0.028687,1.046753,-5.004883,0.732422,0.488281
3570,-0.036377,-0.218506,0.989990,-4.272461,1.403809,0.000000
3581,-0.022339,-0.167236,0.952759,-3.601074,1.525879,-0.549316
3590,-0.014038,-0.076782,0.979248,-3.479004,1.464844,0.549316
3602,-0.004517,-0.155029,0.875977,-2.624512,2.014160,1.647949
3612,-0.009277,-0.075439,0.892090,-2.075195,2.502441,2.502441
3621,0.007935,-0.293335,0.679199,-1.525879,2.197266,3.295898
3630,0.040771,-0.169800,0.808350,-1.892090,1.892090,3.540039
3640,0.059082,-0.177734,1.043457,-2.685547,1.708984,3.540039
3650,-0.022217,-0.006470,1.267578,-2.807617,1.525879,2.746582
3661,0.004028,-0.139648,1.181152,0.366211,1.831055,-1.220703
3671,0.049438,-0.508667,0.843750,0.305176,1.342773,-3.356934
3681,0.035156,-0.341064,0.814697,-1.464844,0.732422,-4.333496
3690,0.149536,-0.122192,0.897705,-2.441406,0.427246,-4.089355
3700,0.001953,-0.041748,0.978149,-2.929688,0.366211,-3.112793
3710,0.075562,-0.131348,1.024170,-3.112793,0.915527,-1.953125
3720,0.018066,-0.162476,1.031372,-3.540039,1.220703,-1.342773
3730,0.070190,-0.159546,1.056030,-3.845215,1.770020,-1.281738
3740,0.055298,-0.085327,1.128418,-4.760742,1.281738,-0.305176
3751,0.038086,-0.042603,1.071045,-4.455566,1.342773,0.122070
3761,0.001465,-0.105957,1.086792,-3.845215,1.037598,1.037598
3770,0.023926,-0.088135,1.054565,-3.356934,0.732422,1.403809
3781,0.029907,-0.061646,1.027832,-3.112793,1.098633,2.441406
3790,0.042114,-0.123047,1.032837,-3.234863,1.586914,3.662109
3800,0.023804,-0.017090,1.024658,-3.601074,1.586914,4.699707
3811,0.015869,-0.122681,0.901733,-3.723145,1.953125,5.859375
3821,-0.024292,-0.062012,0.836548,-3.723145,1.281738,5.676270
3830,0.039429,0.027222,0.946045,-3.662109,0.671387,5.676270
3840,0.013916,0.094360,0.978149,-4.333496,0.427246,5.920410
3851,0.030762,-0.020386,0.974121,-4.394531,0.854492,7.263184
3860,-0.046875,-0.072998,0.970581,-3.601074,1.647949,8.605957
3870,-0.027222,-0.072021,0.914795,-2.929688,1.831055,9.765625
3882,-0.036621,-0.126587,0.963379,-2.441406,1.525879,11.047363
3891,-0.038208,-0.145996,0.930664,-2.746582,1.403809,11.413574
3900,-0.100342,0.062134,0.929443,-2.624512,1.159668,11.901855
3910,-0.042236,-0.053345,0.931885,-1.098633,1.159668,12.023926
3921,-0.074219,-0.192139,0.954956,0.000000,0.854492,12.390137
3930,0.005127,-0.257568,0.971069,-0.183105,1.098633,12.329102
3942,-0.035767,-0.245728,1.054932,-0.793457,1.098633,11.718750
3951,0.047485,-0.112671,1.081909,-0.915527,0.854492,11.413574
3961,0.047607,-0.012085,1.044312,-0.488281,0.427246,10.864258
3970,0.099487,-0.065796,0.960815,0.122070,-0.305176,10.375977
3980,0.094116,-0.242920,1.013550,0.732422,-1.098633,9.460449
3990,0.117676,-0.057861,1.058716,0.488281,-1.525879,8.422852
4000,0.096802,-0.026611,1.070679,0.427246,-1.953125,7.751465
4011,0.111450,-0.066528,1.047974,0.549316,-3.356934,7.263184
4021,0.126221,-0.138428,0.998535,0.244141,-4.028320,6.713867
4030,0.144775,-0.171875,0.994751,-0.427246,-4.516602,6.286621
4040,0.144653,-0.298706,1.022949,-1.098633,-5.310059,5.004883
4051,0.126099,-0.193970,0.979492,-1.525879,-5.737305,3.662109
4060,0.092407,-0.063843,1.039917,-1.464844,-6.958008,2.014160
4070,0.044922,-0.040771,1.040405,-1.220703,-7.629395,0.305176
4080,0.076416,-0.096436,1.049805,-0.976562,-8.117676,-0.976562
4091,0.014526,-0.150635,0.981201,-1.037598,-8.178711,-2.441406
4101,0.020508,-0.125854,1.076050,-1.647949,-7.568359,-2.746582
4110,0.093628,-0.047241,1.067383,-1.098633,-8.056641,-3.173828
4120,0.022827,-0.152954,0.962891,0.061035,-8.422852,-3.601074
4130,0.134766,-0.244263,0.887451,0.671387,-8.483887,-3.662109
4140,0.124023,-0.302368,0.888672,0.427246,-8.483887,-4.455566
4150,0.034302,-0.260010,0.816772,-0.244141,-8.911133,-4.882812
4160,-0.019653,-0.169434,0.766479,-1.037598,-7.812500,-5.004883
4170,-0.008911,-0.147095,0.885376,-1.342773,-7.263184,-4.394531
4180,-0.114258,-0.294189,0.824341,-1.647949,-7.141113,-4.394531
4190,-0.074097,-0.270996,0.921875,-2.380371,-6.652832,-4.028320
4200,-0.051025,-0.061890,1.081543,-3.417969,-6.286621,-3.173828
4210,-0.062988,-0.004150,1.162231,-2.990723,-5.371094,-2.807617
4221,-0.130493,-0.106323,1.074585,-1.342773,-3.723145,-1.220703
4231,-0.149292,-0.236572,0.911987,-1.525879,-2.746582,-0.915527
4240,-0.201782,-0.267456,0.940186,-1.770020,-1.892090,-1.159668
4250,-0.181274,-0.190308,0.998413,-2.380371,-1.647949,-2.563477
4260,-0.115723,-0.094604,1.054443,-2.136230,-0.976562,-3.967285
4271,-0.099243,-0.116089,1.037476,-1.953125,-1.342773,-6.042480
4280,-0.041626,-0.149414,1.065308,-2.197266,-1.464844,-7.568359
4290,0.018799,-0.108032,1.131958,-2.624512,-0.976562,-8.361816
4301,0.029907,0.003418,1.074097,-2.807617,15.136719,-8.361816
4311,0.073730,-0.073975,1.016235,-2.258301,0.488281,-7.934570
4320,0.047852,0.010376,1.000122,-2.685547,0.122070,-7.751465
4330,0.037354,0.086182,1.058960,-3.051758,-0.549316,-7.751465
4340,0.063843,0.055298,1.097534,-2.441406,-0.366211,-7.934570
4350,0.101807,-0.047485,1.006226,-1.647949,-0.488281,-7.812500
4360,0.041382,-0.070679,0.903564,-1.525879,-0.610352,-7.690430
4371,0.070557,-0.177979,0.878540,-2.075195,15.441895,-6.408691
4381,0.116577,-0.149170,0.805908,-2.868652,0.732422,-6.286621
4390,0.039063,-0.056152,0.796021,-3.784180,0.244141,-6.347656
4400,0.068115,-0.152832,0.741699,-5.065918,-0.305176,-6.469727
4410,-0.011108,-0.219849,0.707153,-6.652832,-0.610352,-7.202148
4420,0.006714,-0.013306,0.791504,-7.568359,-0.427246,-7.507324
4430,-0.016846,0.054565,0.908936,-7.873535,-0.244141,-7.507324
4440,-0.028687,0.017700,0.970459,-6.103516,1.098633,-7.263184
4451,-0.038818,-0.088623,1.019775,-4.882812,1.647949,-6.408691
4461,-0.078491,-0.086182,0.958618,-4.150391,2.563477,-5.432129
4471,-0.075439,-0.155884,0.951904,-3.356934,3.112793,-4.150391
4480,-0.037720,-0.118530,0.912109,-3.417969,4.028320,-2.807617
4490,-0.029541,-0.027100,1.006836,-4.150391,4.638672,-1.403809
4501,-0.073242,-0.123657,1.080566,-3.967285,4.882812,1.159668
4511,-0.099487,-0.159546,1.096802,-3.601074,5.493164,2.685547
4521,-0.108032,-0.076294,1.113647,-3.479004,6.042480,3.601074
4531,-0.042847,-0.029907,1.131836,-2.807617,6.042480,4.760742
4540,-0.082520,-0.123169,1.025269,-1.770020,6.958008,5.920410
4550,-0.085815,-0.309204,0.931763,-1.525879,7.080078,6.530762
4560,-0.077759,-0.315063,0.934204,-1.831055,7.385254,6.652832
4570,-0.070557,-0.220703,1.014648,-2.563477,7.385254,6.835937
4581,0.014771,-0.189575,1.072144,-2.929688,6.713867,6.652832
4591,-0.007690,-0.044800,1.080444,-2.990723,6.103516,6.652832
4601,0.055542,-0.073120,1.210571,-3.295898,5.737305,6.530762
4610,-0.010986,-0.021851,1.175537,-3.295898,5.432129,6.652832
4620,0.040527,-0.093750,1.101196,-2.868652,5.920410,7.446289
4630,-0.014526,-0.131104,1.002075,-2.441406,6.286621,8.544922
4640,0.066284,-0.114380,1.015869,-2.197266,5.310059,9.643555
4651,-0.032959,0.005615,1.137329,-2.258301,5.004883,12.268066
4661,-0.117554,-0.071899,1.057007,-0.061035,5.798340,13.671875
4670,-0.075195,-0.146484,0.988037,1.586914,6.103516,14.587402
4680,-0.116089,-0.156006,1.004272,2.807617,6.835937,16.052246
4689,-0.054687,-0.143921,0.891357,3.784180,6.347656,17.089844
4700,-0.090576,-0.132690,0.874512,4.821777,5.920410,18.188477
4710,-0.054687,-0.280762,0.839844,5.249023,5.676270,19.409180
4719,0.019531,-0.308350,0.772705,3.784180,5.249023,20.141602
4731,0.004517,-0.202881,0.940918,3.295898,4.089355,19.897461
4740,-0.015137,-0.194580,0.886841,3.295898,3.234863,19.104004
4750,0.025391,-0.192749,0.887817,3.540039,2.929688,18.005371
4760,0.028931,-0.209106,1.023193,3.173828,2.197266,16.723633
4770,0.062134,-0.117065,1.065796,2.868652,0.671387,14.648438
4779,0.074707,-0.120483,1.071289,3.173828,-0.305176,12.817383
4792,0.118042,-0.246094,1.033325,3.845215,-2.441406,10.070801
4801,0.154175,-0.231567,0.964844,3.967285,-2.807617,9.094238
4811,0.131226,-0.214233,0.984863,3.906250,-3.234863,8.056641
4820,0.157837,-0.209717,1.004761,3.784180,-4.455566,7.690430
4830,0.135742,-0.191040,1.094604,3.784180,-3.540039,7.202148
4839,0.127441,-0.274902,1.203491,3.540039,-4.211426,6.103516
4850,0.089355,-0.343140,1.198120,2.502441,-4.638672,4.455566
4859,0.086182,-0.324097,1.095337,0.305176,-5.432129,-1.220703
4871,0.223633,-0.266357,1.159058,-0.427246,-5.554199,-4.089355
4881,-0.040649,-0.525513,1.148193,-0.854492,-5.920410,-6.530762
4890,0.200439,-0.325928,0.664307,-7.934570,-6.347656,-8.422852
4900,0.078491,-0.668213,-0.695190,-9.338379,-8.056641,-11.718750
4910,-0.009644,0.604004,0.619019,-16.967773,-9.094238,-14.221191
4921,-0.016846,0.514771,-0.206299,-35.705566,-11.291504,-19.042969
4931,0.175537,1.716064,0.311157,-40.527344,-7.446289,-16.601562
4940,-0.052246,1.114258,0.910645,-38.024902,-5.249023,-13.732910
4950,0.057251,0.316528,1.113892,-36.621094,-5.920410,-14.160156
4960,-0.133667,0.685303,1.479614,-40.039062,-6.774902,-15.930176
4970,0.015503,1.085693,1.373169,-40.649414,-6.347656,-15.808105
4980,-0.018677,0.947754,1.712036,-32.714844,-5.798340,-12.817383
4989,0.059204,1.131226,3.147827,-22.827148,-5.065918,-11.169434
5001,-0.069092,-0.274170,1.395630,-10.803223,-4.028320,-7.507324
5011,0.352539,-0.652710,1.494751,6.896973,-0.061035,-3.906250
5020,0.204468,-0.019653,2.414429,2.380371,0.610352,0.488281
5030,-0.170776,0.367065,1.500000,-4.455566,-1.037598,2.685547
5039,-0.310425,0.629761,-0.370117,-3.723145,-0.488281,6.042480
5050,-0.028442,0.769653,-0.869385,1.892090,4.455566,9.277344
5059,-0.094849,0.824219,0.747559,3.234863,7.873535,10.803223
5071,-0.478638,0.622070,1.193359,-3.479004,6.591797,10.498047
5081,-0.375732,1.241821,0.069702,-11.718750,8.972168,12.756348
5090,0.219971,1.652710,0.365601,-8.056641,12.695313,15.258789
5099,-0.018799,1.546631,1.902710,-2.990723,12.329102,18.798828
5110,-0.133179,0.569458,2.102295,0.122070,7.873535,19.409180
5120,-0.013794,-0.046265,0.698853,-1.037598,5.615234,18.310547
5130,0.469482,0.739014,0.207642,-6.530762,6.530762,18.371582
5139,0.471069,2.026978,1.350708,-11.413574,4.272461,25.756836
5151,-0.152710,0.062622,0.934692,-5.126953,2.868652,27.709961
5160,0.161499,-0.030640,0.355469,-2.990723,4.089355,27.343750
5170,0.534058,0.765259,0.898071,-5.920410,4.699707,27.038574
5180,0.125122,1.179199,2.074707,-9.521484,2.563477,28.320312
5190,-0.244507,0.078369,1.595825,-7.385254,-0.427246,26.733398
5200,-0.132690,-0.553101,0.473145,-3.112793,-2.380371,20.690918
5210,0.190186,0.484131,0.415161,-3.540039,-2.502441,12.084961
5221,-0.131958,0.397583,1.386719,-3.845215,-3.662109,10.803223
5231,-0.314209,-0.121948,1.161255,-4.760742,-4.394531,7.385254
5240,-0.140137,0.266235,0.544800,-8.117676,-4.333496,3.967285
5250,0.055908,1.150269,0.734253,-11.169434,-1.892090,3.784180
5260,-0.043701,1.110962,1.204468,-10.192871,0.000000,5.798340
5269,-0.128784,0.448853,1.218140,-7.080078,-1.098633,5.432129
5279,-0.198364,0.061157,0.871826,-8.605957,-2.563477,-1.464844
5291,0.124390,1.237793,1.104126,-10.070801,-2.197266,-2.502441
5301,0.036255,0.889038,0.969238,-7.751465,-2.075195,-1.953125
5311,0.011841,0.370850,0.757568,-4.638672,-2.136230,-2.136230
5320,0.079590,0.388672,0.858887,-4.882812,-2.258301,-2.868652
5330,0.211670,0.949585,1.152588,-7.263184,-2.380371,-3.234863
5341,0.110596,1.085327,1.104126,-6.835937,-2.563477,-2.014160
5351,-0.077148,0.343262,0.881958,-5.920410,-2.624512,-3.356934
5361,-0.049683,0.790405,1.149780,-7.019043,-2.990723,-4.882812
5370,-0.066406,0.745850,1.168701,-8.605957,-3.112793,-5.493164
5380,-0.158325,0.560425,0.993042,-9.155273,-2.746582,-5.187988
5390,-0.198120,0.442383,0.869263,-8.728027,-1.831055,-4.089355
5400,-0.145386,0.527222,0.913940,-7.873535,-0.854492,-2.990723
5411,-0.089111,0.734009,1.143433,-8.789063,1.220703,-0.854492
5421,-0.107910,0.469482,0.880005,-8.789063,1.220703,0.122070
5431,-0.054443,0.475342,0.887573,-8.117676,1.831055,0.488281
5440,-0.009644,0.754028,1.052979,-8.483887,2.685547,1.159668
5449,0.034790,0.713989,1.084106,-8.666992,2.868652,2.746582
5460,-0.022949,0.520508,1.006470,-8.911133,3.173828,4.455566
5470,-0.015991,0.538208,0.888672,-9.765625,2.929688,6.164551
5481,-0.000244,0.684570,0.882812,-9.826660,4.333496,10.253906
5491,0.007446,0.681274,1.002197,-9.704590,4.882812,12.023926
5501,0.009277,0.655762,0.956543,-10.498047,4.760742,12.451172
5510,0.019897,0.781616,0.914917,-11.291504,4.577637,12.329102
5520,0.052002,0.929199,0.946777,-11.718750,4.821777,12.084961
5530,0.048096,0.973755,1.039917,-11.535645,4.272461,11.901855
5540,0.004272,0.818481,0.951172,-10.803223,4.028320,11.718750
5551,0.045776,0.861206,0.880493,-9.399414,3.479004,12.268066
5560,0.111938,0.667236,1.039063,-7.873535,3.356934,12.207031
5571,0.190918,0.570557,1.029541,-7.934570,3.234863,12.268066
5580,0.207886,0.282227,0.968018,-6.103516,2.807617,12.145996
5590,0.247559,0.271362,1.048828,-4.272461,2.441406,10.864258
5599,0.189209,0.311035,1.076538,-3.234863,1.647949,9.338379
5610,0.131958,0.207764,0.991821,-1.037598,1.098633,7.629395
5619,0.101807,0.270264,0.944214,0.488281,0.488281,5.432129
5631,0.119019,0.239624,0.878662,2.380371,-0.549316,2.197266
5640,0.108154,0.362061,0.919678,6.469727,-2.563477,1.525879
5650,0.092651,0.370728,0.889648,8.789063,-3.051758,1.708984
5659,0.084229,0.369385,0.835449,11.413574,-3.356934,2.319336
5670,0.086060,0.454834,0.855225,13.610840,-3.295898,2.441406
5680,0.043823,0.524902,0.912354,16.113281,-3.234863,2.136230
5689,0.007813,0.586670,0.922363,18.981934,-3.906250,1.098633
5701,-0.079468,0.681030,0.822388,21.850586,-4.333496,-1.708984
5711,-0.080078,0.781860,0.802612,28.198242,-4.699707,-2.197266
5720,-0.054077,0.873169,0.790283,31.311035,-4.577637,-1.586914
5730,-0.025513,0.924072,0.759644,34.851074,-4.028320,0.488281
5739,-0.000488,0.969604,0.752075,38.818359,-3.479004,3.234863
5750,0.005615,0.133057,0.815308,43.212891,-3.112793,5.737305
5759,-0.191284,-2.506470,1.465576,44.372559,-2.502441,7.568359
5771,-0.447388,-1.040527,2.808838,26.611328,0.854492,8.544922
5781,-0.211304,-0.421753,1.052246,-2.441406,3.234863,11.352539
5790,0.135254,-0.509399,-0.120239,8.117676,4.455566,11.962891
5800,0.329834,-0.187500,0.487915,17.456055,4.150391,10.681152
5809,0.066895,-1.102661,0.804443,20.507812,2.746582,10.803223
5820,-0.259644,-0.949707,0.689209,13.061523,1.831055,11.230469
5830,-0.384155,-0.004150,0.554443,3.784180,0.061035,5.920410
5839,-0.194702,0.471069,0.663086,0.000000,-2.563477,-6.103516
5851,0.154419,-0.384644,1.637085,2.258301,0.915527,-3.601074
5861,0.345825,-0.442139,2.134277,4.211426,5.981445,0.305176
5870,0.237671,-0.061523,1.875854,3.967285,7.080078,2.990723
5879,0.120483,0.028320,1.422729,4.760742,3.295898,2.014160
5890,0.151978,0.004517,1.135254,6.591797,-1.159668,-1.586914
5901,0.154175,0.195679,1.116577,6.103516,-3.723145,-2.319336
5911,-0.072632,0.268311,1.099731,6.530762,-2.807617,-2.441406
5921,-0.194702,0.167725,0.986694,7.019043,-2.868652,-2.624512
5931,-0.241699,-0.010010,0.904175,8.361816,-2.136230,-3.051758
5940,-0.165405,-0.086304,0.880005,9.582520,-0.366211,-3.112793
5950,-0.113037,-0.022095,0.873657,10.498047,1.892090,-1.953125
5960,-0.073242,-0.253662,0.859985,11.962891,3.234863,-0.854492
5969,-0.064087,-0.431274,0.799683,13.732910,3.845215,-0.915527
5981,0.061157,-0.410767,0.734375,13.610840,3.479004,-0.976562
5991,0.127563,-0.208374,0.657593,8.850098,3.906250,0.183105
6000,0.130127,-0.013916,0.529785,6.103516,4.272461,2.197266
6009,0.084351,0.060669,0.501343,4.272461,4.028320,4.211426
6020,0.051270,-0.002075,0.589722,3.417969,3.479004,5.859375
6029,0.061523,-0.131592,0.734253,3.051758,3.173828,7.629395
6040,0.077637,-0.331421,0.769775,2.380371,3.051758,9.277344
6051,0.062256,-0.163696,0.814697,1.831055,2.685547,12.084961
6061,0.011963,-0.115723,0.912964,0.366211,1.892090,13.183594
6070,-0.054443,-0.193359,0.927979,0.305176,1.708984,14.221191
6079,-0.070435,-0.125122,0.999146,0.244141,1.647949,14.648438
6090,-0.095215,-0.030273,1.094849,-0.183105,1.220703,14.526367
6100,-0.080078,-0.274780,0.949829,-0.305176,1.464844,14.221191
6109,-0.068237,-0.004639,1.061401,0.244141,2.075195,13.610840
6121,-0.038452,-0.253296,0.987183,0.061035,1.831055,12.512207
6130,-0.029541,-0.244385,0.951050,-0.061035,2.319336,12.084961
6140,-0.027100,-0.156250,0.999390,-0.427246,2.685547,11.718750
6149,-0.000488,-0.165405,1.036499,-0.854492,3.234863,11.474609
6160,-0.026855,-0.137085,1.089722,-1.037598,3.540039,10.375977
6170,-0.037354,-0.147217,1.161499,-1.403809,3.845215,9.765625
6181,0.044922,-0.300659,1.079346,-1.586914,4.760742,9.277344
6191,0.013184,-0.183716,1.141113,-1.220703,4.272461,8.789063
6200,0.040161,-0.202148,1.066406,-0.915527,4.455566,8.605957
6210,0.057495,-0.190186,1.028931,-0.915527,4.089355,8.789063
6219,0.124512,-0.094604,0.972412,-1.098633,3.234863,8.483887
6230,0.159668,-0.019897,0.922363,-1.281738,2.990723,7.995605
6239,0.151855,-0.028198,0.901611,-1.403809,1.647949,7.385254
6250,0.150879,-0.044434,0.906372,-1.403809,1.098633,6.835937
6259,0.151123,-0.060547,0.931519,-1.525879,1.159668,5.798340
6271,0.105103,-0.181763,0.946411,-1.281738,1.525879,5.310059
6280,0.084106,-0.187378,0.923706,-1.281738,1.770020,4.699707
6290,0.035278,-0.185059,0.901855,-1.586914,1.586914,4.272461
6300,-0.006592,-0.180054,0.901611,-1.892090,1.647949,3.540039
6310,-0.038086,-0.157715,0.907471,-2.136230,1.708984,2.868652
6319,-0.042603,-0.132446,0.878296,-2.380371,1.647949,2.441406
6331,-0.014404,-0.004028,0.924072,-2.624512,1.403809,1.098633
6340,0.015625,-0.028687,0.997437,-2.807617,1.647949,0.732422
6350,0.015869,-0.134277,1.018433,-2.685547,2.197266,0.732422
6359,-0.007324,-0.023926,1.033936,-2.624512,3.051758,0.671387
6370,0.002563,-0.094116,1.045044,-2.441406,2.990723,0.915527
6380,-0.008057,-0.122681,1.040894,-2.136230,3.173828,1.037598
6389,0.041138,-0.093750,1.023560,-1.831055,3.173828,1.220703
6402,0.065796,-0.099609,1.022461,-2.014160,2.563477,0.976562
6411,0.058472,-0.065552,1.016968,-2.075195,2.380371,0.488281
6421,0.062500,-0.074829,1.011719,-1.708984,2.136230,0.244141
6430,0.061768,-0.065430,0.985352,-1.586914,2.014160,0.244141
6440,0.086060,-0.013306,1.033081,-1.953125,1.831055,0.122070
6450,0.109009,-0.049316,1.015137,-1.953125,1.770020,0.183105
6459,0.136841,-0.027710,1.010986,-1.892090,1.403809,0.183105
6472,0.140991,-0.077026,0.999390,-1.770020,0.244141,-0.610352
6481,0.108643,-0.070679,1.003906,-1.831055,-0.427246,-1.098633
6491,0.057739,-0.053711,1.000488,-1.647949,-0.854492,-1.159668
6500,0.033447,-0.055664,0.950317,-1.647949,-0.854492,-0.915527
6510,0.023560,-0.078369,0.971924,-1.586914,-0.061035,-0.183105
6519,0.011597,-0.099365,0.985107,-1.647949,0.305176,0.427246
6531,0.011963,-0.115112,0.997925,-1.342773,0.488281,0.915527
6541,0.002441,-0.157959,0.996338,-1.525879,0.732422,1.098633
6550,0.023315,-0.183228,0.997925,-1.525879,0.732422,1.403809
6560,0.024902,-0.169189,0.980469,-1.281738,0.610352,1.342773
6570,0.039429,-0.131836,0.943970,-1.586914,0.305176,1.220703
6579,0.058594,-0.096558,0.920776,-1.464844,0.305176,1.342773
6590,0.075317,-0.128418,0.929199,-0.732422,0.305176,1.342773
6600,0.082031,-0.166016,0.977905,-0.427246,-0.305176,0.854492
6611,0.067139,-0.038940,1.034058,-1.037598,-0.671387,0.915527
6621,0.058350,-0.005493,1.009033,-1.770020,0.061035,1.342773
6630,0.068848,-0.013672,0.981567,-1.281738,0.244141,1.953125
6639,0.085815,-0.055176,0.987915,-0.427246,0.000000,2.136230
6650,0.090820,-0.094482,1.020630,-0.305176,-0.244141,2.380371
6660,0.088745,-0.088135,1.046265,-0.549316,-0.488281,2.746582
6671,0.098022,-0.060181,1.049194,-1.220703,-0.305176,4.028320
6681,0.085571,-0.031494,0.982666,-0.793457,0.122070,5.004883
6690,0.108765,-0.080200,0.968506,-0.122070,0.061035,5.554199
6699,0.064819,-0.125854,1.004883,0.427246,-0.610352,5.554199
6710,0.104858,-0.165283,1.028198,0.000000,-0.854492,6.713867
6719,0.107300,-0.130493,1.038696,-0.549316,-1.342773,6.469727
6730,0.069580,-0.102295,1.020630,-1.159668,-1.342773,6.652832
6741,0.035522,-0.073364,0.972900,-1.098633,-1.220703,7.446289
6751,0.079590,-0.097412,0.951172,-0.610352,-1.159668,7.141113
6760,0.070190,-0.125244,0.973022,-0.183105,-1.831055,6.225586
6769,0.049683,-0.136597,1.003540,-0.366211,-2.380371,4.943848
6780,0.072754,-0.128052,1.045532,-0.793457,-2.502441,3.662109
6790,0.093872,-0.100952,1.022461,-0.793457,-2.685547,1.647949
6800,0.053711,-0.032837,0.975830,-1.037598,-3.234863,-0.244141
6810,0.043335,-0.076904,0.927979,-0.976562,-3.295898,-1.037598
6820,0.185913,-0.085449,1.009155,-0.549316,-4.272461,-1.586914
6830,0.160156,-0.065430,0.995605,-0.854492,-4.882812,-2.746582
6840,0.142578,-0.110962,0.971313,-0.854492,-5.310059,-3.601074
6850,0.150513,-0.021118,1.006348,-0.732422,-5.187988,-4.638672
6860,0.118164,-0.076782,0.969849,-0.610352,-5.310059,-5.432129
6869,0.081543,-0.063110,0.980225,-0.366211,-5.676270,-6.042480
6881,0.048950,-0.026611,1.002197,-0.366211,-5.920410,-4.943848
6891,-0.007690,-0.021606,1.015503,-0.549316,-5.187988,-3.112793
6901,-0.073975,-0.028564,1.029053,-0.488281,-5.126953,-1.159668
6910,-0.130615,-0.057373,1.011841,-0.549316,-5.065918,-0.122070
6920,-0.197021,-0.062256,1.029541,-0.427246,-4.577637,0.610352
6930,-0.284668,-0.037720,1.029785,-0.427246,-3.234863,-0.183105
6939,-0.251587,-0.104126,0.990356,-0.427246,-1.281738,0.305176
6950,-0.173096,-0.083740,0.977783,-0.305176,0.244141,-0.610352
6959,-0.127563,-0.092285,0.906982,-0.549316,0.610352,-2.868652
6970,-0.135132,-0.134766,0.919922,-0.854492,0.305176,-3.723145
6980,-0.019165,-0.140747,0.985229,-1.464844,-0.244141,-4.638672
6990,-0.031982,-0.129639,1.027832,-1.708984,-0.610352,-4.699707
7000,-0.039795,-0.137207,1.040649,-1.770020,-0.305176,-3.723145
7010,-0.015503,-0.162964,1.036133,-1.525879,1.037598,-1.831055
7020,0.029663,-0.191772,1.002930,-0.976562,1.892090,0.732422
7031,0.058105,-0.293823,0.930054,-0.366211,2.929688,4.638672
7040,0.068359,-0.292969,0.946777,-0.610352,2.868652,5.798340
7050,0.087524,-0.294312,0.968628,-1.159668,2.380371,6.286621
7060,0.101563,-0.295532,0.988647,-1.098633,2.075195,5.798340
7070,0.047363,-0.286377,1.000366,-0.915527,1.525879,5.187988
7080,0.027222,-0.287842,0.997070,-0.915527,1.037598,4.821777
7089,0.017944,-0.284302,0.981812,-0.671387,1.525879,4.760742
7101,-0.000488,-0.270020,0.951538,-0.793457,1.708984,5.065918
7110,-0.000977,-0.262939,0.949829,-0.854492,2.136230,6.103516
7120,-0.012939,-0.249268,0.952759,-1.037598,2.624512,7.141113
7129,-0.028198,-0.222900,0.964844,-1.220703,2.929688,8.361816
7140,-0.033325,-0.201172,0.978149,-1.342773,3.845215,9.887695
7149,-0.045410,-0.190796,0.990356,-1.281738,4.211426,11.474609
7160,-0.054687,-0.192261,0.999268,-1.464844,4.516602,13.427734
7169,-0.078857,-0.203491,0.995483,-1.525879,5.554199,17.456055
7181,-0.083008,-0.193970,0.979126,-1.525879,6.225586,19.714355
7191,-0.066772,-0.174194,0.971436,-1.647949,6.896973,22.521973
7200,-0.051758,-0.147339,0.977783,-1.647949,7.812500,25.817871
7210,-0.016846,-0.160400,0.969604,-1.037598,9.033203,29.479980
7220,0.009277,-0.196045,0.955322,-0.976562,9.887695,33.081055
7230,0.014771,-0.205933,0.950073,-1.098633,10.314941,36.132812
7239,-0.000854,-0.174072,0.953003,-1.831055,10.620117,41.015625
7250,-0.014648,-0.156128,0.973022,-1.953125,11.169434,43.151855
7260,-0.031006,-0.192261,1.002441,-1.708984,11.901855,45.532227
7269,-0.014038,-0.213257,1.015381,-1.525879,12.268066,47.729492
7280,0.002319,-0.216431,0.992432,-1.770020,13.122559,49.926758
7290,-0.016357,-0.218140,0.946655,-1.892090,13.671875,52.307129
7301,-0.035034,-0.189575,0.945435,-1.892090,15.319824,57.434082
7311,-0.062012,-0.141357,1.017334,-1.708984,15.808105,60.119629
7320,-0.084839,-0.191650,0.968506,-1.281738,16.845703,61.950684
7330,-0.084106,-0.213257,0.909546,-1.220703,17.272949,63.659668
7340,-0.059692,-0.139160,0.956421,-1.647949,18.127441,65.856934
7350,-0.034058,-0.109619,1.010864,-1.892090,18.981934,68.237305
7365,0.019165,-0.251343,0.932617,-1.159668,18.188477,70.556641
7374,0.000854,-0.219971,0.974365,-1.281738,18.554687,71.472168
7383,0.029663,-0.155640,1.029907,-2.014160,19.165039,72.692871
7393,0.046875,-0.175049,1.003174,-1.892090,19.653320,73.730469
7402,0.061646,-0.200195,0.939697,-1.403809,19.653320,73.974609
7412,0.073975,-0.188110,0.959473,-1.281738,19.836426,74.035645
7421,0.125122,-0.186890,0.997192,-1.037598,20.080566,74.707031
7431,0.147705,-0.225952,0.977051,-0.793457,19.836426,75.134277
7440,0.144165,-0.212402,0.991699,-0.854492,18.310547,75.073242
7452,0.191162,-0.174805,0.988281,-0.976562,18.371582,75.439453
7461,0.182129,-0.174194,0.977051,-0.671387,18.005371,75.622559
7471,0.161621,-0.168335,0.992798,-0.427246,17.333984,75.012207
7480,0.168213,-0.243408,0.974731,0.000000,17.028809,73.974609
7490,0.185303,-0.285034,0.969727,0.244141,16.906738,72.448730
7500,0.180054,-0.272827,1.022827,0.061035,16.296387,70.251465
7511,0.193970,-0.293701,1.015015,0.183105,14.282227,63.598633
7521,0.220947,-0.248535,0.997314,0.305176,12.817383,59.814453
7530,0.234863,-0.209595,0.981567,0.549316,11.169434,56.091309
7539,0.286377,-0.198730,0.944214,0.976562,9.582520,52.307129
7550,0.308228,-0.168701,0.946655,1.281738,8.239746,48.828125
7560,0.340698,-0.177246,0.945801,1.525879,6.835937,46.081543
7570,0.379517,-0.166382,0.981689,1.586914,5.493164,43.151855
7580,0.407837,-0.117554,1.020630,1.586914,3.906250,39.611816
7591,0.536987,-0.076172,1.013794,1.464844,1.159668,32.897949
7600,0.593506,-0.065308,1.018066,2.258301,-0.305176,29.174805
7610,0.570190,-0.071777,0.996460,2.563477,-2.502441,25.207520
7619,0.466309,-0.099609,0.995605,2.929688,-4.699707,21.240234
7630,0.293579,-0.120728,0.997192,3.417969,-6.774902,17.089844
7640,0.166016,-0.141602,1.016113,3.845215,-8.728027,12.023926
7651,0.059326,-0.140625,1.049805,3.845215,-10.253906,1.892090
7661,-0.089233,-0.241943,1.040771,3.112793,-10.009766,-2.807617
7670,-0.070557,-0.179932,1.013550,1.525879,-9.826660,-7.446289
7680,-0.007690,-0.159790,0.993530,0.366211,-10.070801,-12.451172
7690,0.089355,-0.077026,0.985718,-0.427246,-10.925293,-18.310547
7700,0.261475,-0.085449,0.977783,-0.854492,-11.352539,-24.108887
7710,0.358276,-0.127686,0.992676,-0.793457,-12.329102,-29.052734
7721,0.401001,-0.100830,1.030884,-1.220703,-14.831543,-38.330078
7731,0.482666,-0.052368,0.967041,-0.854492,-15.808105,-41.687012
7740,0.526733,-0.016846,0.953369,-0.488281,-16.967773,-44.860840
7750,0.548950,-0.058716,0.949829,0.061035,-18.676758,-47.973633
7760,0.511353,-0.129395,0.942627,0.183105,-19.958496,-50.109863
7770,0.446289,-0.077759,0.983643,-0.244141,-21.911621,-52.734375
7780,0.429932,-0.060547,0.997925,-0.183105,-23.376465,-55.541992
7790,0.370117,-0.114624,0.985718,0.000000,-23.620605,-57.006836
7801,0.359863,-0.018555,1.035767,-0.122070,-24.841309,-60.913086
7811,0.265015,-0.056152,0.970825,-0.122070,-25.085449,-61.340332
7820,0.406006,-0.048218,1.010742,-0.061035,-25.329590,-61.828613
7830,0.299194,-0.030884,0.885132,0.366211,-25.329590,-61.950684
7839,0.285889,-0.101196,0.964844,0.732422,-25.085449,-60.913086
7850,0.277100,-0.069946,0.932617,0.549316,-25.756836,-60.607910
7860,0.085693,0.045288,0.796875,0.122070,-27.160645,-60.607910
7871,0.054321,0.045776,0.975952,-15.563965,-25.573730,-58.959961
7881,-0.045532,-0.010254,0.895996,-0.183105,-23.376465,-56.274414
7890,-0.038452,-0.033203,0.986694,0.305176,-21.911621,-53.955078
7900,-0.036743,0.014771,0.938110,0.427246,-20.812988,-52.062988
7910,-0.064941,0.006592,0.914673,0.793457,-19.897461,-49.560547
7920,-0.067505,-0.053833,0.911133,0.915527,-19.348145,-47.180176
7931,-0.014282,-0.079224,0.977905,0.122070,-17.333984,-41.076660
7941,-0.147461,-0.028076,0.999512,0.000000,-15.747070,-38.391113
7950,-0.137207,-0.007446,0.998291,0.122070,-14.282227,-35.217285
7960,-0.156128,-0.063354,1.009644,0.366211,-12.756348,-32.470703
7970,-0.115967,-0.088135,1.028198,0.610352,-11.291504,-29.785156
7980,-0.093018,-0.097168,1.049805,0.122070,-10.253906,-26.916504
7990,-0.130005,-0.058472,0.983276,-0.061035,-9.399414,-24.108887
8001,-0.112061,-0.063110,0.958008,-0.244141,-7.446289,-19.042969
8011,-0.144043,-0.062866,0.972534,-0.366211,-6.530762,-17.028809
8021,-0.122437,-0.043213,0.997070,-0.610352,-5.432129,-15.441895
8030,-0.091919,-0.069458,1.026611,-0.976562,-4.089355,-14.038086
8040,-0.039551,-0.105591,1.012817,-1.220703,-3.112793,-13.122559
8050,0.073486,-0.085083,0.986694,-1.708984,-2.746582,-12.329102
8059,0.117432,-0.029053,1.007935,-2.136230,-3.234863,-11.352539
8071,0.159424,-0.060425,0.976318,-2.136230,-4.333496,-9.094238
8081,0.353394,-0.244751,1.029785,-2.136230,-4.089355,-7.812500
8091,0.281738,-0.078003,0.919434,-1.953125,-4.150391,-6.774902
8100,0.217163,0.146484,1.053589,-2.380371,-4.638672,-5.554199
8110,0.051025,-0.149780,1.127319,-2.075195,-4.821777,-5.065918
8120,0.073730,-0.298706,0.890869,-1.220703,-6.591797,-6.530762
8130,0.095825,-0.277100,0.806519,-0.671387,-6.958008,-7.141113
8141,0.040161,-0.083252,1.006714,-0.549316,-8.239746,-6.896973
8151,-0.193604,-0.284912,0.910278,0.488281,-7.629395,-7.019043
8161,-0.047729,-0.162964,0.968018,0.061035,-5.554199,-6.042480
8170,-0.037964,-0.186646,1.049927,-0.671387,-3.540039,-4.638672
8180,-0.136597,-0.231689,0.972290,-0.671387,-3.112793,-4.638672
8189,-0.196533,-0.123901,0.987671,-0.854492,-3.784180,-5.187988
8200,-0.112793,-0.106567,0.916260,-0.732422,-4.089355,-5.920410
8210,-0.084595,-0.179687,0.966309,-0.122070,-3.479004,-5.371094
8220,-0.074585,-0.124268,1.025879,-0.183105,-2.990723,-5.187988
8230,-0.082886,-0.150146,1.014038,-0.549316,-2.197266,-3.845215
8240,0.006470,-0.096924,1.033569,-0.793457,-1.464844,-2.014160
8250,0.077148,-0.172607,0.944702,0.000000,-0.671387,-0.488281
8260,0.114990,-0.187866,1.016846,-0.183105,-0.671387,1.281738
8270,0.094604,-0.205444,0.973389,-0.366211,-1.647949,2.136230
8279,0.076904,-0.187866,0.986938,-0.671387,-2.380371,2.319336
8291,0.036987,-0.068970,0.978638,-1.281738,-3.112793,3.356934
8300,-0.007324,-0.115479,0.949097,-0.732422,-2.380371,4.333496
8310,0.005859,-0.152222,0.977417,-0.915527,-1.708984,5.310059
8320,0.010254,-0.148315,0.947754,-1.220703,-1.464844,6.042480
8330,0.022095,-0.076538,1.019043,-1.831055,-1.586914,6.591797
8340,0.029175,-0.034668,0.997559,-1.892090,-1.708984,6.958008
8350,0.016968,-0.095337,0.964111,-1.525879,-2.502441,7.080078
8359,0.004028,-0.147949,1.002930,-1.708984,-2.136230,6.469727
8371,0.027832,-0.093750,1.000610,-2.136230,-2.197266,5.187988
8381,0.057251,-0.068115,1.002563,-2.075195,-2.136230,4.211426
8390,0.070435,-0.120728,0.972900,-1.403809,-2.990723,3.051758
8400,0.093384,-0.213379,1.004028,-1.342773,-3.723145,1.403809
8410,0.086060,-0.246460,0.954590,-1.708984,-4.882812,-0.244141
8421,0.102661,-0.153076,0.986450,-2.380371,-6.164551,-4.760742
8431,0.109497,-0.161133,0.983276,-1.586914,-6.896973,-6.896973
8440,0.093994,-0.219971,1.027588,-1.098633,-7.141113,-9.338379
8450,0.089844,-0.254883,0.982422,-1.342773,-7.873535,-12.390137
8460,0.071533,-0.178711,1.030151,-1.708984,-8.239746,-15.686035
8470,0.106689,-0.174805,1.009155,-1.464844,-8.972168,-18.920898
8480,0.061401,-0.245483,0.962646,-1.098633,-9.765625,-21.606445
8490,0.042603,-0.249634,0.988037,-1.159668,-10.864258,-26.611328
8502,0.017578,-0.170898,1.023193,-1.525879,-11.474609,-28.320312
8511,0.021729,-0.202026,0.995728,-1.159668,-11.413574,-29.541016
8521,0.000000,-0.281860,0.990112,-1.098633,-11.596680,-30.761719
8530,0.008423,-0.285400,0.963623,-0.976562,-10.864258,-31.799316
8540,0.020142,-0.270752,0.948364,-1.159668,-10.803223,-32.714844
8550,0.040649,-0.245728,1.010376,-1.281738,-11.047363,-33.630371
8561,0.016968,-0.272949,0.998901,-1.098633,-11.840820,-35.888672
8571,-0.010132,-0.237793,0.990723,-1.464844,-11.779785,-36.071777
8581,0.001343,-0.210449,0.984253,-1.647949,-11.535645,-35.766602
8591,0.010254,-0.159668,0.985474,-1.708984,-11.230469,-35.156250
8600,0.014404,-0.155518,0.991943,-1.525879,-10.864258,-34.667969
8610,0.025269,-0.165039,1.006836,-1.464844,-10.803223,-34.301758
8620,0.049561,-0.171021,1.025146,-1.647949,-11.291504,-34.790039
8630,0.060791,-0.135864,1.006714,-1.831055,-11.291504,-35.583496
8641,0.065918,-0.195923,0.995728,-1.281738,-12.145996,-37.841797
8651,0.049072,-0.161621,1.007813,-1.220703,-12.756348,-38.879395
8661,0.045410,-0.132324,1.029419,-1.342773,-12.695313,-39.611816
8670,0.057495,-0.169312,0.998901,-0.915527,-12.939453,-40.466309
8680,0.070190,-0.169678,1.004517,-0.793457,-13.122559,-41.381836
8690,0.027466,-0.191284,0.947754,-0.915527,-13.549805,-42.541504
8700,-0.015381,-0.174316,0.956909,-1.098633,-13.854980,-44.372559
8710,-0.061401,-0.201782,0.939331,-0.915527,-12.878418,-45.349121
8720,-0.071045,-0.190186,0.964722,-0.732422,-12.512207,-45.532227
8730,-0.140991,-0.238647,0.955322,-0.549316,-11.596680,-45.349121
8740,-0.167603,-0.260010,0.965820,-0.366211,-10.681152,-45.104980
8750,-0.144775,-0.298096,0.943726,-0.610352,-10.314941,-44.433594
8760,-0.134155,-0.266724,0.977783,-0.610352,-10.314941,-43.518066
8770,-0.121338,-0.307007,0.938354,-0.610352,-9.704590,-42.297363
8781,-0.141235,-0.256226,0.943237,-0.427246,-8.056641,-38.513184
8791,-0.180786,-0.246582,0.963135,0.061035,-6.652832,-35.766602
8800,-0.201172,-0.220581,0.979614,0.488281,-5.187988,-32.775879
8810,-0.219116,-0.221069,0.933716,0.610352,-3.723145,-29.479980
8819,-0.223511,-0.169556,0.972412,0.793457,-2.014160,-26.000977
8830,-0.212769,-0.214233,0.934937,1.281738,-0.305176,-22.460937
8840,-0.211792,-0.252197,0.926514,1.098633,0.488281,-16.662598
8852,-0.206909,-0.220947,0.965454,0.915527,2.075195,-13.916016
8861,-0.186157,-0.241455,0.971069,0.976562,2.746582,-11.413574
8871,-0.195068,-0.172241,0.999023,0.732422,3.662109,-8.972168
8880,-0.219238,-0.216064,1.000610,0.915527,4.211426,-6.835937
8890,-0.209229,-0.234009,1.019043,0.915527,5.371094,-4.821777
8900,-0.212891,-0.190308,1.025391,0.854492,5.798340,-2.136230
8910,-0.224243,-0.212524,1.006958,1.098633,6.286621,0.061035
8921,-0.214600,-0.274658,0.952026,1.342773,8.117676,3.845215
8931,-0.198730,-0.255371,0.943481,1.403809,8.911133,5.432129
8940,-0.193604,-0.239990,0.945923,1.159668,9.460449,6.958008
8951,-0.192139,-0.283691,0.958008,1.159668,9.887695,8.178711
8960,-0.146851,-0.271362,0.960449,0.732422,10.131836,9.277344
8970,-0.138672,-0.254639,0.974854,0.366211,10.437012,10.314941
8981,-0.124512,-0.247803,0.997437,0.061035,11.413574,12.145996
8990,-0.101685,-0.280518,0.931396,-0.183105,10.803223,12.817383
9000,-0.101929,-0.247803,0.980713,-0.305176,10.620117,13.732910
9011,-0.126953,-0.237549,0.975098,-0.915527,10.742188,14.709473
9020,-0.128906,-0.265991,0.931274,-0.732422,10.986328,15.869141
9030,-0.108887,-0.207031,0.922852,-1.281738,10.986328,16.845703
9040,-0.107910,-0.237305,0.954590,-1.892090,11.291504,17.761230
9050,-0.125854,-0.183960,1.021118,-2.197266,11.535645,18.432617
9061,-0.094482,-0.232544,1.050171,-2.380371,11.169434,19.714355
9071,-0.079102,-0.316895,0.957031,-2.014160,10.803223,20.324707
9081,-0.067627,-0.214844,0.990967,-1.831055,10.986328,20.751953
9090,-0.100220,-0.181030,0.991577,-1.892090,11.230469,21.545410
9100,-0.082886,-0.278687,0.955322,-2.014160,10.559082,22.216797
9110,-0.091064,-0.213257,0.939331,-2.624512,10.742188,22.460937
9120,-0.076416,-0.245117,0.933838,-2.746582,10.681152,22.216797
9131,-0.117188,-0.193237,1.001831,-2.746582,10.681152,21.667480
9141,-0.100464,-0.226318,0.949341,-2.807617,10.192871,21.118164
9151,-0.109253,-0.204346,0.973877,-2.868652,9.521484,20.690918
9160,-0.121582,-0.150269,0.983643,-2.563477,9.216309,20.141602
9171,-0.119751,-0.151001,1.020142,-2.502441,9.094238,19.470215
9180,-0.104980,-0.239014,1.011719,-1.831055,9.643555,19.409180
9190,-0.109131,-0.220459,0.969971,-1.647949,9.582520,18.005371
9200,-0.076660,-0.230347,1.002441,-1.220703,8.972168,18.005371
9210,-0.082886,-0.295410,0.959229,-0.976562,9.033203,18.066406
9220,-0.044678,-0.281738,0.941650,-0.793457,8.850098,17.944336
9231,-0.040771,-0.274414,0.956787,-1.159668,8.239746,18.005371
9240,-0.054932,-0.215210,0.989380,-1.342773,8.666992,18.249512
9250,-0.062866,-0.231079,1.014526,-1.281738,8.422852,18.249512
9260,-0.091797,-0.271606,1.003174,-0.793457,8.666992,18.249512
9271,-0.107544,-0.240479,0.972778,-0.244141,8.056641,18.005371
9281,-0.121582,-0.173828,0.963623,-0.183105,8.544922,17.578125
9290,-0.112305,-0.169434,0.941772,-0.122070,8.605957,16.967773
9300,-0.083496,-0.132202,0.970093,-0.793457,8.178711,16.418457
9310,-0.082275,-0.141968,0.974976,-0.732422,8.117676,15.991211
9321,-0.069946,-0.092285,1.030396,-0.976562,7.629395,15.625000
9330,-0.065796,-0.106567,1.052490,-0.915527,8.422852,16.052246
9340,-0.076904,-0.093506,1.021240,-1.037598,7.934570,16.479492
9351,-0.014038,-0.053955,1.002930,-1.647949,8.056641,17.089844
9360,0.026001,0.021729,1.014648,-2.136230,7.385254,17.395020
9371,0.036743,0.027588,1.057739,-2.014160,7.019043,17.639160
9380,0.022827,-0.015625,1.015259,-1.892090,6.408691,18.188477
9390,0.010620,-0.058838,1.018188,-1.647949,6.530762,19.104004
9400,-0.035522,-0.088501,1.001587,-1.525879,6.591797,19.531250
9410,-0.102295,-0.076782,1.030151,-1.037598,6.958008,19.409180
9420,-0.099731,-0.110229,0.956909,-0.488281,6.774902,19.042969
9430,-0.098755,-0.138550,0.974731,-0.366211,5.981445,18.615723
9440,-0.058105,-0.052368,1.034058,-0.122070,5.737305,19.042969
9451,-0.004272,-0.108643,1.025513,0.549316,5.920410,19.897461
9460,0.014038,-0.060181,1.015503,1.037598,5.737305,20.812988
9473,0.082642,-0.143555,0.951172,1.098633,6.103516,20.812988
9482,0.064819,-0.243530,0.815674,0.793457,4.760742,19.653320
9492,-0.007690,-0.234375,0.715332,-0.061035,3.112793,17.578125
9502,-0.034790,-0.168823,0.817749,-1.159668,2.502441,15.869141
9511,0.025146,-0.152832,0.906738,-2.990723,2.563477,14.709473
9521,0.044189,-0.224121,0.926880,-3.234863,2.868652,13.122559
9530,0.026611,-0.231445,0.924194,-3.784180,2.319336,11.413574
9543,-0.018188,0.059570,1.185669,-5.493164,1.770020,8.239746
9552,-0.097778,-0.110352,1.132080,-3.906250,1.831055,6.408691
9562,-0.123779,-0.247437,1.005005,-2.319336,2.014160,4.394531
9571,-0.137695,-0.316528,1.027832,-1.953125,1.953125,1.342773
9581,-0.056519,-0.112915,1.073486,-2.380371,1.647949,-1.586914
9590,-0.027710,-0.115234,1.040894,-2.197266,1.464844,-4.089355
9600,0.033936,-0.111450,0.950806,-1.892090,0.610352,-6.103516
9613,0.174072,-0.137329,0.947266,-1.708984,-0.366211,-8.422852
9622,0.182739,-0.166138,0.992920,-2.380371,-1.159668,-9.521484
9632,0.214233,-0.099365,1.032959,-2.868652,-1.708984,-10.742188
9641,0.194458,-0.143433,1.020752,-2.807617,-2.136230,-11.718750
9651,0.211548,-0.127441,1.043701,-2.685547,-3.112793,-13.061523
9661,0.180298,-0.185303,1.028198,-2.380371,-4.333496,-15.075684
9671,0.210571,-0.154175,0.977051,-2.258301,-4.699707,-17.150879
9680,0.172607,-0.184814,0.962158,-2.868652,-5.493164,-19.653320
9690,0.173584,-0.148193,0.933716,-3.173828,-5.187988,-19.714355
9701,0.108765,-0.098877,1.001221,-3.051758,-4.638672,-19.104004
9710,0.060059,-0.135864,1.020386,-2.380371,-4.272461,-18.127441
9720,0.048096,-0.174438,0.987061,-2.075195,-4.272461,-16.784668
9730,0.028320,-0.156738,1.007935,-2.258301,-4.394531,-15.625000
9740,-0.019897,-0.144043,1.050659,-2.380371,-4.333496,-14.282227
9751,-0.065308,-0.126099,1.040283,-1.342773,-2.685547,-12.634277
9761,-0.149902,-0.199097,1.005005,-0.915527,-1.892090,-11.779785
9771,-0.157349,-0.195435,0.963379,-1.037598,-0.732422,-10.864258
9781,-0.134521,-0.175415,0.948730,-1.159668,0.122070,-9.216309
9791,-0.131348,-0.145996,0.956665,-1.464844,1.342773,-7.568359
9800,-0.108521,-0.142822,1.006958,-1.403809,2.441406,-5.676270
9810,-0.121460,-0.172729,1.034546,-0.793457,3.173828,-3.845215
9820,-0.121582,-0.160400,1.045288,-0.610352,3.479004,-2.075195
9831,-0.074829,-0.196411,0.960083,-0.549316,4.943848,1.159668
9841,-0.070435,-0.185547,0.931763,-1.037598,5.126953,2.380371
9850,-0.054687,-0.219849,0.882935,-1.281738,5.310059,3.540039
9860,-0.066528,-0.259033,0.915771,-1.525879,5.676270,5.126953
9871,-0.035645,-0.194458,0.999634,-2.075195,6.225586,6.713867
9880,-0.010254,-0.209106,1.040283,-2.380371,6.835937,8.728027
9890,0.003296,-0.183716,1.024536,-2.258301,7.324219,11.901855
9900,0.024780,-0.114014,1.020020,-2.319336,7.202148,12.878418
9910,0.044800,-0.194458,0.989258,-2.136230,6.835937,13.549805
9920,0.012451,-0.139648,1.014526,-2.075195,5.798340,13.732910
9930,0.007080,-0.191040,0.988281,-2.014160,5.554199,13.854980
9940,-0.025024,-0.219971,0.967651,-2.380371,5.676270,14.160156
9950,-0.051514,-0.191040,0.931519,-2.502441,5.981445,14.160156
9961,-0.031250,-0.113037,0.996704,-2.563477,5.554199,13.488770
9971,-0.048340,-0.112915,0.991577,-2.624512,5.554199,12.329102
9981,-0.018677,-0.208252,0.972778,-1.647949,5.126953,10.559082
9990,0.018311,-0.382813,0.964111,-0.427246,5.065918,8.544922
10000,0.083862,-0.397095,0.987427,-0.305176,4.028320,6.103516
10010,0.077759,-0.295532,1.008667,-0.122070,3.356934,3.845215
10020,0.091187,-0.273315,0.972412,0.610352,1.892090,1.525879
10030,0.092163,-0.357300,0.943481,1.220703,1.464844,-0.549316
10041,0.185547,-0.319824,0.947998,1.098633,0.854492,-4.211426
10051,0.244629,-0.128784,1.024658,-0.244141,-0.244141,-6.225586
10060,0.237427,-0.268921,0.940796,0.671387,-1.647949,-7.995605
10070,0.275024,-0.373535,0.932983,1.220703,-2.746582,-9.826660
10080,0.271729,-0.252197,0.991821,0.549316,-3.295898,-11.596680
10090,0.265503,-0.094849,1.021118,-0.122070,-4.211426,-13.610840
10100,0.213989,-0.125977,1.000244,0.183105,-5.859375,-17.211914
10110,0.146729,-0.204834,0.959839,0.915527,-5.981445,-18.554687
10121,0.037354,-0.190918,0.948242,0.549316,-5.920410,-19.836426
10130,0.009399,-0.110474,1.022217,0.671387,-5.126953,-20.141602
10141,0.031616,-0.053223,1.105469,0.976562,-4.516602,-20.324707
10150,0.012085,-0.121826,1.052002,1.220703,-3.784180,-20.202637
10160,0.054443,-0.185059,1.036865,1.220703,-3.784180,-20.019531
10171,0.061768,-0.160767,0.951294,0.488281,-3.234863,-19.836426
10181,0.057495,-0.057007,1.005859,0.244141,-3.234863,-19.348145
10190,-0.011230,-0.044067,1.054443,0.122070,-2.380371,-18.371582
10200,-0.024048,-0.039673,0.998779,-0.122070,-1.342773,-17.150879
10210,-0.018799,-0.008057,1.103149,-0.061035,-0.366211,-15.930176
10220,-0.036499,-0.066040,1.033203,0.061035,0.671387,-14.648438
10231,0.031372,-0.160767,1.021484,0.183105,1.159668,-13.244629
10240,0.057373,-0.135498,1.020874,-0.183105,0.915527,-10.131836
10250,0.047852,-0.053467,1.042969,-0.061035,1.098633,-8.361816
10260,0.027588,-0.080933,1.065063,0.610352,1.220703,-6.164551
10271,-0.027954,-0.134644,0.982178,1.098633,1.708984,-3.967285
10280,-0.039917,-0.138184,0.994995,1.708984,2.685547,-1.892090
10290,0.010132,-0.110352,1.037598,1.953125,3.662109,0.244141
10300,-0.001709,-0.071777,0.961426,1.586914,4.089355,2.136230
10310,-0.028687,-0.093384,0.916016,1.159668,4.272461,6.408691
10321,0.007080,-0.218872,0.901367,0.488281,4.882812,8.972168
10331,-0.083252,-0.194580,0.909790,0.122070,5.981445,11.840820
10340,-0.138916,-0.071655,0.909668,0.305176,7.690430,14.892578
10350,-0.083862,-0.194824,1.025879,0.671387,9.277344,17.517090
10361,-0.026611,-0.211426,1.102905,0.854492,8.911133,18.371582
10370,-0.047852,-0.003906,0.965088,0.488281,7.751465,18.310547
10383,-0.194946,0.038330,1.016357,-0.793457,6.713867,21.057129
10392,-0.193237,-0.015015,1.022583,-0.305176,7.690430,23.010254
10402,-0.080444,0.009766,1.020874,0.000000,9.521484,26.062012
10411,-0.030029,-0.104858,1.021851,0.549316,11.413574,29.235840
10420,0.019043,-0.136597,0.996338,0.305176,11.840820,31.982422
10430,0.010986,-0.170654,1.088013,-0.061035,10.437012,33.142090
10440,0.010132,-0.010620,1.007935,-0.427246,8.789063,33.386230
10451,-0.008789,-0.010986,0.969360,-0.244141,7.568359,34.057617
10461,-0.033691,-0.105591,1.013672,0.183105,7.507324,34.973145
10470,-0.034546,-0.161011,0.945801,0.061035,7.385254,35.156250
10481,-0.026245,-0.138916,0.924805,-0.793457,6.652832,35.705566
10490,0.002686,-0.136597,0.910522,-1.220703,6.530762,36.621094
10500,0.032837,-0.169067,0.905762,-1.770020,6.469727,37.536621
10511,0.016846,-0.163330,0.955933,-1.770020,6.225586,37.719727
10520,-0.019775,-0.147461,1.018188,-1.647949,4.516602,35.949707
10531,-0.086060,-0.177124,1.039063,-1.281738,3.356934,34.118652
10541,-0.112793,-0.218262,1.023071,-1.159668,2.990723,31.799316
10551,-0.080078,-0.273071,0.997314,-0.976562,2.624512,29.724121
10560,-0.040039,-0.246704,0.926880,-0.610352,2.258301,27.709961
10571,0.000610,-0.288208,0.888428,-0.732422,1.831055,25.512695
10580,0.062012,-0.326904,0.901367,-1.098633,0.976562,23.925781
10593,0.118652,-0.251953,0.865112,-2.807617,-0.671387,20.080566
10602,0.133667,-0.237549,0.913574,-3.540039,-1.831055,17.700195
10611,0.124756,-0.209839,0.924927,-3.967285,-3.173828,15.258789
10621,0.148193,-0.192749,0.991089,-4.150391,-3.845215,12.878418
10630,0.127075,-0.163696,1.034912,-4.516602,-4.638672,10.864258
10640,0.138550,-0.093750,1.154297,-4.699707,-5.004883,9.582520
10650,0.148804,-0.076172,1.107422,-4.150391,-5.798340,8.605957
10662,0.148437,-0.162354,1.000366,-3.112793,-6.713867,7.568359
10672,0.128174,-0.182129,0.954712,-3.234863,-7.385254,6.958008
10681,0.086182,-0.195679,1.009521,-3.601074,-7.507324,6.103516
10690,0.052734,-0.070801,1.064941,-4.028320,-7.690430,5.310059
10701,0.013672,-0.064453,1.072021,-3.906250,-7.385254,4.333496
10710,-0.008667,-0.158325,1.034302,-3.356934,-7.202148,3.784180
10721,-0.017456,-0.161011,1.005737,-3.479004,-7.568359,2.990723
10730,0.014404,-0.157837,1.068237,-3.967285,-8.300781,0.854492
10740,0.015869,-0.116455,0.990234,-3.601074,-8.300781,0.000000
10750,0.009888,-0.187988,1.020264,-3.356934,-8.361816,-0.793457
10760,-0.042236,-0.169067,0.969360,-3.112793,-7.629395,-1.037598
10771,-0.058350,-0.222656,0.977905,-3.112793,-7.141113,-1.464844
10780,-0.025635,-0.169312,0.955078,-3.051758,-6.225586,-1.708984
10790,-0.051392,-0.159180,0.977661,-2.746582,-6.408691,-2.380371
10803,-0.078125,-0.224731,0.931396,-3.051758,-6.225586,-3.295898
10812,-0.014160,-0.163452,1.004028,-3.173828,-6.042480,-3.173828
10822,-0.030762,-0.134399,0.903564,-3.295898,-5.187988,-2.746582
10831,-0.053345,-0.196533,0.932739,-3.723145,-4.333496,-1.770020
10841,-0.031860,-0.140625,0.933960,-4.089355,-3.906250,-0.732422
10851,-0.038086,-0.121704,0.980225,-4.272461,-3.479004,0.366211
10860,-0.052368,-0.122681,1.017944,-4.577637,-2.563477,1.342773
10873,-0.078247,-0.019043,1.050659,-4.150391,-1.464844,3.173828
10883,-0.151123,-0.133057,0.996826,-3.662109,-0.610352,3.845215
10892,-0.125122,-0.097046,1.022217,-3.662109,-0.915527,4.272461
10902,-0.103638,0.019165,0.987427,-3.356934,-0.427246,4.760742
10912,-0.040527,-0.079712,0.944580,-2.868652,-0.122070,5.432129
10921,-0.032715,-0.108032,0.955933,-2.014160,0.183105,6.164551
10931,-0.002563,-0.045044,1.019775,-2.014160,0.671387,6.896973
10940,-0.009766,-0.075806,0.981079,-2.197266,0.488281,6.469727
10951,0.035156,0.012329,1.029419,-2.319336,0.732422,5.981445
10961,0.025635,-0.042847,0.971191,-1.831055,0.610352,5.493164
10970,0.073608,-0.050415,1.041016,-1.342773,0.122070,4.577637
10980,0.065552,-0.050049,1.077026,-0.610352,-0.183105,3.967285
10991,0.063721,-0.248169,1.011230,0.183105,-0.183105,2.990723
11000,0.086792,-0.222168,1.025879,0.488281,-0.549316,1.647949
11012,0.094360,-0.268555,0.977905,1.159668,-2.014160,-1.586914
11022,0.069702,-0.228149,1.039795,1.281738,-3.051758,-2.868652
11031,0.063110,-0.175049,0.999756,1.281738,-2.807617,-4.394531
11041,0.119873,-0.234131,0.971680,1.037598,-2.868652,-5.493164
11050,0.139893,-0.186157,0.970947,0.793457,-3.112793,-6.774902
11061,0.143188,-0.167236,0.945557,0.549316,-3.540039,-7.873535
11070,0.147461,-0.213379,0.916382,0.305176,-4.638672,-8.605957
11083,0.069214,-0.104248,0.986694,0.122070,-4.882812,-10.253906
11092,0.050659,-0.140747,0.961670,-0.305176,-4.699707,-10.742188
11101,0.007568,-0.085327,1.028076,-0.854492,-4.150391,-10.742188
11111,-0.020264,-0.056519,0.986938,-1.159668,-3.601074,-10.314941
11120,-0.035889,-0.061523,0.974854,-1.281738,-2.807617,-9.887695
11131,-0.030884,0.025391,1.038696,-1.708984,-2.014160,-9.094238
11140,-0.008789,-0.075073,1.021240,-1.586914,-1.770020,-8.361816
11152,-0.007202,-0.050293,1.030273,-1.403809,-1.403809,-6.713867
11162,-0.011353,-0.114258,0.991455,-1.525879,-0.915527,-6.530762
11171,0.028442,-0.099121,1.036865,-1.464844,-0.854492,-6.225586
11181,0.018433,-0.067749,1.027222,-1.281738,-0.732422,-5.371094
11190,0.011108,-0.143921,1.064087,-0.854492,-0.305176,-4.089355
11201,0.007202,-0.092041,1.016602,-0.366211,0.061035,-3.662109
11210,-0.006836,-0.156860,0.911865,0.366211,0.671387,-2.441406
11223,-0.022583,-0.230591,0.944702,-0.061035,2.014160,1.098633
11232,-0.043945,-0.131226,0.980225,-0.549316,2.197266,2.075195
11241,-0.081177,-0.124146,1.015747,-0.671387,2.624512,3.540039
11251,-0.071411,-0.135986,1.040039,-0.183105,2.929688,3.906250
11261,-0.073975,-0.143311,1.076782,0.671387,3.723145,3.906250
11270,-0.057861,-0.205566,1.026245,1.220703,3.662109,3.906250
11281,-0.037476,-0.269287,0.823730,1.220703,3.723145,3.723145
11293,0.015381,-0.164185,0.924927,0.061035,3.479004,5.126953
11302,0.002563,-0.341309,0.764160,0.000000,3.356934,5.371094
11311,-0.004150,-0.268555,0.816040,-0.976562,3.601074,5.554199
11320,0.020386,-0.085205,1.032593,-2.746582,3.723145,5.615234
11331,0.030273,-0.050903,1.099365,-2.624512,4.089355,5.187988
11340,0.001099,-0.314331,0.888916,-1.464844,3.723145,5.126953
11350,0.016846,-0.385010,0.857910,-1.953125,3.967285,4.821777
11363,0.082275,-0.062622,1.019897,-3.967285,3.723145,3.906250
11372,0.074951,-0.227173,0.992676,-3.417969,2.624512,2.624512
11381,0.034912,-0.190918,1.020874,-3.234863,2.441406,1.831055
11390,0.048340,-0.212158,0.956177,-3.723145,1.586914,0.915527
11401,0.036133,-0.111816,0.967773,-4.211426,1.281738,0.000000
11411,0.046265,-0.100708,0.940552,-4.394531,2.075195,-0.061035
11420,0.008423,-0.171753,0.983643,-4.821777,2.685547,0.244141
11432,0.031006,-0.100708,1.050903,-3.967285,2.502441,-0.183105
11442,0.093140,-0.100098,1.062866,-3.479004,1.953125,-0.671387
11451,0.090942,-0.276733,0.942261,-3.051758,1.403809,-1.159668
11460,0.143555,-0.129883,0.975098,-3.417969,1.342773,-1.342773
11471,0.133667,-0.103638,1.021240,-3.662109,0.976562,-1.037598
11480,0.127930,-0.106689,1.053467,-3.540039,0.122070,-0.549316
11491,0.125610,-0.157959,1.046265,-2.990723,1.281738,0.488281
11502,0.110229,-0.094360,1.067139,-2.685547,1.098633,1.647949
11511,0.065796,-0.178345,1.004883,-2.502441,0.366211,1.403809
11521,0.086304,-0.203735,0.961182,-2.563477,-0.305176,1.464844
11531,0.063232,-0.107788,0.950806,-2.624512,-0.549316,1.647949
11540,0.042236,0.011597,1.037354,-2.441406,-0.366211,1.770020
11551,-0.009155,-0.176392,0.924072,-2.075195,-1.220703,1.770020
11562,-0.018311,-0.210815,0.920532,-2.868652,0.854492,2.807617
11571,0.004150,0.052246,1.069824,-3.173828,0.915527,3.662109
11582,-0.038208,0.016479,1.019653,-3.051758,0.732422,4.089355
11591,-0.062134,-0.048462,1.013794,-2.929688,0.793457,4.211426
11601,-0.016968,-0.049683,1.050293,-3.173828,0.732422,4.394531
11610,-0.046143,-0.060181,1.050781,-3.540039,0.610352,4.882812
11621,-0.015015,0.040771,0.986084,-3.906250,0.915527,5.615234
11630,-0.025146,-0.106323,0.959229,-3.295898,2.075195,6.835937
11643,0.033325,-0.098999,1.050415,-2.685547,2.624512,9.460449
11652,0.025269,0.012817,1.106323,-2.502441,2.685547,10.437012
11661,0.047729,-0.067383,1.020874,-1.525879,2.014160,11.474609
11670,0.060547,-0.097046,0.972168,-0.610352,1.647949,12.329102
11681,-0.005981,-0.216431,0.899048,0.000000,1.708984,13.549805
11690,-0.020142,-0.053833,0.875732,-0.244141,1.464844,14.770508
11702,-0.052368,-0.035278,0.924316,1.647949,2.380371,17.944336
11711,-0.038208,-0.183960,0.913696,1.403809,3.356934,19.714355
11721,-0.073975,-0.177979,0.967529,1.098633,3.723145,21.362305
11730,-0.061035,-0.087524,1.082397,0.427246,3.417969,22.521973
11741,-0.056519,-0.100708,0.991699,0.244141,2.868652,23.376465
11751,-0.013550,-0.063843,1.010620,0.305176,2.441406,23.864746
11760,0.009766,-0.185913,0.960815,0.305176,1.831055,23.681641
11771,0.044678,-0.140991,1.021606,0.061035,0.976562,22.705078
11782,0.040161,-0.022705,1.072998,0.183105,-0.793457,19.714355
11791,0.005371,-0.216187,0.993652,0.976562,-1.159668,18.920898
11801,-0.001465,-0.108154,1.048828,0.976562,-0.976562,18.188477
11810,-0.008179,-0.246094,1.010498,1.220703,-0.915527,17.395020
11821,0.019409,-0.098877,1.038574,1.159668,-1.220703,16.601562
11830,0.022339,-0.271484,0.936157,0.976562,-1.831055,15.991211
11841,0.092651,-0.111572,1.070557,0.488281,-2.868652,15.136719
11852,0.133789,-0.126831,1.112671,0.549316,-3.845215,14.282227
11861,0.132324,-0.176514,0.998413,0.061035,-5.615234,11.779785
11871,0.074585,-0.118286,1.019165,-0.061035,-6.103516,10.681152
11881,0.076050,-0.215576,1.024658,0.183105,-6.164551,9.948730
11891,0.042114,-0.153442,0.964722,0.427246,-6.164551,9.033203
11900,0.064697,-0.220093,0.907104,0.427246,-6.652832,7.995605
11911,0.041138,-0.257324,0.949097,0.549316,-6.835937,7.141113
11922,0.029419,-0.196045,1.019043,0.305176,-7.690430,4.638672
11931,0.065552,-0.190918,0.935669,0.366211,-8.789063,3.234863
11940,-0.051758,-0.216675,0.914551,0.427246,-9.338379,1.586914
11951,0.011963,-0.316406,0.892822,-0.122070,-8.850098,0.305176
11960,-0.015259,-0.156494,0.988403,-1.098633,-8.361816,-0.610352
11971,-0.013794,-0.169067,0.938965,-1.586914,-8.483887,-1.220703
11980,-0.040283,-0.157959,0.897095,-1.403809,-7.934570,-1.770020
11992,-0.055664,-0.182251,0.966797,-1.586914,-7.629395,-2.502441
12001,-0.069824,-0.079468,1.071045,-1.403809,-6.958008,-2.014160
12011,-0.092773,-0.307373,0.932251,-1.281738,-5.981445,-1.403809
12020,-0.083618,-0.093628,1.009521,-1.281738,-4.943848,-0.915527
12031,-0.115479,-0.168335,0.948364,-1.403809,-4.760742,-0.244141
12040,-0.141235,-0.075073,0.955688,-1.403809,-4.272461,-0.183105
12052,-0.110962,-0.144043,1.045044,-1.281738,-3.662109,0.244141
12061,-0.102173,0.003418,1.089600,-1.159668,-3.601074,0.061035
12072,-0.078247,-0.087891,1.079590,-0.610352,-2.990723,0.366211
12081,-0.032227,-0.005005,1.089600,-0.244141,-2.624512,0.549316
12091,-0.043701,-0.199829,1.016357,0.244141,-2.136230,0.915527
12101,-0.032349,-0.130615,0.962402,0.366211,-1.647949,1.525879
12111,-0.035889,-0.133301,0.989868,0.244141,-1.525879,1.831055
12122,-0.007324,-0.147705,0.934082,-0.732422,-1.831055,0.122070
12131,-0.013794,-0.152222,1.015869,-0.488281,-1.831055,-1.403809
12141,0.013550,0.026001,1.076782,-0.183105,-2.685547,-3.417969
12150,0.064331,-0.199341,0.980957,0.488281,-2.807617,-4.699707
12161,0.030640,-0.127197,1.001465,0.488281,-2.502441,-5.737305
12170,0.059937,-0.139893,0.953857,-0.122070,-2.380371,-6.286621
12180,0.069214,-0.086548,0.946899,-0.671387,-2.014160,-6.835937
12191,0.125244,-0.063599,0.936768,-0.976562,-2.380371,-7.446289
12200,0.141846,-0.174561,0.906006,-1.464844,-2.746582,-9.216309
12212,0.152832,-0.176880,0.981079,-1.708984,-3.417969,-10.437012
12221,0.131592,-0.003418,1.071167,-1.831055,-3.906250,-11.718750
12230,0.067139,-0.196167,0.994873,-1.098633,-3.967285,-12.878418
12240,0.019531,-0.055786,1.126587,-0.427246,-4.211426,-14.099121
12251,-0.041016,-0.146484,0.999390,0.427246,-3.234863,-15.319824
12260,0.017212,-0.183350,0.996216,0.976562,-2.441406,-16.113281
12272,-0.012817,-0.243774,0.844971,1.220703,-2.258301,-18.249512
12281,-0.030396,-0.031250,1.018921,0.549316,-2.441406,-18.249512
12291,0.022339,-0.126709,0.849487,0.732422,-1.220703,-17.089844
12300,0.056763,0.023804,1.034790,0.732422,-0.732422,-16.052246
12311,0.026245,-0.178345,0.915039,0.793457,0.000000,-14.587402
12321,0.034546,-0.038940,1.025391,0.305176,0.610352,-12.939453
12330,0.045532,-0.028687,1.047852,0.122070,0.976562,-11.230469
12343,-0.038696,0.126831,1.093872,0.061035,1.831055,-7.751465
12352,-0.193481,-0.211914,0.889648,0.305176,2.685547,-6.042480
12361,-0.122803,-0.024536,0.981323,0.305176,4.638672,-4.089355
12371,-0.166992,-0.259521,0.913574,0.671387,6.713867,-1.831055
12380,-0.107178,-0.169922,0.914307,0.305176,6.896973,-0.732422
12394,-0.067261,-0.186523,0.861694,-0.671387,7.141113,1.342773
12404,-0.086426,-0.210693,0.874878,-1.464844,7.324219,1.708984
12413,-0.053955,-0.160522,1.038940,-2.258301,7.385254,1.892090
12423,-0.049316,-0.100708,1.065186,-2.929688,7.812500,2.441406
12432,-0.029663,-0.196167,0.969238,-2.990723,8.056641,2.868652
12442,0.011108,-0.009155,1.036865,-3.051758,8.666992,3.417969
12451,0.029175,-0.222900,0.873169,-3.112793,9.094238,4.455566
12460,0.036133,-0.060547,1.022339,-3.295898,9.155273,5.493164
12471,0.068970,-0.126221,1.032349,-3.356934,9.033203,6.347656
12482,-0.028564,-0.016357,1.120605,-3.234863,9.643555,9.155273
12492,-0.085205,-0.236450,0.911377,-2.258301,9.765625,10.070801
12501,-0.038574,-0.042725,1.008179,-2.197266,9.887695,11.413574
12511,-0.044922,-0.210449,0.973022,-1.708984,10.009766,12.878418
12521,-0.038086,-0.172119,0.992187,-1.525879,10.253906,14.404297
12530,-0.072266,-0.103882,0.974243,-1.342773,10.559082,16.235352
12540,-0.046753,-0.282837,0.810791,-1.525879,10.498047,17.456055
12553,-0.028809,-0.226685,0.937500,-3.112793,9.948730,19.348145
12562,-0.031372,0.028564,1.016602,-3.723145,9.521484,19.287109
12572,-0.023071,-0.243896,0.980225,-3.479004,9.887695,19.409180
12581,-0.056274,-0.206787,0.943848,-3.479004,9.460449,18.859863
12590,0.020020,-0.050049,1.067383,-3.662109,9.338379,18.371582
12601,0.015137,-0.271851,0.886841,-3.723145,8.728027,18.066406
12610,0.095703,-0.024170,1.011108,-3.845215,7.690430,17.456055
12623,0.073853,-0.255005,0.997314,-3.356934,6.713867,18.249512
12632,0.081177,0.008911,1.091431,-3.601074,6.164551,18.066406
12641,0.060913,-0.245361,1.009033,-3.540039,5.981445,17.700195
12651,0.058716,-0.048828,1.040161,-3.784180,5.371094,17.272949
12661,0.053955,-0.016357,1.031616,-3.845215,4.699707,16.540527
12670,0.024414,-0.127686,0.876465,-3.601074,3.967285,15.502930
12681,0.001099,0.013916,0.989868,-3.479004,4.028320,15.014648
12692,-0.003540,0.096558,0.991699,-3.784180,3.295898,15.014648
12702,0.029907,0.039429,0.999146,-4.638672,3.234863,15.258789
12711,0.026245,0.027344,0.939453,-4.516602,2.929688,15.136719
12721,0.038940,0.080200,1.068115,-4.150391,2.624512,15.625000
12730,0.010132,-0.202271,0.914795,-3.295898,2.258301,15.808105
12741,0.030884,0.037598,1.028564,-3.295898,1.892090,15.563965
12750,0.050415,-0.192505,0.934814,-2.807617,1.647949,15.869141
12763,0.125977,-0.133301,1.028198,-2.624512,1.098633,17.211914
12772,0.087524,-0.299316,0.939331,-2.563477,0.915527,18.066406
12781,0.103882,-0.005493,1.132324,-2.502441,0.549316,18.432617
12791,0.068726,-0.216431,1.044189,-2.197266,-0.305176,18.432617
12801,0.048218,-0.205078,1.063599,-2.136230,-0.610352,18.432617
12810,0.075317,0.073975,1.188965,-1.586914,-1.098633,18.554687
12821,0.066406,-0.234741,1.067017,-0.427246,-1.586914,18.371582
12830,0.039795,-0.322144,0.998901,0.366211,-2.502441,17.700195
12842,0.060181,-0.225708,0.985229,-0.305176,-2.624512,17.150879
12851,0.022949,-0.037231,0.953125,-0.915527,-3.356934,16.296387
12861,0.067139,0.122437,1.111572,-1.037598,-4.272461,15.136719
12870,0.006958,-0.254517,0.948364,-0.732422,-5.004883,13.977051
12881,0.043091,-0.013184,1.047852,-1.037598,-4.760742,12.878418
12890,0.065186,-0.027344,1.098755,-0.732422,-5.432129,12.023926
12902,0.094360,0.049072,1.154419,-0.854492,-5.554199,9.826660
12911,0.114014,-0.064209,1.127197,0.549316,-6.958008,8.666992
12921,0.067627,-0.327026,0.958374,2.075195,-6.958008,7.568359
12931,0.073242,-0.204712,1.087524,2.807617,-7.385254,6.225586
12940,0.070557,-0.225098,1.052490,2.990723,-8.361816,4.882812
12951,0.041504,-0.265991,0.915161,2.746582,-8.422852,3.723145
12960,0.078735,-0.133423,0.952026,2.624512,-8.789063,2.868652
12972,0.120361,-0.261475,0.865112,2.868652,-8.789063,2.441406
12981,0.119873,-0.123535,0.998535,1.770020,-9.765625,1.647949
12990,0.085571,-0.380615,0.928467,2.075195,-9.704590,1.525879
13001,0.076904,-0.160889,0.920776,1.770020,-9.521484,1.159668
13011,0.070312,-0.060059,0.982788,1.708984,-9.948730,1.220703
13020,0.011719,-0.352295,0.771240,1.647949,-9.826660,1.220703
13031,-0.004761,-0.168701,0.837158,1.098633,-9.643555,1.281738
13040,0.005249,-0.083496,0.921509,1.220703,-9.338379,0.671387
13052,-0.060425,-0.165771,0.912842,0.915527,-9.216309,0.061035
13061,-0.057739,-0.021606,1.051880,1.037598,-9.399414,-0.122070
13071,-0.043091,-0.171509,1.081909,0.976562,-8.544922,-0.488281
13080,-0.087769,-0.095581,1.080811,0.854492,-7.995605,-0.854492
13091,-0.047119,-0.105347,1.101563,1.098633,-7.629395,-0.549316
13101,-0.051392,-0.302002,0.970337,0.854492,-6.835937,-0.427246
13110,-0.039307,-0.235107,0.933960,-0.671387,-6.835937,-0.305176
13122,-0.104980,-0.249023,0.963989,-0.793457,-6.225586,-0.122070
13131,-0.069092,-0.193726,1.027954,-1.098633,-4.943848,-0.061035
13141,-0.033813,0.094482,1.173950,-1.281738,-4.699707,-0.976562
13151,-0.018311,-0.027588,1.136475,-1.037598,-5.249023,-2.136230
13160,0.020874,-0.157715,1.113647,-0.671387,-5.371094,-3.112793
13171,0.055908,-0.021484,1.138184,-0.427246,-5.920410,-4.089355
13181,0.085449,0.031982,1.094482,0.732422,-5.432129,-3.479004
13191,0.040527,-0.115356,1.031738,0.732422,-5.432129,-3.295898
13201,-0.015259,-0.110718,0.944214,0.122070,-4.760742,-2.807617
13210,0.014160,0.028320,0.942383,-0.671387,-4.943848,-2.685547
13221,-0.018921,-0.140869,0.874512,-1.281738,-5.187988,-2.929688
13230,0.006836,0.027832,0.994385,-2.258301,-4.943848,-3.601074
13242,0.042480,0.074707,1.077148,-3.234863,-3.540039,-4.272461
13251,-0.006714,0.086670,1.172241,-2.685547,-3.112793,-4.821777
13261,-0.032471,0.004639,1.215332,-1.464844,-2.929688,-5.310059
13270,-0.013184,-0.136475,1.101929,-0.488281,-2.380371,-5.981445
13281,-0.015625,-0.149780,1.044312,0.549316,-3.051758,-6.591797
13291,0.039063,-0.070068,1.013550,1.281738,-3.112793,-7.263184
13300,0.011353,-0.238647,0.930176,1.647949,-3.173828,-7.751465
13311,-0.007324,-0.311157,0.750366,1.525879,-3.356934,-8.239746
13321,0.046631,-0.109497,0.875732,1.098633,-3.051758,-9.521484
13330,-0.014282,-0.241089,0.850586,0.610352,-2.441406,-10.253906
13340,0.059570,0.033081,0.981567,0.366211,-2.136230,-10.864258
13351,0.058838,-0.212158,1.033813,1.159668,-1.892090,-11.840820
13360,0.027710,-0.223755,0.976929,1.831055,-2.197266,-12.695313
13371,0.066650,-0.049072,1.050415,2.197266,-2.441406,-13.488770
13380,0.057983,-0.368408,0.969604,2.441406,-2.319336,-12.573242
13392,0.053589,-0.063232,1.024414,2.075195,-1.708984,-10.009766
13401,-0.033081,-0.041016,0.922241,1.647949,-0.610352,-8.361816
13411,-0.024048,-0.134888,0.914307,1.770020,0.366211,-7.202148
13421,-0.002563,-0.038086,0.938721,1.831055,1.525879,-6.164551
13431,-0.090454,-0.097534,0.939819,1.770020,2.014160,-5.737305
13441,-0.153198,-0.104370,0.889526,1.403809,2.380371,-4.699707
13450,-0.107422,-0.081177,0.977539,0.976562,3.417969,-2.868652
13462,-0.073364,-0.271973,0.911133,0.244141,4.638672,-0.732422
13472,-0.073975,-0.062500,1.012573,-2.014160,5.126953,-0.122070
13481,0.045898,0.164795,1.188965,-2.868652,5.187988,-0.122070
13490,-0.043823,-0.163818,1.085327,-2.868652,5.371094,-0.793457
13500,-0.003540,-0.142700,0.966553,-2.380371,4.882812,-1.831055
13511,0.032959,0.054199,1.058716,-2.136230,5.126953,-2.441406
13520,0.053711,-0.303833,0.922974,-2.258301,4.272461,-2.502441
13532,0.017700,0.006104,1.042114,-2.624512,4.394531,-0.732422
13541,0.046997,-0.280762,0.958374,-2.563477,5.554199,0.427246
13550,-0.011963,-0.275269,0.928223,-2.685547,6.469727,1.342773
13561,0.052002,-0.068726,1.053467,-3.784180,6.103516,1.831055
13571,0.049561,-0.250977,0.936157,-4.821777,5.493164,1.464844
13580,0.060913,-0.173706,0.952148,-5.493164,4.699707,1.037598
13590,0.070435,0.100830,1.089966,-5.432129,4.760742,1.098633
13602,0.080688,-0.203125,0.913208,-5.004883,4.577637,0.854492
13611,0.104980,-0.053833,1.110840,-4.150391,4.272461,1.037598
13621,0.069092,-0.102417,1.031250,-3.662109,3.967285,1.647949
13631,0.068481,-0.196533,0.981323,-3.295898,3.906250,2.136230
13640,0.142700,-0.086670,1.025269,-2.746582,3.540039,2.685547
13651,0.110229,-0.197876,1.049805,-2.136230,3.112793,3.295898
13660,0.072266,-0.280640,0.943237,-2.014160,2.380371,3.173828
13672,0.044556,-0.142944,1.021729,-1.770020,2.746582,4.150391
13681,0.047852,-0.329834,0.984253,-1.586914,2.929688,5.126953
13691,0.009033,-0.202759,0.971436,-1.647949,2.868652,5.615234
13701,0.061157,0.034912,1.077393,-1.647949,2.136230,6.530762
13711,0.022461,-0.067627,1.107910,-1.098633,2.502441,7.812500
13721,0.015991,-0.262451,0.917969,-0.976562,2.563477,8.911133
13731,-0.031250,-0.430298,0.422119,-0.915527,2.441406,9.887695
13740,-0.016357,-0.347778,0.243652,-7.080078,2.441406,11.291504
13752,-0.039429,0.289917,0.965332,-10.986328,2.014160,10.864258
13762,-0.009521,1.201416,2.346069,-11.291504,2.075195,10.620117
13771,-0.028198,0.768921,2.237183,-4.333496,2.929688,10.681152
13781,-0.292358,-0.297729,1.347900,4.211426,3.417969,10.437012
13790,-0.230103,-0.489990,1.126099,6.896973,4.699707,10.192871
13802,0.004395,-0.466309,0.770996,6.774902,1.220703,8.239746
13811,0.088013,-0.574219,0.145996,2.807617,-0.488281,7.507324
13822,0.095337,0.026367,0.419189,-1.953125,0.305176,9.155273
13831,0.124146,0.325439,0.926514,-4.089355,2.807617,12.451172
13841,0.066650,0.119263,1.262939,-3.295898,3.601074,14.038086
13851,-0.010010,-0.152222,1.263794,-2.258301,2.563477,13.061523
13861,0.046265,-0.225342,1.187500,-2.563477,2.075195,12.207031
13870,0.037476,-0.179199,1.160645,-3.234863,1.525879,10.864258
13882,0.093750,-0.104126,1.119629,-2.258301,0.915527,10.314941
13891,0.086304,-0.333862,1.037842,2.258301,-1.708984,11.230469
13901,0.090210,-0.345337,1.005981,2.197266,-1.342773,12.268066
13910,0.094971,-0.087158,1.083496,0.549316,-0.732422,13.305664
13921,0.030518,0.047119,0.991943,-0.488281,-0.793457,14.221191
13930,-0.053955,-0.200317,0.713867,-0.305176,-0.854492,14.282227
13940,-0.103271,-0.400513,0.588989,-0.549316,-1.159668,14.282227
13952,-0.080444,-0.162598,0.805664,-1.831055,-0.854492,13.061523
13962,-0.050049,0.031860,0.966797,-7.507324,-1.159668,12.207031
13972,0.058472,0.087646,1.139771,-7.385254,-1.647949,11.535645
13981,0.072998,-0.144897,1.059448,-5.432129,-2.563477,10.742188
13991,0.073242,-0.245239,0.980713,-4.150391,-3.234863,9.765625
14000,0.057373,-0.093872,1.085449,-4.089355,-3.906250,8.728027
14012,0.088501,-0.143799,1.105835,-5.554199,-4.089355,7.751465
14022,0.056885,0.290039,1.040894,-3.601074,-4.943848,7.324219
14031,0.080078,-0.102295,0.984131,0.854492,-5.004883,7.507324
14041,0.019897,-0.629517,0.721191,3.662109,-5.432129,7.934570
14050,-0.093140,-0.478149,0.620728,2.746582,-5.310059,8.117676
14061,-0.155518,-0.836182,0.641602,1.098633,-3.967285,9.216309
14071,-0.131836,-0.434570,0.898071,-3.845215,-3.417969,10.009766
14081,-0.105713,0.161987,1.178467,-8.239746,-2.807617,10.070801
14092,0.008789,0.157593,1.294678,-8.361816,-4.150391,8.728027
14102,-0.023682,0.328003,0.958252,-7.019043,-4.882812,7.019043
14111,-0.026367,-0.133179,0.802979,-4.455566,-4.943848,5.187988
14121,-0.025391,-0.370972,0.812134,-2.502441,-5.310059,4.028320
14131,-0.096680,-0.310425,1.016602,-2.685547,-5.187988,3.479004
14140,-0.126831,-0.195801,1.141479,-3.295898,-4.089355,4.211426
14152,-0.108032,-0.135376,1.159180,-2.502441,-0.854492,8.728027
14162,-0.133423,-0.061035,0.995483,-2.075195,-0.793457,9.948730
14171,-0.138306,-0.270996,0.902344,-2.563477,-1.159668,9.826660
14181,-0.116089,-0.313232,0.831543,-3.723145,-1.831055,8.544922
14191,-0.101318,-0.093506,0.877075,-5.065918,-1.831055,7.568359
14200,-0.049561,0.046265,0.996460,-5.981445,-1.770020,7.141113
14211,-0.101685,-0.015747,0.917969,-6.774902,-1.953125,6.469727
14220,-0.074341,-0.050171,0.852661,-6.958008,-1.098633,6.469727
14230,-0.015625,0.106445,1.055664,-5.554199,-0.976562,4.882812
14242,-0.093384,-0.167603,0.967896,-4.943848,-1.037598,3.295898
14251,-0.087280,0.003174,1.007568,-3.845215,-1.220703,1.342773
14261,-0.069946,-0.008789,1.067871,-2.624512,-0.854492,0.427246
14271,-0.039185,-0.148560,1.025635,-1.953125,-0.915527,-1.220703
14280,-0.002197,-0.236572,0.972656,-1.525879,-0.854492,-2.685547
14292,0.052979,-0.190918,1.000854,-0.976562,-1.464844,-4.394531
14301,0.151855,-0.098999,0.972290,-1.403809,-1.953125,-4.821777
14311,0.206665,-0.140381,0.958496,-1.831055,-2.258301,-5.310059
14321,0.193726,-0.158447,0.996338,-1.953125,-2.014160,-5.615234
14330,0.206787,-0.085083,1.016602,-2.014160,-2.685547,-6.164551
14341,0.109741,-0.037598,1.016357,-1.892090,-3.234863,-7.019043
14351,0.134644,-0.146118,1.023926,-1.586914,-4.028320,-8.300781
14360,0.031982,-0.196045,0.984253,-0.793457,-3.906250,-9.521484
14372,0.013306,-0.092651,0.974976,0.183105,-3.723145,-12.756348
14381,0.052612,-0.227173,0.938599,0.549316,-3.662109,-14.038086
14391,0.007813,-0.293823,0.926758,-0.244141,-3.845215,-15.319824
14400,0.032227,-0.132202,0.996460,-1.037598,-3.479004,-16.357422
14411,0.044312,-0.010742,1.099731,-0.732422,-2.929688,-17.028809
14420,0.016846,-0.001221,1.186157,-0.122070,-2.685547,-17.333984
14432,0.042236,0.044312,1.206177,0.427246,-0.671387,-16.296387
14441,-0.027954,-0.077759,1.068726,0.976562,0.122070,-14.587402
14452,-0.097778,-0.159302,0.921631,1.464844,0.610352,-12.512207
14461,0.071411,-0.056885,0.874390,1.892090,1.770020,-9.826660
14471,0.019409,-0.004272,0.960327,2.136230,2.746582,-7.080078
14480,-0.028931,-0.084595,0.979614,1.770020,2.746582,-4.943848
14491,-0.117920,-0.195190,1.006958,1.831055,4.577637,-2.624512
14500,-0.066406,-0.151123,1.075073,1.586914,5.432129,-1.159668
14512,-0.063354,-0.264404,0.963867,2.258301,5.920410,-0.122070
14521,-0.083496,-0.267456,0.886841,3.417969,6.469727,0.427246
14530,0.015747,-0.228149,0.870850,3.234863,7.446289,1.098633
14541,0.014160,-0.197510,0.810181,2.685547,6.408691,1.770020
14550,0.065430,-0.222168,0.843628,1.647949,6.347656,3.173828
14560,0.098267,-0.255737,0.874634,0.366211,6.347656,4.760742
14571,0.109497,-0.188354,0.982422,-0.610352,7.141113,5.920410
14580,0.053955,-0.101685,1.089111,0.061035,5.798340,6.042480
14592,0.054321,-0.098022,0.976318,0.671387,5.798340,4.882812
14601,0.054565,-0.236450,0.862915,0.549316,5.676270,4.699707
14611,0.090210,-0.311157,0.715210,-0.183105,5.187988,5.004883
14620,0.044067,-0.253174,0.682617,-1.525879,4.333496,5.554199
14631,0.111938,-0.109863,0.828247,-2.746582,4.455566,6.652832
14640,-0.004883,-0.075928,0.971924,-3.356934,4.638672,7.690430
14653,-0.007813,-0.094849,1.054077,-3.234863,5.065918,8.361816
14662,0.015259,-0.080322,1.068726,-2.563477,4.821777,7.934570
14671,-0.025513,-0.017944,1.066406,-2.319336,4.821777,7.629395
14681,0.035522,-0.050171,1.039063,-2.441406,4.882812,7.202148
14691,-0.006104,-0.129883,1.062134,-3.234863,3.662109,7.690430
14700,0.087036,-0.039551,1.097046,-3.845215,2.868652,8.117676
14711,0.007080,0.042725,1.119629,-3.967285,2.990723,9.033203
14722,0.035889,0.029053,1.233765,-4.211426,4.272461,10.742188
14732,0.030762,0.016968,1.233276,-3.784180,3.540039,11.047363
14741,0.000122,0.013794,1.203125,-2.929688,4.089355,11.413574
14751,-0.035645,0.010254,1.187500,-1.831055,3.601074,11.596680
14760,0.020386,-0.004883,1.155151,-0.793457,3.784180,11.657715
14771,-0.051147,0.000366,1.116333,-0.244141,3.112793,11.535645
14781,-0.002197,-0.142090,1.027466,-0.122070,1.831055,10.925293
14790,-0.066650,-0.198730,0.919434,-1.159668,2.197266,10.559082
14801,0.010864,-0.247681,0.859253,-1.892090,2.258301,10.253906
14810,0.043823,-0.140259,0.902588,-2.502441,2.197266,9.399414
14821,0.030762,-0.030518,0.961548,-2.624512,2.807617,9.643555
14830,0.043457,-0.174805,0.891724,-2.258301,2.136230,9.460449
14841,-0.005005,-0.318970,0.859009,-2.136230,1.464844,9.277344
14850,0.020020,-0.193970,0.890381,-2.441406,1.770020,9.216309
14862,0.048828,-0.122559,0.899292,-2.258301,1.708984,9.704590
14871,0.058228,-0.240234,0.828857,-1.708984,1.098633,10.070801
14881,0.096558,-0.138062,0.863892,-1.647949,0.793457,10.070801
14891,0.079712,-0.007935,0.915771,-1.464844,0.061035,10.070801
14901,0.075928,0.032227,0.943970,-0.793457,-0.427246,9.704590
14910,0.093872,-0.133301,0.972412,0.305176,-0.915527,9.704590
14922,0.072144,-0.192017,1.000488,0.793457,-1.647949,8.483887
14931,0.081177,-0.007690,1.141235,1.281738,-1.647949,8.117676
14941,0.032593,-0.003052,1.215454,2.075195,-2.502441,7.324219
14950,0.042114,-0.035034,1.114746,3.112793,-3.234863,6.652832
14961,0.036133,-0.172607,1.017334,3.845215,-2.868652,6.652832
14970,-0.007324,-0.131714,0.963501,3.845215,-2.319336,7.202148
14981,-0.007080,-0.079346,0.967163,2.990723,-2.380371,7.507324
14990,-0.039429,-0.140991,0.950317,2.502441,-2.685547,7.324219
15000,0.020630,-0.219727,0.902344,2.075195,-2.502441,7.873535
15011,0.017212,-0.006226,1.126221,-0.488281,-2.441406,7.995605
15021,-0.048828,-0.114868,1.129883,-1.281738,-1.586914,8.850098
15030,-0.057007,-0.215942,1.007568,-1.464844,-1.770020,9.643555
15041,-0.074219,-0.312012,0.871460,-2.136230,-1.342773,10.437012
15051,-0.068604,-0.212402,0.918457,-3.417969,-0.976562,10.742188
15060,-0.066284,0.051147,1.040771,-4.516602,-1.037598,11.047363
15072,-0.080566,-0.113159,0.988281,-4.882812,-1.159668,11.413574
15082,-0.032227,-0.084106,1.063965,-4.760742,-0.671387,11.840820
15091,-0.063110,0.014282,1.129517,-3.906250,-0.366211,12.207031
15101,-0.074219,-0.008789,1.143188,-3.051758,-0.244141,12.268066
15110,-0.139160,-0.086670,1.087524,-1.831055,-0.183105,12.023926
15120,-0.079468,-0.180664,0.983398,-0.915527,-0.854492,11.352539
15132,-0.025879,-0.338745,0.886841,-0.122070,-0.732422,9.277344
15141,-0.059814,-0.261963,0.625488,-0.183105,-1.220703,8.117676
15152,0.010254,-0.151978,0.734375,-1.220703,-0.854492,6.958008
15161,-0.009399,0.015381,0.881836,-2.807617,-0.976562,6.103516
15171,-0.053589,-0.018555,0.939209,-3.051758,-1.403809,5.249023
15180,0.002686,-0.100464,1.054810,-2.502441,-1.403809,5.310059
15191,-0.001831,-0.178589,1.006958,-1.525879,-0.793457,5.615234
15200,-0.004272,-0.161499,0.924316,-1.342773,-0.854492,5.798340
15212,0.041504,-0.161621,0.978394,-1.647949,-0.488281,5.493164
15221,0.009644,-0.099854,0.955444,-3.479004,-1.403809,4.577637
15231,0.097168,-0.017212,1.058838,-3.906250,-2.014160,3.112793
15240,0.059814,0.052368,1.151611,-3.662109,-2.014160,1.831055
15251,0.109863,0.060669,1.172119,-3.295898,-2.563477,1.464844
15260,0.079468,0.069092,1.086304,-3.051758,-2.685547,1.647949
15272,0.175171,0.011841,1.061157,-2.868652,-2.258301,2.075195
15281,0.121948,-0.108887,1.000732,-3.051758,-3.173828,1.586914
15291,0.090454,-0.060303,0.968262,-3.601074,-4.028320,1.098633
15300,0.068604,-0.003296,0.962769,-3.723145,-4.333496,0.610352
15311,0.050049,-0.032349,1.025513,-3.906250,-4.272461,0.183105
15320,0.008423,-0.036133,1.047485,-3.967285,-4.516602,0.000000
15330,-0.055542,-0.072998,1.046753,-3.601074,-3.845215,-0.061035
15342,-0.018066,-0.195801,0.984985,-2.563477,-3.234863,0.061035
15352,0.021240,-0.233521,0.907593,-2.624512,-3.356934,0.122070
15361,-0.029419,-0.281982,0.903320,-3.051758,-3.723145,0.000000
15371,-0.038574,-0.179199,0.948853,-3.662109,-3.417969,-0.488281
15380,-0.007202,-0.032104,0.998291,-4.272461,-2.929688,-1.098633
15390,-0.007446,-0.015747,0.996704,-4.272461,-2.502441,-1.586914
15400,-0.047363,-0.103516,1.002686,-3.845215,-2.075195,-1.831055
15410,-0.040161,-0.113892,0.961304,-3.906250,-1.464844,-2.197266
15422,-0.076904,-0.094360,0.952515,-3.906250,-1.098633,-2.258301
15432,0.000854,-0.010864,0.935425,-2.258301,-0.488281,-1.953125
15441,-0.012451,-0.083862,0.913574,-1.403809,-0.183105,-1.281738
15451,0.033081,-0.255859,0.828979,-0.610352,0.000000,-0.732422
15460,0.058228,-0.224121,0.873413,-0.610352,0.000000,-0.610352
15470,0.093750,-0.106812,0.992065,-1.281738,0.610352,-0.671387
15481,0.081055,-0.069336,0.960449,-2.319336,0.000000,-0.671387
15490,0.082764,-0.087524,1.052856,-2.380371,-0.488281,-1.892090
15502,0.120117,-0.199463,0.932007,-2.319336,-0.671387,-2.014160
15511,0.110962,-0.133911,1.015869,-2.624512,-1.281738,-1.770020
15521,0.122559,0.071289,1.180176,-2.746582,-1.892090,-1.281738
15530,0.061523,0.107910,1.256348,-2.258301,-1.647949,-0.793457
15540,0.108643,-0.059570,1.159424,-1.342773,-1.647949,-0.366211
15552,0.071045,-0.209473,1.064941,0.000000,-2.075195,0.183105
15561,0.072388,-0.105591,0.960937,0.244141,-2.136230,0.366211
15572,0.024414,-0.107178,0.985107,0.488281,-2.868652,0.732422
15581,-0.023926,-0.156982,0.913940,0.854492,-2.319336,1.464844
15591,-0.019897,-0.120361,0.934937,0.244141,-1.586914,2.258301
15601,-0.039063,-0.089478,1.031494,-0.122070,-1.159668,2.868652
15610,-0.051514,-0.076538,1.003906,-0.671387,-1.220703,3.479004
15620,-0.087036,-0.189453,0.923096,-0.854492,-0.610352,4.089355
15632,-0.022461,-0.254028,0.918701,-1.220703,0.183105,4.577637
15641,-0.051392,-0.187012,0.969360,-1.831055,0.488281,4.882812
15651,-0.041992,-0.121338,0.979858,-1.953125,0.244141,4.821777
15661,-0.015015,-0.167480,0.994385,-2.136230,-0.061035,4.516602
15670,0.025024,-0.162964,1.005493,-2.258301,0.244141,4.638672
15681,0.070435,-0.153809,0.974854,-2.380371,-0.122070,4.638672
15690,0.086304,-0.130859,0.983887,-2.502441,-0.488281,4.638672
15702,0.011963,-0.177124,0.986572,-1.342773,-0.244141,5.004883
15712,0.015381,-0.158813,0.957275,-1.281738,-0.366211,5.249023
15721,0.018433,-0.095337,0.972656,-1.647949,0.183105,5.187988
15731,0.056519,-0.080078,0.980469,-1.892090,-0.366211,5.004883
15740,0.050781,-0.120850,1.011841,-1.831055,-0.976562,4.821777
15750,-0.015991,-0.126099,1.074829,-1.525879,-1.586914,4.455566
15762,-0.011719,-0.143677,1.109741,-0.244141,-1.037598,2.868652
15772,-0.069946,-0.071289,1.055176,0.366211,-0.671387,2.441406
15781,-0.064819,-0.110474,0.999634,1.403809,-0.061035,1.953125
15791,0.012939,-0.107300,0.959961,1.647949,1.403809,1.708984
15800,0.007324,-0.146362,0.905640,1.831055,0.610352,1.159668
15811,0.010742,-0.149292,0.922974,1.586914,0.000000,0.305176
15820,-0.005981,-0.039917,0.951904,0.244141,-0.488281,-1.037598
15832,-0.007446,0.016846,0.954712,-2.685547,-0.854492,-1.770020
15841,0.043457,0.141479,0.970337,-3.479004,0.000000,-1.037598
15851,0.075806,0.208618,1.081055,-3.295898,0.427246,0.061035
15860,0.042480,0.175659,1.114990,-2.319336,0.427246,1.159668
15871,0.037354,0.043823,1.004272,-1.342773,0.244141,1.708984
15881,-0.039551,-0.063477,0.990479,-0.732422,0.000000,2.136230
15890,-0.012817,-0.122681,0.927368,-0.854492,0.366211,2.563477
15900,0.009766,-0.232056,0.912598,-1.403809,0.427246,3.173828
15912,0.025024,-0.274780,0.926025,-1.586914,0.671387,5.798340
15921,0.028564,-0.275757,1.068726,-1.831055,0.732422,7.263184
15931,-0.100220,-0.470337,1.183350,-2.380371,0.610352,8.056641
15940,0.105713,-0.137085,0.743652,-9.399414,1.464844,7.751465
15951,-0.161621,-0.848755,-0.227905,-12.634277,0.732422,8.483887
15961,0.071533,0.257568,0.627319,-19.531250,1.220703,9.399414
15972,-0.064941,0.073364,-0.089722,-31.066895,-0.976562,9.338379
15982,-0.042603,1.210205,0.290894,-34.973145,-0.549316,9.155273
15991,-0.222412,0.986694,0.801392,-33.752441,-2.319336,8.728027
16001,-0.198120,0.599243,0.918457,-32.531738,-2.685547,8.239746
16011,-0.170898,0.500488,1.007935,-35.156250,-1.342773,8.361816
16020,-0.023193,1.091064,1.113281,-38.146973,1.647949,8.117676
16031,-0.057861,1.294678,1.497559,-36.315918,4.577637,10.314941
16041,0.129272,0.513916,1.291382,-28.808594,6.408691,13.000488
16052,0.042725,0.424683,2.248535,-18.676758,5.432129,11.901855
16062,-0.071777,1.241089,2.493408,-15.136719,3.723145,10.986328
16071,-0.054687,0.576050,1.165039,-7.019043,4.150391,13.732910
16081,0.428955,-0.127808,0.752197,1.281738,6.286621,18.432617
16090,0.609375,-0.012451,1.993408,2.868652,5.554199,21.301270
16101,0.007568,-0.104370,1.865356,-2.380371,-1.403809,18.920898
16110,-0.393799,0.753784,1.267212,-9.216309,-6.835937,14.587402
16122,-0.112671,0.809570,0.341919,-10.131836,0.488281,17.822266
16132,0.063843,-0.108521,0.735962,6.286621,4.882812,21.240234
16141,-0.240112,0.033569,1.737061,6.652832,4.882812,19.592285
16151,-0.370972,0.243286,1.589233,-0.793457,2.014160,14.221191
16161,-0.151245,0.499023,0.818237,-7.629395,2.258301,10.375977
16171,0.194702,0.852539,0.601074,-9.765625,5.065918,9.948730
16180,0.177856,0.932983,1.130615,-5.859375,5.065918,11.718750
16192,-0.088257,-0.023437,0.891846,0.244141,-0.305176,10.986328
16201,0.241699,0.136475,0.842285,1.586914,-1.525879,8.239746
16211,0.448486,0.628174,0.941772,-3.417969,-2.258301,6.774902
16220,0.307617,1.109375,1.300903,-6.591797,-3.356934,7.202148
16231,-0.002075,0.610229,0.947266,-4.089355,-3.479004,8.666992
16241,-0.038940,0.175781,0.590332,0.305176,-2.929688,8.605957
16250,0.160767,0.449219,0.885498,0.915527,-3.723145,7.568359
16262,0.021484,0.859497,1.151367,-1.281738,-4.638672,6.958008
16271,-0.072876,0.657227,0.704834,-4.150391,-2.929688,8.544922
16281,-0.060059,0.497437,0.647217,-1.770020,-2.563477,8.117676
16290,-0.032104,0.712524,1.068970,-1.708984,-4.272461,5.920410
16301,-0.114380,0.832520,1.341309,-3.295898,-5.004883,5.065918
16310,-0.076172,0.723022,1.049683,-4.272461,-3.845215,5.249023
16322,-0.049561,0.805786,0.785889,-3.906250,-0.488281,6.042480
16332,-0.054321,0.658447,1.089722,-2.075195,-0.793457,5.126953
16341,-0.135376,0.493042,1.167603,-0.671387,-2.014160,2.990723
16351,-0.094360,0.461182,0.966431,0.000000,-2.746582,-0.366211
16360,-0.015381,0.579590,0.950439,-0.183105,-3.173828,-3.479004
16371,0.059204,0.658447,1.063477,0.732422,-3.479004,-5.615234
16380,0.025757,0.476318,1.065063,2.197266,-3.295898,-6.225586
16390,0.007568,0.349487,0.985229,3.234863,-3.295898,-6.042480
16403,0.103027,0.365723,0.918091,1.525879,-1.831055,-3.173828
16412,0.084473,0.486450,0.957153,-0.122070,-0.732422,-1.220703
16422,0.040039,0.567627,1.069092,-0.793457,-0.671387,0.183105
16431,-0.002441,0.598145,1.044556,-1.037598,-0.854492,0.427246
16441,0.015625,0.513672,0.880005,-0.366211,-1.525879,0.305176
16450,0.041138,0.592896,1.034058,-0.061035,-2.136230,-0.061035
16463,-0.030884,0.622314,0.980225,0.427246,-0.183105,1.831055
16473,-0.007080,0.640991,0.985596,0.671387,0.549316,3.417969
16482,0.024048,0.476562,0.828003,0.366211,0.488281,4.699707
16492,0.034668,0.539795,1.062744,0.183105,0.610352,5.615234
16501,0.023804,0.565063,1.080200,-0.305176,0.976562,5.798340
16511,0.031616,0.681763,1.102905,-0.427246,0.671387,5.676270
16520,0.065552,0.584106,0.906006,-0.549316,0.610352,5.798340
16532,0.097778,0.524780,0.973145,-1.464844,0.183105,5.615234
16541,0.037598,0.722534,0.949951,-1.770020,0.000000,5.737305
16551,0.080078,0.616821,0.896240,-1.220703,-0.183105,5.981445
16560,0.134888,0.637939,0.991943,-0.793457,-0.549316,6.103516
16571,0.108521,0.568481,1.018188,-0.793457,-1.037598,6.652832
16580,0.096680,0.651855,1.119141,-1.403809,-0.732422,7.324219
16591,0.106445,0.607178,1.017822,-1.525879,-0.549316,7.995605
16601,0.092773,0.558350,0.940918,-1.159668,-0.488281,7.995605
16612,0.002930,0.559814,1.093872,-0.793457,-2.319336,6.835937
16621,0.010010,0.520264,1.000488,-0.732422,-2.868652,6.164551
16631,-0.020020,0.496338,0.904541,-1.220703,-2.441406,5.676270
16640,-0.059448,0.567993,0.963257,-2.014160,-1.586914,5.737305
16651,-0.095215,0.656860,1.065430,-2.258301,-0.427246,5.920410
16660,-0.103394,0.654419,1.036865,-1.953125,-0.122070,6.042480
16672,-0.100830,0.512939,0.979736,-0.488281,0.732422,4.577637
16681,-0.045654,0.443848,1.075195,1.220703,0.549316,3.967285
16691,-0.007935,0.193481,1.028076,3.234863,0.976562,3.784180
16700,0.017090,0.224976,1.052734,3.723145,1.403809,3.967285
16710,0.046875,-0.046387,0.997314,5.187988,1.098633,4.516602
16721,0.101685,-0.041870,0.943481,5.554199,0.305176,4.516602
16730,0.140503,-0.021362,0.942383,5.065918,-0.183105,4.638672
16741,0.160645,-0.117432,0.932129,5.493164,-0.244141,4.882812
16752,0.175537,0.094116,0.826538,4.821777,-0.793457,5.065918
16761,0.097900,0.064087,1.168823,3.601074,-0.671387,4.760742
16770,0.039429,0.238892,1.056396,3.662109,-1.220703,3.906250
16781,0.058716,-0.060669,1.110718,5.371094,-1.525879,2.990723
16791,0.041626,0.029297,0.970703,5.798340,-1.525879,0.915527
16800,-0.025024,0.177002,0.936523,4.638672,-2.136230,-0.366211
16812,0.035034,0.025635,0.895508,4.882812,-2.502441,-2.014160
16821,-0.021118,0.191162,1.210938,4.211426,-2.563477,-2.136230
16831,0.037354,0.422607,1.762573,4.150391,-1.953125,-2.014160
16840,-0.048828,0.100708,1.527222,5.859375,-1.647949,-1.892090
16851,-0.017334,0.186401,1.648804,7.873535,-1.464844,-2.258301
16860,-0.020142,0.189209,1.609985,10.437012,-1.525879,-2.197266
16871,0.014648,0.045898,1.061279,12.512207,-1.770020,-1.037598
16881,0.096558,-0.134277,0.877686,13.427734,-2.258301,-0.305176
16892,0.079102,-0.042847,0.901001,13.732910,-3.967285,-0.793457
16901,0.045166,-0.202637,1.065308,10.925293,-3.295898,0.915527
16911,-0.059814,-0.230835,0.775269,10.742188,-1.403809,3.417969
16920,0.003662,-0.276489,1.133667,10.131836,0.366211,5.310059
16931,-0.016235,-0.258423,1.032715,10.192871,1.525879,6.530762
16940,-0.052490,-0.224365,1.105347,10.620117,1.892090,6.408691
16951,-0.112671,-0.328125,0.968750,10.681152,0.976562,5.310059
16960,-0.126953,-0.314697,0.898804,9.948730,0.427246,3.662109
16971,-0.101074,-0.372925,0.638184,9.582520,0.244141,2.746582
16981,-0.050903,-0.320190,0.783325,8.972168,0.122070,2.136230
16990,-0.106323,-0.125610,0.639404,7.812500,0.549316,2.380371
17001,-0.035522,-0.169189,0.821167,6.774902,1.831055,2.929688
17010,-0.041992,-0.150269,0.681641,6.408691,2.929688,3.540039
17022,-0.010620,-0.089600,0.746948,4.821777,3.662109,3.112793
17031,-0.003784,-0.209717,0.861450,4.455566,3.417969,2.258301
17041,-0.080078,-0.048340,0.842773,3.967285,2.807617,1.647949
17051,-0.030151,-0.227783,0.863281,3.784180,3.479004,1.342773
17060,-0.044312,-0.102051,0.956909,3.417969,4.333496,1.281738
17070,-0.012085,-0.233643,0.819458,3.234863,4.577637,1.708984
17081,0.053833,-0.100830,0.901367,3.051758,5.004883,2.380371
17090,0.050781,-0.190552,0.840820,2.563477,4.455566,2.685547
17102,0.091919,-0.071655,1.008057,1.953125,3.906250,2.990723
17111,0.101563,-0.287231,0.889404,1.037598,3.295898,3.234863
17120,0.121338,-0.338623,0.872681,0.671387,2.746582,3.417969
17131,0.119751,-0.093750,1.053589,0.366211,2.807617,3.540039
17140,0.103027,-0.278076,1.077148,0.000000,2.807617,3.723145
17151,0.078247,-0.340576,1.038940,-0.244141,2.258301,3.723145
17160,0.069946,-0.281738,1.204956,-0.549316,2.319336,3.417969
17172,0.058960,-0.377197,1.002075,-0.305176,2.136230,2.136230
17181,0.037476,-0.250000,0.968994,-0.061035,1.831055,0.854492
17191,0.066895,-0.193604,0.930176,-0.793457,1.342773,-0.305176
17200,0.063721,-0.126709,0.904419,-1.647949,0.610352,-1.342773
17211,0.044678,-0.152954,0.851685,-1.953125,0.366211,-2.197266
17220,0.017822,-0.128540,0.935913,-2.441406,0.122070,-2.990723
17232,0.015259,-0.114868,0.971191,-2.868652,1.037598,-3.967285
17241,-0.016724,-0.168091,0.947632,-2.624512,1.220703,-4.150391
17251,-0.000488,-0.155640,0.971069,-2.929688,1.647949,-4.272461
17260,-0.053589,-0.117188,0.952515,-3.112793,1.586914,-4.272461
17271,-0.052490,-0.109985,0.960083,-3.051758,1.098633,-4.760742
17280,-0.022583,-0.072876,0.968994,-3.356934,1.159668,-5.004883
17291,-0.018188,-0.053833,0.981079,-3.540039,1.403809,-4.516602
17300,-0.019409,-0.084473,0.986938,-3.234863,2.136230,-3.723145
17310,-0.027832,-0.086060,0.974731,-2.990723,3.173828,-2.258301
17321,-0.021240,-0.117432,0.921143,-2.990723,3.234863,-1.525879
17331,0.004517,-0.119263,0.890259,-2.868652,3.540039,-1.037598
17341,0.045532,-0.142212,0.846558,-3.356934,3.295898,-0.488281
17350,0.000366,-0.166504,0.978394,-3.601074,2.990723,-0.122070
17361,0.027100,-0.178711,1.002319,-4.211426,2.685547,0.183105
17370,0.045410,-0.128906,0.983765,-4.516602,3.417969,0.976562
17382,0.008301,-0.143799,0.972046,-4.638672,3.295898,2.075195
17391,0.044556,-0.124512,1.135620,-4.272461,2.990723,1.464844
17401,0.124268,0.038208,1.051025,-4.638672,2.136230,1.098633
17410,0.132568,0.032837,0.984009,-4.638672,2.319336,1.464844
17421,0.170288,-0.052856,1.034546,-4.272461,2.441406,1.647949
17430,0.111450,-0.030273,1.079346,-4.394531,1.770020,1.159668
17440,0.095459,-0.009155,1.123169,-4.272461,0.671387,0.061035
17452,0.063477,-0.034546,1.104858,-3.540039,0.061035,-1.342773
17462,0.085449,-0.038574,1.099731,-3.234863,0.549316,-1.525879
17471,0.084351,0.050903,1.064331,-2.990723,1.159668,-1.770020
17481,0.052002,0.072632,1.006104,-2.624512,0.854492,-2.075195
17490,0.000488,0.005615,0.977905,-2.075195,0.854492,-2.075195
17501,-0.049316,-0.046753,0.987915,-1.831055,0.854492,-2.380371
17510,-0.061646,-0.063843,1.000488,-1.525879,0.183105,-2.746582
17522,-0.024048,-0.154419,0.984863,-1.525879,0.244141,-2.441406
17531,-0.041870,-0.157227,0.959229,-1.098633,1.281738,-1.586914
17540,-0.008057,-0.119751,0.947998,-1.464844,1.770020,-0.366211
17550,-0.019165,-0.078125,0.949341,-1.403809,2.197266,0.488281
17561,-0.011597,-0.027344,0.946899,-1.403809,2.685547,1.098633
17570,0.013062,0.011963,0.957275,-1.403809,2.990723,2.258301
17582,0.002319,0.026611,0.973877,-1.098633,4.577637,5.065918
17591,0.041748,0.028076,0.998413,-0.854492,5.187988,6.347656
17601,0.053833,0.000488,0.998413,-0.488281,5.310059,7.507324
17610,0.063843,-0.017700,0.993042,-0.305176,5.371094,8.483887
17621,0.060425,-0.060913,0.996948,-0.122070,5.371094,8.789063
17630,0.057129,-0.101563,0.981323,-0.061035,5.249023,8.911133
17641,0.084351,-0.121704,0.989380,0.000000,5.126953,8.972168
17650,0.105591,-0.150757,1.003906,0.122070,4.882812,8.483887
17660,0.103027,-0.173218,0.982788,-0.305176,3.723145,6.530762
17671,0.101807,-0.114868,0.990479,-0.427246,2.990723,5.676270
17681,0.100586,-0.085327,0.985596,-0.549316,2.624512,4.821777
17690,0.103882,-0.093262,0.989624,-0.305176,2.624512,4.272461
17701,0.108643,-0.069580,0.997314,-0.488281,2.258301,4.028320
17710,0.111206,-0.062134,1.015137,-0.671387,2.441406,4.028320
17722,0.125000,-0.087891,0.994141,-0.793457,2.014160,4.272461
17731,0.150269,-0.042725,1.016846,-0.549316,1.770020,4.516602
17741,0.156006,-0.048828,1.010498,-0.732422,1.098633,4.699707
17750,0.156738,-0.072998,0.999878,-0.671387,0.976562,5.004883
17761,0.172119,-0.092773,1.036621,-0.671387,0.488281,5.310059
17770,0.171875,-0.107300,1.049194,-0.549316,0.122070,5.371094
17780,0.155640,-0.124390,1.018066,-0.610352,0.000000,5.554199
17790,0.145264,-0.108643,1.011597,-0.549316,-0.854492,5.615234
17800,0.136475,-0.106445,1.021851,-0.427246,-1.281738,5.004883
17811,0.121460,-0.070312,1.027588,-0.427246,-0.976562,4.760742
17820,0.071167,-0.078979,0.991699,-0.305176,-1.586914,4.272461
17831,0.059326,-0.075439,0.983521,-0.244141,-1.586914,3.906250
17840,0.074585,-0.076904,0.995728,-0.183105,-1.525879,3.723145
17850,0.066528,-0.085937,0.968384,-0.305176,-1.647949,3.356934
17862,0.076050,-0.102661,0.939819,-0.610352,-2.319336,2.258301
17871,0.095459,-0.108032,0.947632,-0.488281,-2.685547,1.708984
17881,0.089233,-0.106201,0.940674,-0.610352,-3.112793,1.159668
17890,0.093994,-0.119263,0.952515,-0.671387,-2.929688,0.671387
17901,0.103271,-0.121460,0.958008,-0.671387,-2.624512,0.000000
17910,0.109741,-0.120728,0.975952,-0.732422,-2.990723,-0.488281
17921,0.108643,-0.127930,0.988647,-0.854492,-3.234863,-0.671387
17930,0.091064,-0.130981,0.974976,-1.098633,-3.784180,-1.159668
17940,0.078491,-0.138550,0.988770,-1.098633,-4.272461,-1.892090
17951,0.055298,-0.131348,0.984863,-1.220703,-4.150391,-2.014160
17960,0.045654,-0.127563,0.992554,-1.342773,-3.784180,-1.770020
17970,0.043823,-0.120605,0.989136,-1.281738,-4.028320,-1.464844
17981,0.038818,-0.119507,1.013062,-1.281738,-4.211426,-1.037598
17990,0.023560,-0.109619,1.008545,-1.342773,-3.845215,-0.305176
18002,0.016846,-0.113281,1.005615,-1.037598,-2.990723,1.159668
18011,0.034302,-0.123169,0.973755,-0.976562,-2.868652,1.464844
18021,0.038086,-0.126587,0.993652,-1.037598,-2.929688,1.892090
18031,0.027710,-0.086304,1.000000,-1.220703,-3.417969,2.014160
18040,0.035522,-0.107910,1.009766,-1.403809,-3.845215,2.685547
18050,0.041138,-0.088135,1.009277,-1.403809,-3.723145,3.417969
18061,0.052979,-0.118408,0.986206,-1.281738,-2.990723,4.760742
18070,0.045654,-0.156982,0.976196,-1.525879,-2.563477,6.591797
18080,0.021362,-0.097778,0.997437,-1.220703,-2.807617,8.178711
18092,0.001221,-0.150391,0.973145,-1.403809,-2.746582,8.178711
18101,0.008179,-0.142944,1.012695,-1.342773,-3.112793,7.568359
18110,0.006836,-0.140503,1.009888,-1.525879,-3.112793,6.591797
18120,0.020142,-0.157837,1.014648,-1.464844,-2.624512,5.859375
18130,0.046143,-0.152100,1.007813,-1.586914,-2.807617,5.249023
18140,0.077026,-0.146240,0.984619,-1.464844,-2.746582,4.577637
18151,0.104004,-0.145142,0.953003,-1.525879,-2.929688,3.601074
18161,0.101440,-0.207397,0.952759,-0.610352,-3.540039,2.502441
18171,0.105469,-0.228394,0.994995,-0.793457,-3.601074,1.525879
18180,0.104248,-0.194580,1.013062,-1.403809,-4.028320,0.854492
18191,0.078979,-0.154175,1.008423,-1.464844,-4.638672,0.305176
18200,0.074341,-0.169800,1.003052,-1.037598,-4.028320,-0.122070
18210,0.077637,-0.214355,0.975708,-0.854492,-4.577637,-0.305176
18220,0.032837,-0.188965,0.993042,-0.793457,-5.249023,-0.305176
18232,0.071655,-0.211670,1.012085,-1.037598,-5.737305,-1.403809
18241,0.087158,-0.152588,1.001953,-1.159668,-5.798340,-1.708984
18251,0.135620,-0.128784,0.992187,-0.976562,-6.225586,-2.746582
18261,0.114136,-0.258667,0.904419,-0.610352,-6.408691,-3.173828
18270,0.035156,-0.155762,0.947144,-0.610352,-6.896973,-3.601074
18280,0.002686,-0.126343,1.004517,-0.610352,-6.286621,-3.112793
18290,-0.022461,-0.175415,1.011475,-0.915527,-5.676270,0.183105
18301,-0.057129,-0.123413,1.014038,-0.610352,-5.187988,1.647949
18310,-0.095459,-0.137085,0.993652,-0.549316,-5.432129,2.136230
18320,-0.127808,-0.160156,0.969849,-0.244141,-4.821777,2.441406
18331,-0.084595,-0.200684,0.960815,-0.183105,-4.028320,2.624512
18340,-0.046509,-0.217773,0.962402,-0.793457,-3.601074,2.624512
18350,-0.047729,-0.186523,0.968994,-1.220703,-3.173828,2.624512
18362,-0.037476,-0.147095,0.987671,-1.403809,-2.685547,3.784180
18371,-0.037354,-0.168579,0.979736,-0.854492,-1.831055,4.211426
18381,-0.033203,-0.187988,0.974976,-0.671387,-1.525879,4.272461
18391,-0.035767,-0.190918,0.986938,-0.549316,-1.770020,4.150391
18401,-0.046631,-0.198120,0.998901,-0.610352,-1.281738,4.394531
18411,-0.073608,-0.207397,0.996094,-0.732422,-1.708984,4.760742
18420,-0.102051,-0.217041,0.983887,-0.671387,-1.281738,4.882812
18432,-0.090210,-0.256958,0.963013,-0.488281,-0.427246,4.882812
18441,-0.056396,-0.223755,0.992065,-0.610352,0.671387,4.821777
18451,-0.018188,-0.208984,1.013672,-0.488281,1.525879,4.638672
18460,-0.013672,-0.228149,1.010254,-0.549316,0.549316,4.516602
18470,-0.034424,-0.253540,0.986084,-0.305176,0.305176,4.516602
18481,-0.037842,-0.271606,0.952271,-0.061035,0.244141,4.150391
18490,-0.043213,-0.254761,0.946167,-0.122070,1.159668,4.577637
18500,-0.054565,-0.231079,0.946655,-0.549316,2.197266,5.798340
18512,-0.092773,-0.185303,1.011597,-0.488281,2.868652,7.019043
18521,-0.103271,-0.214478,1.004028,-0.244141,3.112793,8.300781
18531,-0.114502,-0.254028,0.978394,-0.061035,3.662109,9.704590
18540,-0.107422,-0.275024,0.955322,-0.183105,4.638672,11.291504
18550,-0.069214,-0.255493,0.952881,-0.549316,5.126953,12.573242
18562,-0.051147,-0.219849,1.004395,-0.976562,5.737305,13.488770
18571,-0.053711,-0.304321,0.974487,-0.793457,6.042480,14.465332
18581,-0.005371,-0.295288,0.954468,-0.915527,6.164551,15.258789
18590,0.031860,-0.253784,0.996826,-1.037598,7.019043,16.784668
18601,0.058228,-0.194458,1.062134,-1.098633,6.958008,18.981934
18610,0.036499,-0.255737,1.020508,-0.610352,6.713867,21.240234
18621,0.007202,-0.347778,0.948730,-0.122070,6.652832,22.644043
18630,-0.024658,-0.343628,0.934204,-0.488281,7.690430,23.803711
18640,0.039673,-0.229492,1.011230,-0.915527,7.873535,25.878906
18651,0.051147,-0.294434,0.948975,-0.671387,7.202148,26.123047
18661,0.040039,-0.263184,1.013794,-0.671387,7.751465,26.733398
18671,0.026611,-0.273682,1.105225,-0.427246,7.507324,27.648926
18680,0.035767,-0.270264,1.101074,-0.122070,7.263184,27.709961
18691,0.057861,-0.192993,1.149536,0.000000,7.080078,27.465820
18700,0.076172,-0.169067,1.168213,0.732422,7.507324,27.954102
18711,0.115112,-0.355835,1.037842,2.197266,7.019043,28.015137
18721,0.098999,-0.469727,1.082275,3.967285,6.286621,26.062012
18731,0.185791,-0.506958,0.951904,3.967285,5.187988,24.475098
18740,0.189697,-0.380127,0.903809,3.234863,5.065918,22.460937
18751,0.161743,-0.372192,0.890869,3.051758,4.150391,21.362305
18760,0.145874,-0.398315,0.887451,3.234863,2.380371,19.165039
18772,0.030396,-0.465210,0.923340,3.234863,1.037598,14.709473
18781,0.077515,-0.360229,0.911255,2.014160,2.014160,13.244629
18791,0.087891,-0.307373,0.970215,1.220703,2.624512,12.512207
18801,0.080078,-0.301880,0.929810,1.098633,0.732422,10.437012
18810,-0.021118,-0.376587,0.844360,1.342773,-0.915527,7.690430
18820,-0.030762,-0.378174,0.856323,0.854492,-1.342773,5.432129
18831,0.057617,-0.315063,0.901001,0.305176,-0.305176,3.784180
18840,0.107300,-0.244629,0.966187,0.000000,0.366211,2.990723
18852,0.060303,-0.288330,0.968506,-0.610352,-1.892090,-0.976562
18862,0.088257,-0.271362,0.912964,-0.854492,-1.586914,-1.892090
18871,0.128784,-0.202637,0.969971,-1.098633,-1.220703,-2.075195
18881,0.143799,-0.254150,1.001099,-0.854492,-1.037598,-2.563477
18891,0.122437,-0.300659,1.000122,-0.671387,-2.258301,-3.601074
18900,0.094482,-0.302002,0.986572,-0.793457,-2.685547,-4.211426
18910,0.123901,-0.272095,0.955688,-0.915527,-2.563477,-4.638672
18922,0.104248,-0.315430,0.969116,-0.793457,-2.624512,-5.920410
18931,0.097290,-0.300659,0.964844,-0.915527,-3.540039,-6.652832
18940,0.107422,-0.332642,0.971802,-0.671387,-3.356934,-7.202148
18950,0.095581,-0.329834,0.982056,-0.488281,-3.479004,-7.751465
18961,0.091309,-0.332031,0.986572,-0.915527,-3.784180,-8.422852
18970,0.086304,-0.300903,0.981567,-1.037598,-3.784180,-9.216309
18982,0.067993,-0.318604,0.947876,-1.281738,-4.211426,-10.314941
18991,0.057861,-0.279419,0.963501,-1.586914,-4.333496,-10.803223
19001,0.078857,-0.320313,0.919434,-1.403809,-4.211426,-11.596680
19011,0.044067,-0.233887,0.994629,-1.647949,-4.577637,-12.268066
19020,0.060791,-0.215454,0.954956,-1.831055,-4.333496,-12.756348
19030,0.053345,-0.232910,1.019653,-1.892090,-4.272461,-13.244629
19041,0.074463,-0.221924,1.040283,-2.319336,-4.577637,-13.366699
19050,0.063721,-0.223999,0.991089,-2.258301,-4.760742,-13.122559
19060,0.082764,-0.232056,1.004395,-1.708984,-3.967285,-12.268066
19070,0.067261,-0.256836,0.941406,-1.770020,-3.784180,-11.657715
19080,0.084106,-0.275757,0.964600,-1.831055,-3.662109,-11.352539
19091,0.067993,-0.322876,0.932373,-1.953125,-3.845215,-11.169434
19100,0.049561,-0.265015,0.976318,-2.136230,-3.784180,-11.108398
19111,0.060181,-0.323608,0.910156,-2.136230,-3.967285,-11.413574
