timestamp,accX,accY,accZ,gyrX,gyrY,gyrZ
10,0.080566,-0.182617,1.022461,-2.929688,-6.896973,-5.187988
20,0.033936,-0.202148,0.982056,-3.173828,-6.835937,-5.126953
30,0.152344,-0.133789,0.982910,-3.051758,-5.798340,-5.432129
43,0.018921,-0.195435,0.953979,-2.136230,-7.202148,-7.263184
52,-0.011841,-0.124146,1.005615,-2.319336,-9.338379,-7.446289
62,0.039063,-0.073120,0.989624,-1.953125,-5.737305,-7.507324
71,0.015381,-0.179565,0.927124,-2.563477,-6.713867,-6.896973
81,0.023437,-0.058472,0.914062,-2.563477,-9.277344,-6.469727
90,-0.012207,-0.035522,0.929932,-2.624512,-6.896973,-5.920410
100,0.000122,-0.105835,0.994385,-2.929688,-5.798340,-5.187988
113,0.035400,-0.095215,1.058594,-2.807617,-5.493164,-4.150391
123,-0.019043,-0.104980,1.018188,-2.746582,-5.615234,-4.150391
132,-0.007813,-0.153931,1.040039,-2.624512,-5.493164,-4.089355
142,0.020264,-0.099731,0.963989,-2.868652,-5.432129,-3.295898
152,-0.000122,-0.159180,0.878052,-3.417969,-5.432129,-1.953125
161,0.051025,-0.164185,0.904053,-3.784180,-4.394531,-0.183105
171,0.013794,-0.103638,0.914307,-4.455566,-3.295898,2.441406
180,0.054443,-0.041260,1.040771,-4.577637,-2.075195,7.080078
190,0.019409,-0.075806,1.010498,-4.455566,-1.892090,8.117676
200,-0.031128,-0.091553,0.998901,-4.089355,-2.990723,8.483887
211,-0.084717,-0.165771,0.961548,-3.845215,-3.112793,8.117676
221,-0.078735,-0.136230,1.111450,-3.967285,-2.807617,7.751465
231,-0.013916,-0.084229,1.139893,-3.601074,-2.929688,8.056641
241,0.011475,-0.220093,0.960205,-2.258301,-2.075195,8.239746
250,-0.055664,-0.367432,0.790161,-2.502441,-4.028320,8.422852
260,-0.064209,-0.354614,0.789307,-3.173828,-2.685547,8.666992
271,-0.110596,-0.112061,0.935913,-3.540039,-1.525879,9.765625
280,-0.140503,-0.223633,0.954102,-3.234863,-1.831055,11.169434
290,-0.141357,-0.220459,0.911865,-2.563477,0.366211,11.413574
301,-0.096680,-0.265015,0.899658,-2.624512,0.122070,10.925293
310,-0.072388,-0.269409,0.884521,-3.356934,0.122070,10.253906
320,-0.046997,-0.161011,0.932617,-3.784180,-0.732422,9.460449
332,-0.077148,-0.109863,1.088135,-3.601074,-1.281738,7.629395
341,0.009399,-0.195190,1.037476,-2.868652,-0.854492,7.507324
351,0.016602,-0.156494,1.035034,-2.563477,-0.671387,7.202148
360,0.022705,-0.184692,0.990234,-2.197266,-1.342773,6.225586
370,-0.009277,-0.197998,1.022095,-1.953125,-1.831055,5.615234
380,-0.003052,-0.185791,1.040405,-1.647949,-1.953125,4.882812
390,-0.027588,-0.105713,1.068604,-1.220703,-1.403809,5.004883
401,-0.115601,-0.180420,1.047485,-0.854492,-1.220703,6.103516
411,-0.097534,-0.211182,1.024292,-1.220703,-0.976562,6.469727
420,-0.114380,-0.104004,0.939941,-1.403809,-0.366211,7.019043
430,-0.139038,-0.128052,0.951050,-1.464844,0.305176,7.385254
441,-0.175659,-0.234619,0.882935,-1.464844,0.549316,7.934570
450,-0.169556,-0.139648,0.960693,-2.136230,1.708984,8.300781
460,-0.172485,-0.146973,0.915649,-2.685547,2.258301,9.033203
471,-0.153931,-0.210571,0.887817,-2.685547,3.112793,9.948730
481,-0.155396,-0.210693,0.894653,-3.112793,3.784180,9.643555
490,-0.074829,-0.148682,1.006958,-3.784180,3.723145,8.789063
501,-0.069214,-0.015869,1.016968,-3.845215,3.906250,8.117676
510,-0.110718,-0.009644,1.103149,-3.601074,3.662109,7.324219
521,-0.102051,0.119385,1.293213,-2.929688,4.150391,6.225586
530,-0.096069,0.008789,1.137573,-1.403809,5.004883,3.356934
542,-0.098633,-0.119873,0.931396,-0.488281,4.394531,1.770020
551,-0.159912,-0.012817,0.892578,-0.915527,5.065918,1.098633
561,-0.159302,-0.014404,0.911743,-1.708984,5.615234,1.342773
570,-0.182495,0.103638,1.051025,-2.075195,7.019043,2.136230
581,-0.152222,0.036987,1.001953,-1.342773,8.666992,3.234863
591,-0.112061,-0.050171,0.997925,-0.610352,9.643555,3.845215
600,0.004272,-0.132935,0.962524,-0.610352,8.117676,3.112793
610,-0.000610,-0.124878,0.920410,-0.915527,8.850098,3.112793
621,0.005737,-0.137207,0.870728,-0.854492,8.728027,3.845215
630,0.010986,-0.131836,0.942627,-0.793457,8.972168,4.638672
641,0.042236,-0.223511,0.941040,-0.366211,8.972168,5.920410
650,0.003296,-0.192383,0.951538,-0.427246,8.544922,6.469727
661,-0.054321,-0.170898,0.858521,-0.610352,9.521484,7.263184
670,-0.033447,-0.106934,1.074585,-0.244141,10.070801,7.995605
680,0.040771,-0.162231,1.122925,0.610352,9.704590,7.690430
691,-0.141846,-0.340698,0.933472,1.098633,8.666992,6.103516
700,-0.082031,-0.235962,1.031494,1.098633,9.582520,5.249023
711,0.035156,-0.305176,1.039795,0.854492,9.155273,5.126953
720,0.077148,-0.103027,0.983032,0.427246,8.117676,5.187988
731,0.060669,-0.212280,0.907959,0.732422,8.972168,7.080078
740,0.116455,-0.145386,0.942139,0.610352,10.559082,11.901855
752,0.091797,-0.125854,1.078247,-0.732422,8.789063,13.183594
761,0.013184,-0.084595,1.079834,-0.976562,9.338379,13.916016
771,0.006348,-0.031006,1.093018,-0.671387,9.704590,14.282227
781,0.044189,-0.215332,1.008667,-0.366211,9.521484,14.709473
790,0.013428,-0.105591,1.029541,0.061035,8.728027,13.427734
800,0.053101,-0.175049,0.917480,-0.061035,6.896973,13.000488
813,0.163574,-0.201416,0.833618,-1.220703,6.652832,14.099121
822,0.072754,-0.068115,0.961548,-1.647949,6.652832,15.441895
832,0.091064,-0.088257,1.000488,-1.525879,7.446289,16.601562
841,0.069214,-0.103271,1.052368,-0.732422,6.408691,17.333984
851,0.045288,-0.228149,1.080200,0.061035,6.347656,16.723633
860,-0.028320,-0.277832,0.985107,-0.244141,5.676270,15.747070
870,-0.013428,-0.115112,1.062378,-0.793457,5.981445,14.526367
880,0.014893,-0.188965,0.944824,-0.671387,5.249023,12.878418
891,0.030518,-0.161865,0.956299,-1.098633,5.065918,10.498047
901,0.000244,-0.027100,1.048096,-1.342773,4.211426,9.033203
910,0.037964,-0.099976,1.024414,-1.281738,1.770020,7.507324
921,0.073364,-0.175415,1.006958,-0.488281,6.652832,6.042480
930,0.049805,-0.101563,1.118530,-1.281738,3.479004,5.371094
941,0.009644,-0.144287,1.010376,-0.549316,4.333496,4.028320
950,0.060791,-0.083984,0.983154,0.000000,3.112793,3.234863
962,0.100098,-0.281372,0.789673,-0.427246,3.173828,4.028320
971,0.099243,-0.259521,0.792358,-1.892090,3.723145,5.798340
980,0.061401,-0.088623,0.953369,-2.746582,3.906250,8.605957
990,0.037476,-0.209839,0.972168,-2.441406,5.249023,11.962891
1001,0.030151,-0.132324,1.081299,-1.953125,6.408691,14.282227
1011,0.110962,-0.237671,1.018311,-1.647949,4.943848,14.404297
1020,0.112183,-0.359009,0.895874,-1.892090,3.051758,10.559082
1032,0.103882,-0.181885,1.042480,-2.685547,0.549316,9.460449
1041,0.159790,-0.059570,1.019531,-2.380371,2.685547,9.582520
1051,0.146851,-0.156372,0.974854,-2.197266,0.854492,10.253906
1060,0.201416,-0.220093,0.855835,-1.953125,1.098633,11.291504
1071,0.167114,-0.122314,0.981812,-2.136230,3.234863,12.939453
1080,0.163940,-0.127686,0.931152,-2.746582,-0.244141,14.526367
1093,0.070801,-0.111572,1.084473,-1.770020,-0.305176,16.662598
1103,0.030518,-0.113037,1.072754,-1.464844,1.586914,16.357422
1112,0.071655,0.052612,1.061401,-2.319336,-1.892090,16.174316
1121,0.024170,-0.056519,1.005615,-1.464844,-2.075195,15.197754
1131,0.031738,0.008057,1.026611,-1.220703,-0.061035,15.808105
1140,-0.010132,0.056641,1.099854,-1.220703,-3.784180,16.113281
1150,0.021484,-0.054687,1.029297,-0.244141,0.793457,16.906738
1163,0.033691,-0.021362,1.106201,0.976562,-1.220703,16.906738
1172,-0.004761,-0.203735,0.965698,0.915527,-0.122070,17.578125
1182,-0.039429,-0.004883,1.029785,0.488281,-3.295898,17.272949
1191,-0.061768,-0.171387,0.905396,1.464844,1.647949,17.333984
1201,-0.056763,-0.173584,0.907715,0.915527,-0.366211,17.578125
1210,-0.021362,-0.135986,0.987549,0.183105,-1.586914,18.127441
1221,0.022461,-0.274292,0.916382,0.061035,-0.915527,18.615723
1230,-0.038452,-0.120239,0.979126,-0.549316,-0.427246,20.446777
1242,0.028809,-0.157593,1.039551,-0.549316,-0.366211,21.179199
1251,0.018311,-0.060669,1.050293,0.000000,-0.061035,21.545410
1261,-0.005005,-0.057495,1.045654,-0.427246,-1.831055,22.033691
1270,0.008423,-0.056274,1.079712,0.793457,-1.098633,22.277832
1281,0.029541,-0.038330,1.051514,1.281738,-1.831055,23.620605
1291,0.056519,-0.182861,0.983398,2.197266,-2.502441,23.742676
1300,0.011719,-0.078247,1.013672,1.831055,-5.249023,24.230957
1312,0.032471,-0.109131,1.064575,2.502441,-2.441406,23.803711
1321,0.028320,-0.029541,1.051758,2.258301,-3.662109,23.071289
1331,0.049561,-0.016235,1.086914,2.258301,-3.112793,21.667480
1341,0.039307,-0.167480,1.003052,2.319336,-5.065918,19.958496
1351,0.071899,-0.107544,1.004761,2.624512,-5.493164,18.127441
1362,0.090698,-0.166260,0.908325,2.502441,-6.835937,14.404297
1372,0.123535,-0.094238,0.957275,2.075195,-7.812500,13.305664
1381,0.140015,-0.182617,1.000488,2.014160,-7.995605,12.512207
1391,0.089966,-0.076904,0.997437,2.075195,-8.239746,11.840820
1400,0.102539,-0.051514,1.085815,2.624512,-7.934570,11.596680
1411,0.065918,-0.307495,0.957642,2.807617,-8.300781,11.108398
1420,0.150879,-0.125122,1.034668,2.258301,-10.437012,10.437012
1431,0.092163,-0.106934,1.040283,2.258301,-8.728027,10.070801
1442,0.070435,-0.131104,1.033569,2.014160,-13.061523,7.080078
1451,0.036865,-0.071045,1.029175,1.892090,-12.207031,5.859375
1461,0.053345,-0.282959,0.955688,2.075195,-10.803223,4.455566
1470,0.040039,-0.026611,1.001587,1.159668,-12.023926,3.845215
1481,0.111694,-0.126587,1.074707,1.342773,-10.192871,3.173828
1490,0.055664,-0.125122,0.998291,1.159668,-11.108398,2.624512
1501,0.045166,-0.067749,1.057617,1.525879,-11.169434,2.075195
1510,0.070679,-0.254883,0.960083,1.953125,-11.962891,-0.183105
1522,0.112427,-0.155029,0.951172,1.281738,-13.183594,-1.342773
1531,0.031860,-0.358765,0.818359,1.098633,-12.145996,-1.831055
1541,0.093872,-0.141113,0.941040,-0.183105,-12.512207,-2.075195
1551,0.069824,-0.213989,0.927490,-0.854492,-10.803223,-1.647949
1561,0.053711,-0.218872,0.852417,-1.770020,-11.169434,-1.342773
1571,0.029785,-0.067261,0.986572,-2.685547,-12.268066,-0.732422
1581,0.061523,-0.136719,0.963867,-3.112793,-10.681152,-1.770020
1590,0.024414,0.047974,1.079956,-2.807617,-11.840820,-3.234863
1601,-0.005005,-0.197632,1.025513,-2.014160,-10.375977,-4.211426
1611,-0.005981,-0.123291,1.022949,-1.586914,-10.620117,-5.859375
1620,-0.020996,-0.099854,1.050537,-1.831055,-10.559082,-6.530762
1631,-0.109131,-0.145630,0.952026,-1.525879,-8.911133,-7.568359
1640,-0.101074,0.040039,1.036865,-2.258301,-8.483887,-8.666992
1652,-0.078247,-0.177368,0.779419,-2.380371,-11.108398,-12.817383
1662,0.020752,0.026245,0.951660,-3.051758,-10.009766,-14.465332
1671,0.037720,-0.132935,0.951416,-3.540039,-7.751465,-15.075684
1681,0.067627,-0.044434,1.000610,-3.723145,-7.141113,-15.991211
1691,0.114258,0.113403,1.091675,-3.845215,-7.751465,-16.174316
1700,0.142090,-0.025879,1.000854,-3.234863,-7.263184,-15.747070
1711,0.155884,-0.048340,1.019043,-2.075195,-6.286621,-14.953613
1721,0.114136,-0.205933,0.953735,-2.197266,-6.713867,-13.183594
1731,-0.015747,-0.106812,0.964478,-2.624512,-6.103516,-12.634277
1740,-0.073608,-0.212524,0.851440,-2.807617,-4.943848,-12.329102
1751,-0.062866,-0.110718,0.895874,-3.662109,-5.065918,-12.390137
1761,-0.080078,-0.210815,0.845703,-3.601074,-2.685547,-12.451172
1771,-0.067139,-0.160278,0.861938,-4.333496,-2.685547,-12.512207
1781,-0.008789,-0.045898,0.971802,-5.554199,-2.380371,-11.779785
1790,-0.050659,-0.189087,0.959106,-5.249023,1.281738,-12.329102
1801,-0.046997,0.051147,1.048584,-5.249023,-2.136230,-12.390137
1811,-0.011353,-0.128906,0.977905,-3.967285,2.807617,-12.939453
1821,-0.035278,0.082520,1.104248,-5.126953,0.549316,-12.268066
1831,-0.075562,-0.085815,0.977783,-4.333496,0.366211,-12.329102
1841,0.003174,-0.012817,0.887085,-3.906250,3.723145,-10.314941
1850,0.069580,0.020874,0.975220,-3.356934,1.770020,-8.483887
1862,0.042114,-0.070923,0.965332,-2.441406,6.347656,-4.577637
1872,0.070312,-0.069580,0.992554,-2.441406,6.958008,-1.831055
1881,0.015259,-0.199463,1.002563,-3.601074,4.882812,1.770020
1891,-0.044434,-0.029175,1.122803,-3.112793,7.080078,4.516602
1901,-0.120361,-0.058960,1.074829,-3.112793,4.455566,6.652832
1911,-0.189697,-0.131714,1.037354,-2.380371,5.798340,7.812500
1921,-0.102417,-0.199463,0.931641,-1.464844,8.239746,8.483887
1931,-0.117188,-0.375854,0.842407,-2.807617,7.629395,9.826660
1941,-0.045288,-0.236206,0.891724,-3.967285,8.666992,11.413574
1951,-0.072754,-0.163086,0.937622,-4.699707,6.042480,11.962891
1961,-0.074585,0.156982,1.142822,-3.601074,11.962891,12.878418
1971,-0.038452,-0.131958,1.016602,-4.028320,7.873535,14.221191
1981,-0.042603,-0.282471,0.915894,-3.051758,7.385254,13.610840
1991,-0.031494,0.008911,1.117432,-3.295898,10.253906,13.916016
2002,0.064575,-0.298950,0.879150,-2.868652,7.995605,14.343262
2012,0.102051,-0.021362,0.971069,-2.624512,6.713867,14.465332
2021,0.092651,-0.234009,0.964111,-3.417969,5.859375,16.113281
2031,0.048218,-0.132324,1.012573,-3.967285,4.638672,17.089844
2041,0.054443,0.116455,1.192505,-3.906250,6.225586,19.042969
2051,-0.015015,-0.094604,1.182617,-2.258301,5.981445,20.385742
2062,-0.050293,-0.252197,1.070068,-0.976562,4.882812,21.911621
2072,-0.013306,0.015137,1.156006,0.488281,9.216309,21.423340
2082,-0.036377,-0.109375,1.157715,0.366211,4.455566,21.667480
2091,-0.034790,-0.186523,1.018799,2.014160,2.258301,20.507812
2101,0.001343,-0.169434,0.917847,3.540039,6.042480,20.202637
2112,0.026855,-0.222168,0.919434,2.807617,0.549316,20.080566
2121,0.058594,-0.323853,0.837646,3.051758,4.516602,19.958496
2131,0.083862,-0.158203,0.950195,0.732422,1.403809,20.202637
2142,0.036743,-0.073853,1.041138,0.610352,2.319336,20.874023
2151,0.017944,-0.090088,1.093384,0.854492,-1.342773,20.324707
2161,-0.002686,-0.049438,1.090698,2.624512,2.868652,19.592285
2171,-0.016357,-0.108765,1.076294,2.014160,0.244141,19.775391
2181,-0.024658,-0.135254,1.071411,2.380371,-3.112793,18.371582
2191,0.002686,0.031372,1.120972,3.662109,2.197266,17.333984
2201,0.030396,-0.011597,1.061401,2.868652,-0.732422,17.456055
2212,0.037598,-0.252319,0.892822,3.479004,0.305176,14.587402
2222,-0.013672,-0.088257,0.972656,3.234863,-2.929688,13.977051
2231,0.030029,0.114014,1.075562,3.295898,-2.563477,12.145996
2241,0.003662,-0.113647,0.998413,3.540039,0.183105,12.084961
2251,0.019043,-0.300659,0.877197,3.540039,-5.676270,11.535645
2261,0.049927,-0.222046,0.757202,4.699707,-2.807617,10.559082
2272,0.100464,-0.065918,0.979858,2.624512,-5.371094,8.850098
2282,0.079590,-0.118286,0.924072,2.136230,-2.380371,8.666992
2291,0.119019,-0.135620,0.839966,1.220703,-5.615234,7.019043
2302,0.135498,-0.200195,0.756836,1.098633,-3.295898,6.347656
2311,0.150269,-0.063721,0.865356,-0.427246,-5.798340,5.249023
2321,0.145142,-0.082642,0.920410,-1.342773,-7.202148,3.723145
2331,0.198486,-0.025879,0.893677,-1.770020,-7.080078,2.380371
2341,0.202393,0.020630,0.981201,-1.586914,-6.652832,1.403809
2353,0.119995,-0.228271,1.004883,-2.014160,-8.789063,-1.953125
2362,0.098267,-0.072876,1.083740,-1.831055,-10.192871,-4.089355
2372,0.057129,0.084351,1.207397,-2.197266,-10.742188,-5.187988
2381,0.123413,-0.076416,1.168945,-2.014160,-8.483887,-6.286621
2391,0.077271,-0.133667,1.068970,-2.441406,-10.437012,-6.958008
2402,-0.047729,0.017212,1.079712,-2.319336,-10.681152,-7.446289
2411,0.018433,-0.015015,1.052368,-2.502441,-9.582520,-8.422852
2421,0.055786,-0.159668,0.927856,-2.197266,-9.216309,-8.239746
2432,0.151733,-0.125488,0.956421,-2.441406,-9.338379,-8.483887
2441,0.104980,-0.226562,0.869141,-3.112793,-9.155273,-8.361816
2452,0.131348,0.018799,1.030151,-3.967285,-9.155273,-8.117676
2461,0.075928,-0.106201,1.007446,-4.760742,-9.704590,-7.812500
2471,0.030396,-0.232544,0.980103,-4.272461,-8.544922,-7.995605
2484,0.055420,-0.143066,1.105225,-4.577637,-8.666992,-7.873535
2493,0.012085,-0.337524,0.962646,-4.638672,-8.483887,-7.690430
2503,-0.012695,-0.130127,1.027588,-4.699707,-8.422852,-7.080078
2513,0.008301,0.012695,1.002075,-4.455566,-6.774902,-6.225586
2522,-0.083984,-0.177612,0.907104,-4.455566,-7.324219,-5.004883
2532,-0.075439,-0.094604,0.879761,-4.089355,-6.652832,-3.906250
2542,-0.070923,-0.074829,0.938477,-3.784180,-5.310059,-1.953125
2552,-0.068604,-0.277588,0.869263,-3.723145,-3.601074,0.915527
2562,-0.036133,-0.103027,1.009155,-3.906250,-3.784180,2.197266
2571,-0.116699,-0.173218,0.921021,-3.784180,-2.929688,2.746582
2581,-0.109009,0.090210,0.979370,-3.662109,-2.929688,2.624512
2592,-0.103271,-0.068115,1.046875,-2.563477,-2.441406,3.051758
2601,-0.166626,-0.157104,0.942749,-1.953125,-1.831055,3.356934
2611,-0.132446,-0.086426,1.038208,-1.464844,-1.647949,3.295898
2624,-0.145630,-0.086670,0.984131,1.098633,0.122070,3.662109
2633,-0.125732,-0.376465,0.831787,1.892090,0.061035,3.723145
2643,-0.021606,-0.228760,0.892578,1.831055,0.793457,3.540039
2652,0.027466,-0.057983,0.994263,0.915527,0.671387,3.662109
2661,-0.000977,-0.268677,0.873413,0.366211,0.000000,3.723145
2672,0.042603,-0.232422,0.852051,-0.366211,-0.061035,3.845215
2681,0.073975,0.061523,1.005371,-1.342773,-0.183105,4.028320
2694,0.033447,-0.158325,1.003906,-2.441406,-0.244141,4.333496
2703,0.069824,-0.054932,1.102173,-2.929688,-0.366211,4.455566
2713,0.001343,0.105591,1.088257,-3.112793,-0.732422,4.272461
2723,-0.001099,0.015869,1.013916,-2.746582,-0.427246,3.967285
2732,-0.011353,-0.085571,0.958618,-2.319336,-1.770020,3.784180
2742,0.017334,-0.048340,0.939331,-1.892090,-1.220703,3.662109
2752,0.066528,-0.134644,0.971680,-2.136230,-1.464844,3.173828
2761,0.068604,-0.080078,0.990845,-2.380371,-1.220703,3.234863
2773,0.012329,-0.184082,1.064819,-2.685547,-1.953125,2.624512
2782,0.033203,-0.231567,1.012939,-2.563477,-1.708984,1.464844
2792,-0.017212,-0.005493,1.064819,-2.868652,-2.624512,0.427246
2801,0.040894,0.035645,1.125732,-2.746582,-2.685547,-0.854492
2811,-0.017090,-0.219849,0.976929,-2.502441,-3.295898,-2.319336
2822,0.027832,-0.138184,0.924194,-2.563477,-3.601074,-3.234863
2831,0.001343,0.036621,1.007568,-2.746582,-3.234863,-5.310059
2841,0.055420,-0.162231,0.955078,-2.502441,-3.662109,-6.347656
2852,0.024658,0.105225,1.107056,-2.258301,-4.394531,-7.141113
2861,0.046387,-0.021362,1.074341,-1.281738,-4.333496,-7.751465
2872,0.003418,-0.310303,0.914551,-0.366211,-3.967285,-7.873535
2881,0.061035,-0.097656,0.915161,-0.427246,-3.417969,-7.873535
2892,0.128174,0.025879,0.984985,-0.671387,-2.929688,-7.324219
2901,0.135498,-0.215576,0.942993,-0.732422,-2.868652,-7.019043
2911,0.044434,-0.209229,0.890015,-2.197266,-2.807617,-7.263184
2922,0.100830,-0.086670,0.960815,-2.685547,-2.380371,-7.324219
2931,0.054932,-0.045166,0.986206,-2.807617,-3.234863,-7.507324
2941,0.019531,0.034912,1.072632,-2.136230,-2.990723,-7.751465
2952,0.001953,0.014893,1.048096,-2.441406,-4.943848,-7.507324
2961,0.009155,-0.104736,0.971436,-1.220703,-1.464844,-7.324219
2974,-0.034790,-0.195068,1.010620,0.305176,-1.770020,-7.751465
2983,0.012329,-0.312012,0.888062,0.244141,-1.647949,-8.605957
2993,0.076050,-0.027588,0.939697,-0.488281,-2.868652,-9.216309
3003,0.059814,0.012329,1.003174,-1.098633,-3.112793,-9.033203
3012,0.027588,-0.232544,0.856079,-0.854492,-1.586914,-9.033203
3022,-0.001953,-0.075562,0.904907,-1.342773,-3.417969,-8.422852
3031,0.039185,0.059814,1.062256,-1.037598,0.610352,-7.446289
3044,-0.026611,-0.182007,1.024292,-0.854492,0.793457,-5.920410
3053,0.001709,0.033081,1.054443,-0.793457,-1.281738,-5.615234
3063,-0.002563,-0.037598,1.026855,-0.061035,0.976562,-4.943848
3073,-0.021484,-0.232666,0.902222,0.244141,0.610352,-4.150391
3082,-0.045776,-0.113403,0.923828,-0.183105,-1.708984,-3.051758
3092,-0.008911,-0.041626,1.012329,0.183105,1.403809,-2.075195
3101,-0.062012,-0.166504,0.933716,-0.366211,1.098633,-0.549316
3111,-0.050659,-0.115479,0.980225,-0.488281,4.272461,1.098633
3122,-0.046997,-0.104614,1.007446,-0.488281,3.662109,4.028320
3132,-0.050293,-0.080811,1.077026,-0.427246,3.723145,4.943848
3142,-0.059937,-0.060059,1.055420,-1.220703,0.732422,5.798340
3152,-0.071045,-0.086426,1.003296,-0.427246,3.356934,5.737305
3162,-0.025269,-0.123901,1.014038,-0.122070,2.136230,5.371094
3172,-0.028198,-0.120728,0.969116,0.183105,5.187988,6.225586
3181,-0.021729,-0.152222,0.973877,-0.305176,3.601074,6.896973
3191,0.002441,-0.218262,1.012939,-1.586914,2.624512,7.446289
3202,-0.017212,0.024048,1.024414,-1.464844,2.990723,7.812500
3211,-0.033203,-0.058105,1.031128,-1.464844,2.502441,8.666992
3221,-0.025269,-0.232422,0.964233,-1.037598,3.234863,8.728027
3232,-0.073853,-0.154663,1.005249,-1.037598,3.234863,8.239746
3241,-0.043823,-0.005859,1.031616,-1.464844,1.098633,7.629395
3251,-0.135864,-0.169922,0.963379,-1.159668,2.502441,6.469727
3263,-0.033325,-0.095825,0.943237,-1.586914,2.319336,6.286621
3272,-0.018433,-0.105591,0.994995,-1.647949,3.662109,5.920410
3282,-0.047119,-0.177612,0.956177,-2.258301,2.258301,5.676270
3291,-0.019043,-0.041748,1.014038,-2.380371,2.380371,5.065918
3302,-0.026611,-0.021973,1.039795,-2.075195,2.990723,4.089355
3311,-0.016968,-0.172241,0.924316,-1.831055,2.441406,3.295898
3324,0.034424,0.006714,0.934692,-1.525879,2.319336,0.732422
3333,0.026245,-0.228149,0.740112,-1.708984,1.953125,-0.427246
3343,0.049072,-0.177124,0.787354,-2.380371,1.953125,-1.586914
3352,0.046997,-0.016357,0.883667,-3.723145,1.464844,-2.380371
3362,0.031616,-0.115479,0.835205,-4.821777,1.220703,-2.563477
3371,0.021606,0.064575,0.931030,-5.432129,4.150391,-2.746582
3382,-0.000366,0.186157,1.068359,-6.652832,0.000000,-2.563477
3392,0.023804,-0.071533,1.012817,-5.126953,1.708984,-2.563477
3403,-0.010864,0.076416,1.136963,-3.967285,4.089355,-3.479004
3413,-0.013672,-0.127319,1.083374,-4.394531,3.967285,-3.112793
3422,-0.000977,-0.121582,1.042603,-4.150391,0.244141,-3.906250
3432,0.008423,0.056274,1.092163,-3.540039,4.272461,-3.601074
3442,0.057495,-0.011353,1.023560,-3.662109,3.356934,-2.807617
3451,0.028564,-0.150879,0.967163,-3.417969,3.051758,-2.014160
3464,0.052856,-0.021851,1.095703,-3.234863,2.563477,-0.183105
3473,0.037109,-0.152344,1.078979,-2.929688,3.051758,0.671387
3483,0.015869,0.006226,1.054932,-2.929688,2.319336,1.342773
3492,0.027100,-0.000732,1.084351,-2.197266,3.967285,1.953125
3502,0.025269,-0.101318,0.997192,-2.563477,2.502441,2.624512
3511,0.043091,-0.107910,1.054565,-2.868652,2.380371,3.234863
3522,-0.026489,-0.022339,1.005249,-2.624512,3.601074,3.540039
3532,-0.004761,-0.123657,1.013916,-2.807617,3.479004,4.333496
3542,-0.074341,0.006958,0.896851,-2.990723,3.845215,4.821777
3551,-0.072021,-0.045410,0.987915,-2.929688,4.089355,5.432129
3562,-0.113770,-0.171021,0.874878,-3.051758,3.112793,6.225586
3571,-0.077026,0.000854,0.962036,-2.563477,6.652832,6.530762
3582,-0.044678,-0.098633,0.948975,-3.479004,3.662109,7.812500
3591,-0.020264,-0.165771,0.898315,-2.624512,5.981445,8.422852
3604,0.002441,-0.185547,0.966064,-3.967285,4.760742,10.925293
3613,-0.019775,-0.072510,0.937378,-4.211426,3.417969,11.108398
3623,-0.012451,0.080078,1.029297,-3.845215,1.281738,10.742188
3632,0.003418,-0.129517,0.911865,-2.075195,5.432129,10.070801
3642,0.008545,-0.140381,0.914307,-1.708984,8.056641,10.375977
3651,0.021118,0.049072,1.033569,-1.831055,2.502441,10.864258
3662,-0.005981,-0.076416,1.070801,-0.549316,0.915527,10.864258
3671,0.014771,-0.206665,0.993896,1.098633,3.723145,12.451172
3683,0.054443,-0.028687,1.065552,1.953125,4.516602,12.145996
3692,0.038086,-0.238770,0.965942,1.403809,4.089355,12.939453
3702,0.072510,-0.209473,0.930176,1.159668,-0.549316,12.512207
3711,0.067871,-0.013794,0.971069,2.258301,3.234863,11.840820
3722,0.086548,-0.169922,0.979004,1.525879,1.831055,12.573242
3731,0.046021,-0.256348,0.896729,1.464844,1.892090,12.268066
3744,0.018311,-0.069214,1.009644,-0.305176,0.793457,12.207031
3753,-0.036377,-0.241211,0.896606,-1.159668,0.854492,11.352539
3763,-0.008911,-0.027588,0.953369,-2.075195,1.770020,10.742188
3772,-0.027466,0.148193,1.066406,-1.953125,0.610352,9.521484
3781,-0.031982,-0.108887,1.027466,-2.197266,0.122070,8.544922
3791,-0.045776,-0.193237,1.035034,-1.831055,3.540039,7.324219
3801,-0.030762,0.026123,1.109619,-2.929688,0.000000,7.202148
3814,-0.008301,-0.076416,1.093994,-2.624512,-0.915527,4.455566
3823,0.033813,0.022827,1.053101,-2.990723,1.098633,4.150391
3833,0.058105,0.017334,1.060791,-3.051758,-4.333496,2.563477
3842,0.082153,-0.122803,0.995117,-1.708984,-1.098633,0.915527
3851,0.053711,-0.088989,1.006592,-1.892090,-0.976562,0.183105
3861,0.167847,-0.116943,1.112549,-1.159668,-1.159668,-1.831055
3872,0.113403,-0.206055,1.000000,-1.281738,-2.136230,-2.868652
3881,0.092773,-0.530029,0.990234,-0.854492,-3.173828,-5.187988
3893,0.179077,-0.012573,1.113037,-7.568359,-3.906250,-6.042480
3902,0.337402,-0.415527,0.026611,-8.789063,-5.187988,-6.591797
3912,0.099487,0.053955,0.485596,-10.253906,-6.347656,-5.737305
3921,0.209106,0.222778,0.518921,-14.160156,-9.216309,-4.577637
3931,0.061523,0.279663,0.222656,-18.310547,-8.544922,-3.723145
3942,0.017700,0.571655,0.191040,-24.230957,-8.850098,-0.732422
3951,-0.169556,0.593262,0.299683,-25.451660,0.976562,3.845215
3963,-0.323730,-0.030640,0.410767,-26.000977,-1.586914,3.601074
3972,-0.207642,0.275513,0.500977,-31.066895,0.244141,2.136230
3982,-0.021606,0.763794,0.791016,-35.217285,0.244141,0.244141
3991,0.110718,0.664062,1.143799,-33.508301,-0.427246,-0.549316
4001,-0.016235,0.442749,1.248413,-31.188965,-3.112793,-1.831055
4012,0.061646,0.693115,1.537842,-29.968262,-1.953125,-3.662109
4021,0.019043,0.566284,1.772949,-26.306152,0.732422,-2.868652
4033,-0.008423,0.806274,1.564697,-20.202637,-1.831055,0.488281
4042,0.088989,0.957153,1.538696,-17.578125,3.112793,3.173828
4052,0.150024,0.864868,1.784180,-12.023926,3.417969,6.958008
4061,0.054810,0.104736,1.738770,-3.662109,4.760742,9.765625
4071,-0.103760,-0.102051,1.554932,0.976562,2.563477,9.277344
4081,-0.259033,0.337036,1.434082,0.366211,-2.563477,7.812500
4094,-0.260010,0.192017,0.771973,3.112793,1.037598,7.751465
4103,-0.380859,0.272583,0.993652,3.845215,2.868652,8.300781
4113,-0.419678,0.384155,1.052002,2.502441,4.211426,8.056641
4122,-0.350098,0.498657,0.965942,0.000000,6.286621,7.141113
4131,-0.297974,0.671997,0.961914,-0.793457,5.737305,6.652832
4141,-0.194946,1.071289,1.326294,0.244141,6.591797,7.507324
4151,-0.197266,0.863403,1.022583,3.845215,10.253906,9.887695
4161,-0.071167,0.192383,0.728760,8.728027,7.751465,11.779785
4172,0.008423,0.906616,0.994019,1.586914,10.559082,13.793945
4182,0.039917,1.078979,1.068970,-2.990723,10.314941,14.831543
4191,0.014038,0.927979,0.870972,-3.723145,10.498047,16.418457
4201,0.128540,0.865845,0.723877,-2.014160,11.230469,18.005371
4211,0.186768,0.932495,1.010010,-0.488281,9.704590,20.690918
4221,0.127686,0.755127,1.408813,0.000000,10.559082,22.827148
4234,0.084839,0.640015,0.861206,-2.746582,9.948730,23.742676
4243,0.162720,0.761108,0.555542,-2.075195,10.681152,24.230957
4252,0.231689,0.812012,0.868774,-0.976562,10.681152,24.658203
4262,0.138306,0.574341,1.197876,-0.488281,8.911133,25.085449
4271,0.118286,0.368774,1.150391,-1.403809,7.995605,24.047852
4281,0.226440,0.469727,0.943604,-2.746582,6.591797,21.789551
4291,0.275879,0.805786,0.951172,-4.272461,4.272461,20.446777
4301,0.193848,0.802368,1.023682,-2.746582,3.356934,19.836426
4312,0.052490,0.237305,1.089478,1.220703,1.037598,16.296387
4322,0.141968,0.370117,1.114014,1.037598,2.075195,12.634277
4331,0.162964,0.575439,0.959839,-0.427246,-1.159668,8.789063
4341,0.149658,0.677979,1.004028,-0.305176,-1.464844,6.164551
4351,0.176880,0.584961,0.926025,1.464844,-2.258301,4.333496
4361,0.209473,0.427368,1.010986,4.150391,-2.502441,1.892090
4373,0.162842,0.406372,1.031616,5.065918,-5.065918,-2.136230
4383,0.063599,0.388672,0.940552,3.173828,-5.249023,-3.845215
4392,-0.029419,0.619507,0.895996,-0.732422,-6.164551,-5.004883
4402,-0.022583,0.790039,0.744995,-3.295898,-6.652832,-6.408691
4412,-0.019165,1.051147,0.948608,-3.845215,-4.272461,-7.263184
4421,-0.006592,0.859619,0.940063,-2.258301,-4.882812,-8.239746
4431,0.034546,0.697876,1.134399,-0.366211,-3.479004,-8.728027
4444,0.087891,0.766968,1.138550,-1.220703,-5.249023,-10.742188
4453,0.028809,0.716431,0.976196,-1.525879,-3.540039,-10.620117
4463,-0.055542,0.653809,0.912476,-1.281738,-5.004883,-10.192871
4473,-0.062134,0.666748,0.997925,-1.464844,-2.807617,-9.948730
4482,-0.023071,0.644897,1.048340,-1.770020,-2.868652,-11.230469
4492,0.004150,0.683350,1.087158,-2.624512,0.366211,-11.474609
4502,0.017822,0.712891,1.051392,-4.089355,-4.638672,-11.840820
4511,0.012451,0.688354,1.012817,-2.807617,-0.915527,-11.596680
4523,-0.119019,0.653809,0.959839,-1.464844,-2.014160,-11.596680
4533,-0.182617,0.675049,0.938599,-1.281738,-0.305176,-10.925293
4542,-0.127930,0.567505,0.988525,0.000000,2.746582,-10.192871
4552,-0.050781,0.425171,0.998413,0.976562,4.943848,-7.751465
4561,-0.025757,0.354980,0.996582,1.281738,-0.122070,-6.042480
4571,-0.079346,0.274536,0.974487,1.831055,-2.075195,-4.333496
4583,-0.053467,0.374023,1.001465,5.187988,8.300781,-0.549316
4593,-0.069092,0.283203,0.974609,5.920410,8.972168,1.708984
4602,-0.013428,0.134033,1.008667,6.896973,3.417969,2.136230
4612,0.081665,-0.031128,1.096924,9.338379,6.591797,0.976562
4621,0.158203,-0.243652,1.101563,9.765625,6.530762,-0.427246
4631,0.208252,-0.481201,1.082397,9.887695,0.549316,-3.845215
4641,0.261963,-0.461060,0.899902,10.131836,2.441406,-7.080078
4654,0.261597,-0.102783,0.978027,6.958008,-2.685547,-13.793945
4663,0.178223,0.208130,1.146362,5.249023,-2.685547,-16.235352
4672,0.226929,0.441650,1.463867,4.638672,-1.953125,-17.089844
4682,0.151245,0.243774,1.548340,6.042480,-2.502441,-17.089844
4691,0.192383,0.379395,1.942261,8.422852,-0.488281,-16.784668
4701,0.112427,0.403442,1.778076,10.498047,-3.173828,-14.709473
4711,0.154297,0.276978,1.296875,13.366699,-0.061035,-11.779785
4721,0.132568,0.153198,1.080933,14.831543,-1.586914,-9.643555
4733,0.141357,0.162476,1.103516,14.526367,-3.967285,-10.253906
4742,0.066895,0.134766,1.339233,14.404297,-3.662109,-9.887695
4751,-0.015747,0.007813,1.069580,13.854980,-4.516602,-8.239746
4762,0.012817,-0.079590,0.947754,13.977051,-1.892090,-7.385254
4772,0.129028,-0.230225,1.173706,14.221191,-1.892090,-6.713867
4781,0.054077,-0.226440,0.978149,14.343262,-3.662109,-7.080078
4794,-0.031982,-0.376465,0.744995,13.854980,-4.699707,-7.690430
4803,-0.089111,-0.441284,0.634277,13.854980,-3.723145,-7.385254
4812,-0.003174,-0.488159,0.753052,13.305664,-4.333496,-7.324219
4822,-0.024780,-0.371948,0.874146,12.512207,-2.502441,-7.446289
4832,-0.105835,-0.269775,0.660522,11.535645,-2.685547,-7.202148
4841,-0.086914,-0.480957,0.570801,10.986328,-1.831055,-6.713867
4851,-0.030151,-0.448608,0.665283,9.948730,-2.014160,-6.103516
4864,-0.027466,-0.162964,0.734741,8.789063,-0.549316,-3.723145
4873,0.006348,-0.330811,0.781006,8.728027,-0.244141,-2.441406
4883,0.016724,-0.201782,0.833252,7.995605,0.000000,-1.281738
4892,-0.011719,-0.283447,0.796753,6.652832,0.000000,0.427246
4902,-0.005981,-0.110596,0.796021,5.371094,0.183105,2.014160
4912,-0.019165,-0.098633,0.789307,4.638672,1.098633,3.601074
4921,-0.008911,-0.133545,0.797241,3.540039,0.732422,4.821777
4934,0.040649,-0.196655,0.848267,2.441406,1.403809,7.995605
4943,0.043579,-0.128784,0.926025,1.892090,1.831055,8.850098
4952,0.074951,-0.118896,0.979980,1.708984,1.647949,9.582520
4962,0.108276,-0.183716,1.033936,1.586914,1.953125,9.948730
4971,0.143433,-0.236084,1.055176,1.525879,1.892090,10.009766
4981,0.125366,-0.251709,1.072632,1.220703,1.586914,9.338379
4991,0.098022,-0.279663,1.013672,1.220703,0.244141,8.728027
5002,0.109253,-0.293213,1.031372,1.098633,1.098633,7.629395
5012,0.119995,-0.381104,1.004761,0.793457,0.610352,7.202148
5021,0.124512,-0.266357,1.034790,0.305176,-0.976562,7.080078
5032,0.114502,-0.319824,0.994751,0.976562,0.915527,6.591797
5041,0.079224,-0.330688,0.919067,0.183105,-0.549316,6.652832
5051,0.072144,-0.228638,0.885620,0.061035,-0.915527,6.530762
5061,0.043823,-0.197266,0.857422,-0.915527,-4.577637,6.286621
5074,0.025513,-0.136353,0.890259,-1.647949,-2.807617,6.347656
5083,0.003052,-0.147095,0.900757,-1.831055,-1.281738,6.713867
5093,-0.008911,-0.173706,0.924194,-1.770020,-1.159668,6.835937
5102,-0.007568,-0.176025,0.943726,-2.319336,-1.159668,7.263184
5112,0.001587,-0.185425,0.940186,-2.380371,-0.671387,8.178711
5122,0.014893,-0.192261,0.949951,-2.502441,0.305176,8.789063
5131,0.017456,-0.179321,0.945068,-3.234863,-1.831055,9.948730
5144,-0.004272,-0.129761,0.975342,-3.112793,-0.488281,10.925293
5153,-0.004150,-0.111694,0.977905,-2.563477,3.601074,12.023926
5163,-0.011841,-0.134033,0.921631,-3.295898,1.525879,13.122559
5172,-0.026123,-0.173218,0.856689,-3.051758,1.770020,13.610840
5182,-0.051270,-0.144653,0.881714,-3.417969,1.770020,13.977051
5192,-0.065552,-0.144897,0.912720,-3.417969,2.746582,13.671875
5202,-0.042480,-0.178345,0.938110,-3.601074,3.173828,13.549805
5211,-0.002441,-0.200317,0.976318,-4.272461,1.892090,12.084961
5223,0.048096,-0.180786,0.989624,-4.516602,1.281738,10.986328
5232,0.080811,-0.163086,0.987061,-4.760742,0.305176,9.826660
5242,0.117432,-0.132446,0.994507,-4.882812,-0.061035,8.422852
5251,0.131958,-0.115601,1.011353,-4.699707,-0.671387,6.713867
5261,0.142090,-0.105835,1.032837,-4.638672,-0.244141,5.432129
5272,0.156250,-0.103271,1.034058,-4.577637,-1.037598,3.906250
5281,0.165894,-0.106079,1.016235,-4.333496,-1.586914,2.441406
5291,0.166870,-0.102783,1.014038,-4.211426,-1.159668,2.014160
5302,0.152100,-0.070801,1.034546,-4.089355,-0.610352,1.586914
5311,0.115967,-0.073853,1.024658,-4.394531,-3.601074,1.159668
5321,0.078125,-0.074341,1.002441,-3.662109,-0.732422,0.427246
5331,0.045166,-0.066040,1.007568,-4.028320,-1.220703,0.915527
5341,0.027222,-0.071167,1.011719,-3.967285,-4.333496,0.122070
5353,-0.007935,-0.087402,1.026245,-3.845215,-4.089355,-0.488281
5363,-0.022217,-0.089111,1.028687,-3.295898,-2.441406,-1.403809
5373,-0.029663,-0.093994,1.017944,-3.540039,-2.807617,-1.464844
5383,-0.020630,-0.083130,1.018677,-2.807617,-1.220703,-2.258301
5393,-0.013916,-0.082153,1.013916,-3.356934,-1.831055,-1.770020
5402,-0.005981,-0.077393,1.007935,-3.112793,-4.577637,-2.197266
5412,-0.000732,-0.066040,1.008423,-2.502441,1.220703,-1.281738
5421,0.003418,-0.067993,1.006958,-2.563477,0.549316,0.732422
5431,0.018311,-0.069336,1.009399,-2.807617,-2.075195,1.220703
5442,0.014893,-0.052856,1.008179,-2.319336,0.732422,1.708984
5451,0.019775,-0.045898,1.008057,-2.441406,-0.488281,2.319336
5461,0.028564,-0.051758,1.012451,-2.624512,-1.464844,3.112793
5471,0.025391,-0.059204,1.021973,-2.197266,-0.061035,3.540039
5481,0.033447,-0.064087,1.022095,-1.892090,-0.915527,3.784180
5494,0.044556,-0.063354,1.027344,-1.464844,-0.488281,4.516602
5503,0.043213,-0.066162,1.019287,-1.464844,0.305176,4.882812
5513,0.038818,-0.072021,1.002441,-1.586914,0.305176,5.371094
5522,0.031860,-0.077393,1.000488,-1.464844,-1.342773,5.310059
5532,0.019897,-0.074219,1.006958,-1.647949,0.061035,6.347656
5541,0.022949,-0.077393,1.011475,-1.220703,0.122070,6.225586
5552,0.036133,-0.083862,1.006104,-1.464844,-0.366211,6.713867
5561,0.050171,-0.087402,0.995850,-1.403809,0.000000,6.225586
5572,0.063232,-0.103638,0.984131,-1.037598,-0.061035,6.408691
5582,0.056885,-0.114502,0.984131,-1.098633,-0.488281,6.164551
5592,0.049072,-0.121582,0.981689,-1.220703,-1.525879,5.920410
5601,0.054321,-0.125000,0.978760,-0.732422,1.647949,6.103516
5611,0.041748,-0.124268,0.991089,-1.037598,0.000000,6.042480
5621,0.027344,-0.104492,0.994995,-1.403809,1.770020,6.591797
5631,0.024902,-0.104004,0.991699,-1.647949,-1.586914,6.286621
5642,0.036255,-0.100342,0.981567,-1.281738,-0.427246,6.103516
5652,0.039185,-0.114746,0.965820,-1.220703,-0.793457,6.042480
5661,0.047852,-0.098267,0.966797,-1.281738,-1.342773,5.798340
5671,0.059814,-0.078979,0.976929,-0.549316,2.075195,5.554199
5682,0.062500,-0.080444,0.986206,-1.892090,-2.258301,5.432129
5691,0.069214,-0.087769,0.991333,-0.915527,0.122070,4.394531
5703,0.094238,-0.092163,1.008911,-1.708984,-3.967285,3.845215
5713,0.110352,-0.094849,0.994507,-0.732422,-0.793457,3.295898
5722,0.112793,-0.095093,1.001709,-1.159668,-3.540039,2.929688
5732,0.118042,-0.093384,0.988159,-0.610352,-0.244141,2.136230
5742,0.100952,-0.092407,0.995972,-1.525879,-4.638672,2.075195
5751,0.088989,-0.094360,0.981201,-0.793457,-2.990723,1.037598
5762,0.068604,-0.098389,0.993408,-0.732422,-2.563477,0.732422
5771,0.052734,-0.102417,0.994263,-0.976562,-1.220703,0.427246
5783,0.042603,-0.104492,1.012573,-1.098633,-3.112793,0.122070
5792,0.038696,-0.111694,1.013184,-1.159668,-3.173828,0.122070
5801,0.038452,-0.119995,1.002930,-1.037598,-4.211426,0.061035
5811,0.042603,-0.132568,0.997559,-0.854492,-3.845215,0.122070
5822,0.035889,-0.140991,0.982300,-1.037598,-3.845215,0.427246
5831,0.029175,-0.140137,0.985229,-1.037598,-3.173828,0.671387
5841,0.027100,-0.140747,0.978394,-1.037598,-3.295898,0.427246
5853,-0.012451,-0.125732,1.003540,-1.464844,-4.394531,0.244141
5863,-0.009155,-0.115967,1.003052,-1.281738,-2.807617,0.488281
5872,-0.005005,-0.115967,0.991455,-1.220703,-2.319336,1.037598
5882,-0.020386,-0.114258,0.974487,-0.915527,-1.098633,1.403809
5891,-0.003906,-0.110962,0.971069,-0.976562,-1.892090,2.014160
5901,0.002319,-0.098022,0.964966,-0.915527,-1.831055,2.319336
5914,0.011841,-0.081787,1.005127,-1.464844,-2.441406,3.112793
5923,0.022583,-0.108398,0.983521,-1.220703,-0.671387,3.173828
5933,0.026489,-0.124878,0.973389,-1.281738,-2.136230,3.112793
5942,0.030762,-0.105225,0.998657,-1.403809,-0.793457,3.295898
5952,0.030762,-0.107422,1.014160,-1.098633,-0.976562,2.746582
5962,0.018555,-0.125732,1.016602,-1.098633,-1.525879,2.197266
5971,0.026367,-0.118286,1.003296,-1.098633,-2.624512,1.708984
5981,0.053467,-0.102539,1.001709,-1.098633,-1.892090,0.610352
5993,0.031372,-0.079956,0.979614,-1.159668,-2.197266,0.549316
6002,0.022339,-0.082764,0.981201,-1.098633,-2.441406,0.610352
6011,0.017822,-0.109009,0.987061,-1.098633,-1.464844,0.915527
6021,-0.040161,-0.084473,0.994873,-1.220703,-1.647949,1.159668
6032,-0.056885,-0.094360,1.010376,-1.159668,-2.990723,1.037598
6041,-0.042847,-0.131592,0.987183,-1.037598,-1.159668,1.403809
6051,-0.046021,-0.135742,1.005981,-0.732422,-0.915527,1.281738
6061,-0.017944,-0.051147,1.029297,-1.220703,-0.366211,0.976562
6071,-0.003052,-0.047485,0.951538,-1.342773,-0.549316,0.610352
6081,-0.027832,-0.068115,0.956299,-0.976562,-0.061035,0.305176
6092,-0.039673,-0.108765,0.992187,-0.549316,0.305176,-0.305176
6101,-0.026611,-0.134644,1.037842,-0.854492,-0.854492,-1.220703
6111,-0.018188,-0.104736,1.053711,-1.037598,0.793457,-1.098633
6124,0.030762,0.023804,0.989868,-1.220703,0.488281,-0.976562
6133,0.099365,-0.044312,0.965210,-0.854492,-0.305176,-0.061035
6143,0.112549,-0.216797,0.905273,-0.976562,-0.793457,0.183105
6152,0.089722,-0.148926,0.960449,-1.647949,-3.295898,0.183105
6162,0.062500,-0.096680,1.000610,-1.831055,-1.098633,1.708984
6172,0.053833,-0.122803,1.004395,-1.708984,-0.366211,3.295898
6181,0.072266,-0.169800,0.998535,-1.037598,0.305176,4.577637
6194,-0.040649,-0.246582,0.975952,-0.915527,-1.037598,4.455566
6204,-0.074951,-0.250122,0.981079,-1.220703,-1.403809,3.234863
6217,-0.007813,-0.233765,0.993652,-1.220703,0.183105,1.403809
6227,0.088013,-0.276489,0.989624,-1.281738,-0.122070,-3.356934
6236,0.061157,-0.260986,0.941284,-1.342773,-1.586914,-4.943848
6246,0.068481,-0.271240,0.971680,-1.403809,-1.220703,-5.187988
6255,0.077759,-0.295410,0.997192,-1.342773,-1.525879,-5.493164
6265,-0.005249,-0.241577,1.000122,-1.464844,-1.953125,-5.432129
6274,-0.016357,-0.196655,1.008545,-1.464844,-1.831055,-4.699707
6284,0.057251,-0.276245,1.013306,-1.098633,-0.244141,-3.540039
6294,0.055176,-0.310425,1.000122,-0.854492,-1.708984,-4.272461
6303,-0.012573,-0.316528,0.989624,-0.976562,-2.075195,-5.249023
6313,-0.008179,-0.288818,0.971313,-1.220703,-1.647949,-6.530762
6322,0.032471,-0.240845,0.966797,-1.342773,-2.136230,-7.263184
6332,0.029053,-0.241699,0.993164,-0.610352,-2.197266,-6.530762
6342,-0.044922,-0.285156,0.989014,-0.488281,-1.342773,-5.249023
6351,-0.072266,-0.274536,0.963623,-0.793457,-0.854492,-3.417969
6361,-0.071167,-0.217163,0.928955,-0.915527,0.671387,-2.197266
6372,-0.059570,-0.180176,0.913452,-1.220703,0.793457,-1.220703
6381,-0.058350,-0.180908,0.927490,-0.915527,1.159668,-0.488281
6391,-0.055054,-0.204224,0.973755,-0.610352,0.549316,0.244141
6402,-0.045166,-0.247314,1.011353,-0.793457,1.586914,2.075195
6412,0.000732,-0.204712,1.000366,-1.281738,2.258301,3.295898
6421,0.014526,-0.181519,0.974365,-1.403809,1.647949,4.455566
6431,0.019775,-0.202637,0.933838,-0.854492,2.258301,5.676270
6441,0.000366,-0.206299,0.959717,-0.915527,2.258301,7.019043
6451,-0.009521,-0.203613,1.003052,-0.976562,3.662109,8.361816
6461,-0.017334,-0.191406,0.993530,-1.342773,3.356934,9.704590
6473,-0.060181,-0.136597,0.959961,-2.075195,3.173828,12.695313
6483,-0.092041,-0.154663,0.963013,-1.464844,3.906250,14.099121
6493,-0.102661,-0.180176,1.001343,-1.403809,4.150391,15.869141
6503,-0.088257,-0.218872,0.999634,-1.647949,4.272461,17.883301
6512,-0.085571,-0.211670,0.990601,-1.708984,4.394531,19.653320
6522,-0.084473,-0.167725,0.988525,-1.892090,6.286621,21.301270
6531,-0.072876,-0.171875,0.976807,-1.770020,7.141113,22.460937
6541,-0.069946,-0.225708,0.954224,-1.586914,7.446289,23.071289
6552,-0.056885,-0.276978,0.991211,-2.014160,8.300781,22.705078
6562,-0.022827,-0.252686,1.009155,-2.502441,9.033203,22.033691
6572,0.024170,-0.175781,1.060303,-2.563477,9.399414,21.362305
6581,0.066162,-0.211426,1.037354,-2.075195,8.117676,20.263672
6591,0.101318,-0.330444,0.962524,-1.403809,7.629395,18.798828
6601,0.134399,-0.354126,0.942871,-1.159668,7.995605,17.456055
6613,0.178711,-0.287231,1.006592,-2.258301,5.310059,13.000488
6623,0.156616,-0.295654,1.000854,-2.380371,5.126953,10.131836
6633,0.137085,-0.331665,0.963257,-2.258301,3.723145,7.080078
6642,0.141724,-0.306641,0.961304,-2.563477,3.417969,4.516602
6652,0.146484,-0.238403,1.040039,-2.746582,2.563477,2.441406
6661,0.140503,-0.261597,1.029907,-2.258301,1.770020,0.122070
6671,0.128662,-0.305786,0.976196,-2.014160,0.183105,-2.014160
6681,0.136353,-0.257080,0.976196,-1.953125,0.305176,-4.211426
6693,0.101929,-0.131470,0.969482,-1.831055,-0.183105,-5.432129
6702,0.099243,-0.188843,0.880493,-1.342773,-0.854492,-6.591797
6712,0.112915,-0.189331,0.946045,-1.770020,-1.464844,-7.324219
6721,0.152344,-0.200806,1.016357,-1.586914,-1.220703,-8.728027
6731,0.147705,-0.232178,1.051880,-1.708984,-1.953125,-10.253906
6741,0.124878,-0.241211,1.030640,-1.953125,-2.319336,-11.535645
6753,0.124146,-0.245605,0.956787,-1.892090,-3.601074,-13.916016
6763,0.113403,-0.271851,0.899658,-1.953125,-4.394531,-15.991211
6773,0.134033,-0.205933,0.993286,-2.319336,-5.004883,-18.737793
6783,0.152588,-0.274536,1.013062,-1.831055,-5.676270,-20.507812
6792,0.099243,-0.359009,0.953735,-1.770020,-6.347656,-21.972656
6802,0.081421,-0.264893,1.008057,-2.197266,-5.859375,-24.108887
6811,0.123413,-0.179565,1.032104,-2.746582,-6.896973,-25.878906
6821,0.105347,-0.244263,0.934570,-2.319336,-5.920410,-28.381348
6833,0.101440,-0.278198,0.986450,-2.014160,-6.958008,-29.602051
6842,0.116699,-0.312134,1.000000,-1.708984,-6.896973,-30.151367
6852,0.103882,-0.190063,1.051514,-2.136230,-6.408691,-29.602051
6862,0.109253,-0.146851,1.003662,-2.136230,-6.591797,-28.564453
6871,0.086670,-0.194946,0.901978,-2.380371,-8.850098,-25.878906
6881,0.034790,-0.145386,0.933716,-2.136230,-7.446289,-23.742676
6893,0.004150,-0.067871,0.994385,-1.770020,-4.516602,-18.249512
6903,-0.038940,-0.063721,1.022461,-1.892090,-4.943848,-15.563965
6913,-0.041382,-0.084473,0.999756,-1.525879,-3.601074,-12.512207
6923,-0.072021,-0.069214,1.002197,-1.892090,-3.479004,-9.216309
6932,-0.050049,-0.182373,0.965820,-1.831055,-2.258301,-6.896973
6942,-0.062866,-0.003174,1.023926,-2.075195,-1.525879,-4.516602
6951,-0.122192,0.139771,1.009888,-1.953125,-1.220703,-2.441406
6961,-0.008545,0.005005,0.938721,-1.464844,-15.625000,-0.122070
6971,-0.032104,-0.020142,0.996704,-0.976562,-1.037598,-0.061035
6981,0.159790,-0.022827,0.925415,-0.976562,-0.610352,0.976562
6992,0.119507,0.000732,1.006348,-1.708984,-0.610352,2.258301
7001,0.170044,0.035767,1.014893,-1.708984,-1.342773,2.441406
7011,0.175781,-0.031006,1.018433,-1.770020,-1.953125,3.051758
7021,0.154053,-0.041016,1.032715,-2.197266,-2.258301,3.356934
7031,0.101074,-0.071411,0.954834,-2.319336,-2.929688,3.417969
7042,-0.094849,-0.068604,1.109619,-2.136230,-1.525879,7.202148
7052,0.057373,-0.178833,1.253540,-1.708984,0.061035,9.765625
7061,-0.152832,-0.119385,1.101685,-2.075195,-0.366211,10.803223
7071,-0.233765,-0.069946,1.044189,-1.708984,0.427246,9.887695
7081,-0.144287,-0.083618,1.013672,-2.014160,-0.854492,9.277344
7091,-0.350342,0.169800,0.646729,-2.075195,-0.549316,7.812500
7101,-0.156494,-0.010498,0.934814,-1.281738,2.075195,7.263184
7111,0.025391,-0.130493,1.115845,-1.892090,3.662109,6.469727
7121,-0.018921,-0.039917,1.112427,-2.441406,3.601074,5.065918
7131,-0.024902,-0.094360,1.048828,-2.563477,2.319336,3.173828
7141,0.030396,-0.066040,0.928223,-2.746582,0.793457,0.000000
7151,0.069092,-0.069824,0.891357,-2.380371,0.366211,-1.770020
7161,0.115723,-0.189209,0.943115,-1.892090,1.098633,-1.831055
7171,0.128418,-0.185059,1.034912,-2.441406,0.915527,-1.708984
7182,0.129883,-0.091309,1.029663,-3.051758,0.488281,-0.976562
7192,0.096191,-0.142822,1.016479,-2.624512,-0.122070,-0.671387
7201,0.082031,-0.175293,0.999390,-2.136230,-0.671387,-0.854492
7211,0.053711,-0.262573,1.010498,-1.586914,-1.037598,-0.793457
7221,0.058594,-0.241333,1.059448,-1.770020,-1.342773,-1.037598
7231,-0.012939,-0.180420,1.031006,-1.953125,-1.342773,-1.464844
7241,-0.025269,-0.188110,0.952759,-2.136230,-0.915527,-1.831055
7251,-0.004028,-0.166504,0.925415,-2.075195,-1.159668,-1.892090
7260,0.008301,-0.213989,0.931030,-1.770020,-0.976562,-2.136230
7271,0.022095,-0.182495,1.026978,-2.014160,-0.488281,-1.708984
7281,0.057739,-0.143921,0.993896,-2.136230,-0.976562,-1.281738
7291,0.066040,-0.155884,0.982056,-2.197266,-2.136230,-0.488281
7301,0.044922,-0.108276,1.025269,-1.586914,-0.305176,-0.061035
7311,0.049561,-0.198853,0.965210,-1.281738,-0.793457,1.403809
7320,0.027344,-0.164429,0.981812,-2.136230,-0.610352,2.441406
7331,-0.034180,-0.091064,0.980713,-2.136230,-1.647949,3.723145
7341,-0.111572,-0.015137,0.989502,-1.342773,0.793457,5.432129
7351,-0.090332,-0.092896,0.973633,-1.525879,-0.122070,8.422852
7361,-0.090576,-0.115967,0.947876,-1.281738,0.854492,11.230469
7370,-0.060791,-0.007690,1.048950,-1.586914,2.319336,14.160156
7382,-0.052612,-0.018311,1.014526,-1.342773,3.784180,21.484375
7392,-0.009033,-0.028809,0.999023,-1.403809,4.028320,25.573730
7402,-0.056030,-0.109009,0.912354,-1.281738,4.455566,29.541016
7411,-0.104004,-0.054810,0.952637,-1.708984,5.493164,32.409668
7421,-0.093140,-0.033081,0.989624,-2.197266,6.652832,35.461426
7431,-0.018799,-0.037598,1.019897,-2.136230,7.019043,37.536621
7441,-0.069946,-0.087402,1.022461,-2.136230,7.080078,38.818359
7450,-0.130249,-0.151367,0.922241,-1.953125,7.629395,39.733887
7462,-0.061279,-0.099365,1.029541,-2.441406,9.521484,41.198730
7472,-0.060791,-0.186279,1.013916,-2.319336,8.483887,41.076660
7481,-0.065186,-0.147339,1.035889,-2.075195,8.361816,40.161133
7491,-0.044434,-0.227051,0.999390,-1.647949,8.789063,40.100098
7500,-0.028809,-0.211670,0.942505,-2.014160,8.605957,39.794922
7511,0.066284,-0.119507,1.032227,-2.136230,9.277344,40.283203
7521,0.129272,-0.174805,1.000122,-1.770020,8.666992,41.015625
7532,0.142944,-0.244995,1.000000,-1.342773,8.056641,41.809082
7542,0.086182,-0.267090,0.922363,-1.403809,7.629395,41.076660
7551,0.066772,-0.172974,1.001099,-2.014160,7.263184,39.672852
7560,0.066650,-0.212402,0.965698,-1.647949,7.385254,38.452148
7571,0.016968,-0.193115,1.008667,-1.342773,6.103516,36.560059
7580,-0.004761,-0.226196,0.974121,-1.220703,6.164551,35.888672
7592,0.036621,-0.191162,0.999634,-1.220703,5.310059,35.400391
7601,0.003540,-0.205200,0.968994,-1.098633,4.699707,34.240723
7612,-0.026123,-0.186890,1.029907,-0.976562,4.272461,32.775879
7621,0.042603,-0.208740,0.953247,-0.793457,4.333496,31.738281
7630,0.046143,-0.165161,1.025024,-1.098633,3.906250,30.700684
7641,0.082642,-0.145630,1.003784,-0.854492,3.906250,29.907227
7651,0.118652,-0.154419,1.026489,-0.610352,3.234863,29.418945
7662,0.072266,-0.210571,0.981567,-0.366211,2.868652,27.282715
7672,0.001343,-0.133911,0.984619,-1.159668,2.136230,26.428223
7681,0.036011,-0.143799,0.981689,-1.037598,2.197266,25.268555
7691,0.055420,-0.190063,1.019165,-0.549316,2.014160,24.902344
7700,0.089966,-0.194702,0.964600,-0.793457,1.831055,24.658203
7711,0.093262,-0.170532,0.986206,-1.037598,1.525879,24.169922
7720,0.103149,-0.181641,0.975586,-0.915527,1.647949,23.803711
7732,0.148926,-0.217529,1.029907,-0.488281,-0.793457,20.629883
7741,0.143188,-0.242920,1.011230,-0.427246,-1.098633,17.761230
7751,0.138428,-0.223511,0.981934,-0.488281,-1.647949,14.404297
7761,0.171021,-0.232300,1.032471,-0.305176,-2.136230,10.864258
7770,0.189819,-0.231201,1.031982,-0.183105,-3.173828,7.751465
7781,0.200562,-0.180420,1.047974,-0.122070,-4.150391,5.432129
7791,0.145874,-0.147217,1.013428,0.244141,-5.249023,4.516602
7800,0.124146,-0.201660,0.979370,0.671387,-5.371094,4.699707
7812,0.067383,-0.253174,0.908691,0.244141,-5.004883,5.310059
7822,0.043701,-0.198120,0.958618,-0.549316,-5.249023,4.577637
7831,0.089355,-0.201538,0.972534,-0.427246,-5.615234,3.417969
7841,0.101563,-0.220093,1.024780,-0.366211,-5.859375,2.563477
7851,0.127441,-0.238647,0.990356,0.000000,-6.652832,2.014160
7861,0.109375,-0.190796,0.989624,0.000000,-6.713867,2.014160
7872,0.129517,-0.244019,0.952759,-0.366211,-6.225586,2.990723
7882,0.115845,-0.257202,0.920532,-0.488281,-6.408691,3.356934
7891,0.075928,-0.238159,0.975220,-0.793457,-6.286621,3.601074
7901,0.047607,-0.300903,0.957642,-0.244141,-6.225586,3.356934
7911,-0.001465,-0.288086,0.983643,-0.610352,-6.225586,2.197266
7921,-0.031250,-0.240234,0.972656,-0.854492,-6.958008,0.671387
7931,-0.042236,-0.273804,0.961182,-0.915527,-6.835937,-1.159668
7941,-0.016235,-0.234009,1.023438,-0.915527,-6.958008,-3.479004
7951,0.006714,-0.278687,0.976807,-0.793457,-6.774902,-6.713867
7960,0.114014,-0.300781,0.987061,-0.732422,-6.774902,-7.690430
7971,0.126587,-0.274536,1.003418,-1.037598,-7.324219,-9.033203
7981,0.125366,-0.210937,1.021484,-0.854492,-8.605957,-10.681152
7991,0.157593,-0.308716,0.977295,-0.305176,-8.422852,-11.779785
8001,0.170044,-0.330566,0.985229,-0.366211,-9.216309,-12.878418
8011,0.189087,-0.247559,0.989746,-0.549316,-10.009766,-14.709473
8021,0.197266,-0.301758,0.937378,-0.366211,-10.253906,-15.319824
8031,0.152710,-0.251465,0.955688,-0.976562,-10.803223,-15.869141
8041,0.162476,-0.307007,0.940308,-1.159668,-10.009766,-16.235352
8051,0.137329,-0.279175,0.988037,-1.220703,-10.192871,-16.418457
8061,0.131958,-0.235840,1.002319,-1.220703,-10.864258,-16.662598
8071,0.141235,-0.337158,0.937012,-0.732422,-10.620117,-16.296387
8081,0.093262,-0.283325,0.962891,-0.854492,-10.742188,-0.549316
8092,0.038940,-0.289673,0.927612,-1.281738,-10.375977,-13.732910
8102,-0.009888,-0.261108,0.908203,-1.831055,-9.582520,-12.573242
8111,-0.025269,-0.267090,0.969360,-2.014160,-8.544922,-11.413574
8121,-0.034424,-0.289429,0.972046,-2.136230,-7.934570,-10.498047
8130,-0.063232,-0.279053,0.937134,-2.136230,-8.422852,-9.887695
8141,-0.064209,-0.310913,0.963867,-2.075195,-7.019043,-9.521484
8151,-0.069702,-0.280640,0.984131,-2.197266,-7.141113,-8.605957
8161,-0.074951,-0.305054,0.995483,-1.953125,-5.920410,-8.178711
8171,-0.128906,-0.277344,0.995728,-2.197266,-5.615234,-7.934570
8181,-0.099976,-0.320801,1.007080,-2.014160,-5.249023,-7.873535
8191,-0.110229,-0.274902,1.009644,-1.892090,-4.577637,-7.873535
8201,-0.076660,-0.332886,0.971191,-1.892090,-4.699707,-7.812500
8211,-0.044556,-0.365234,0.936768,-1.831055,-4.333496,-7.873535
8221,0.017090,-0.332153,0.963379,-2.136230,-3.906250,-7.507324
8232,0.043701,-0.254150,0.987671,-1.892090,-3.479004,-7.263184
8242,0.061035,-0.288696,0.989380,-2.075195,-3.540039,-7.019043
8251,0.041382,-0.266479,0.973389,-2.197266,-3.295898,-6.774902
8261,0.026001,-0.259521,0.962402,-2.075195,-3.234863,-6.652832
8271,0.033081,-0.216675,0.973145,-2.197266,-3.051758,-6.408691
8281,0.024414,-0.184814,0.977417,-2.380371,-2.441406,-6.103516
8291,0.018799,-0.191284,1.003662,-2.746582,-3.601074,-5.249023
8302,-0.012207,-0.224487,0.962036,-2.563477,-2.319336,-5.004883
8312,-0.016479,-0.217896,0.963257,-3.295898,-3.845215,-4.211426
8322,-0.028198,-0.175537,0.988647,-3.051758,-1.037598,-3.417969
8331,-0.055054,-0.204712,0.997070,-3.173828,-3.540039,-2.563477
8341,-0.106567,-0.171265,1.007446,-2.685547,0.671387,-1.464844
8351,-0.104736,-0.189941,1.031982,-2.990723,-3.601074,-0.793457
8361,-0.109863,-0.220215,0.999268,-1.708984,-0.183105,0.366211
8370,-0.128418,-0.222412,0.985962,-1.159668,1.708984,0.305176
8380,-0.158325,-0.298096,0.886353,-1.953125,-0.061035,0.549316
8391,-0.113281,-0.285889,0.918945,-2.014160,3.967285,0.793457
8401,-0.115356,-0.241211,0.936523,-3.234863,0.854492,1.586914
8411,-0.088501,-0.231079,0.966309,-2.624512,4.882812,1.953125
8421,-0.096802,-0.200928,0.987793,-3.112793,3.723145,2.929688
8431,-0.053467,-0.159180,1.010864,-3.112793,3.540039,4.333496
8442,-0.034790,-0.128052,1.008789,-2.563477,4.394531,7.995605
8452,-0.070190,-0.120239,1.000366,-2.563477,5.432129,10.681152
8461,-0.052612,-0.148437,0.978394,-2.319336,6.835937,13.061523
8471,-0.060913,-0.121704,1.004883,-2.380371,7.263184,15.136719
8481,-0.065063,-0.101318,1.004150,-2.624512,7.324219,16.906738
8491,-0.085937,-0.089844,1.037842,-2.319336,9.948730,18.249512
8500,-0.080566,-0.067627,1.005737,-2.746582,6.286621,19.104004
8512,-0.100830,-0.032715,0.983154,-2.502441,6.286621,20.080566
8521,-0.095703,0.027100,0.997070,-2.441406,6.103516,20.690918
8531,-0.083008,-0.010620,1.007080,-1.953125,7.812500,22.033691
8540,-0.057861,-0.022705,1.008179,-1.403809,6.347656,22.521973
8551,-0.037354,-0.071777,0.963501,-0.732422,10.681152,23.498535
8561,-0.038940,-0.100830,0.981934,-1.159668,7.263184,23.803711
8570,-0.040039,-0.108398,0.986450,-1.098633,7.324219,23.925781
8582,0.043335,-0.150879,1.044067,-0.122070,7.629395,22.521973
8591,0.087646,-0.123535,1.078613,0.122070,6.774902,21.545410
8601,0.125610,-0.094116,1.089966,0.183105,5.004883,21.240234
8611,0.026611,-0.058472,1.068481,0.122070,4.272461,20.263672
8621,0.114868,-0.101440,1.004150,0.732422,3.662109,19.470215
8631,0.171265,-0.138794,0.971802,0.915527,3.540039,18.920898
8642,0.202637,-0.131104,0.949951,0.976562,4.638672,17.272949
8651,0.117310,-0.153687,1.041870,0.610352,0.305176,15.441895
8661,0.071777,-0.208130,1.049683,0.671387,0.427246,12.695313
8671,0.035522,-0.228271,1.034546,0.610352,-1.708984,9.216309
8680,0.023071,-0.159668,1.014038,-0.244141,-2.380371,6.958008
8691,0.007202,-0.118042,1.001465,0.061035,-2.624512,4.821777
8700,0.058838,-0.134399,0.984009,0.183105,-2.441406,3.784180
8712,0.012817,-0.194214,0.944458,-0.305176,-2.197266,2.441406
8721,-0.028198,-0.158691,0.967773,-0.488281,-1.708984,2.014160
8731,-0.027832,-0.132935,1.025757,-0.976562,-1.953125,1.037598
8741,-0.064819,-0.131470,1.006348,-0.732422,-1.892090,-0.488281
8750,-0.007935,-0.179810,0.995361,-0.610352,-2.624512,-2.319336
8761,0.021362,-0.151733,0.986084,-0.732422,-2.075195,-4.211426
8771,0.072876,-0.175049,0.987793,-0.793457,-3.417969,-6.469727
8780,0.086548,-0.087158,1.031372,-0.854492,-3.967285,-8.361816
8792,0.103882,-0.133301,1.053955,-0.427246,-6.286621,-12.878418
8802,0.113647,-0.174194,1.026367,-0.122070,-5.126953,-14.343262
8812,0.119507,-0.113892,1.034424,-0.061035,-5.554199,-15.686035
8821,0.109619,-0.176514,1.005859,0.061035,-4.943848,-16.235352
8831,0.094360,-0.145264,0.978516,0.061035,-4.882812,-16.052246
8841,0.067261,-0.154297,0.986084,0.000000,-4.699707,-15.686035
8850,0.013672,-0.165405,0.968628,0.000000,-4.272461,-14.709473
8862,0.025879,-0.178833,0.971924,0.061035,-3.479004,-13.427734
8872,0.034424,-0.153076,0.975952,0.305176,-2.807617,-12.939453
8881,-0.017334,-0.164307,1.011108,0.732422,-1.464844,-12.207031
8891,-0.063721,-0.175293,1.029297,0.976562,-1.647949,-11.047363
8901,-0.098267,-0.177246,1.026489,1.159668,-0.976562,-10.009766
8911,-0.135010,-0.239746,0.980957,1.159668,0.061035,-9.155273
8922,-0.134033,-0.228394,0.952026,0.427246,1.892090,-7.507324
8932,-0.099243,-0.224365,0.963257,0.061035,2.380371,-6.958008
8941,-0.116333,-0.166382,1.008789,-0.061035,3.601074,-6.469727
8951,-0.069946,-0.200317,0.977051,-0.183105,3.295898,-5.981445
8960,-0.020386,-0.217285,0.932861,-0.244141,4.028320,-5.065918
8971,0.016602,-0.188965,0.923096,-0.305176,5.676270,-3.967285
8981,0.015625,-0.254517,0.871216,-0.732422,4.272461,-2.746582
8993,-0.019409,-0.220337,0.933228,-1.525879,5.310059,0.183105
9003,-0.027588,-0.183838,0.986328,-1.770020,5.187988,1.342773
9012,-0.035034,-0.274780,0.999756,-1.342773,5.737305,2.441406
9022,-0.046387,-0.250610,0.999512,-1.220703,5.737305,3.601074
9031,-0.028564,-0.216431,0.994263,-1.098633,6.164551,4.516602
9041,-0.041748,-0.249756,1.003296,-1.342773,7.080078,5.676270
9050,-0.023315,-0.210815,1.001953,-1.770020,7.263184,7.019043
9063,-0.003906,-0.167114,0.983521,-1.892090,8.178711,9.948730
9073,0.015015,-0.143311,0.997681,-1.892090,8.361816,11.169434
9082,0.040527,-0.144897,1.055176,-1.892090,8.239746,12.329102
9091,0.007690,-0.162231,0.989380,-1.586914,8.483887,13.122559
9101,0.011108,-0.206787,0.973633,-1.647949,7.690430,13.793945
9111,-0.005127,-0.208618,0.996094,-1.586914,8.239746,14.282227
9120,0.018799,-0.168213,0.995850,-1.403809,8.056641,14.770508
9132,0.011597,-0.174194,1.052856,-1.708984,7.507324,15.197754
9141,-0.012329,-0.279907,1.001465,-1.464844,7.934570,15.197754
9151,0.015869,-0.322754,0.980713,-1.525879,7.324219,15.075684
9161,0.007080,-0.284180,0.966919,-1.586914,7.385254,14.587402
9171,0.049194,-0.256104,0.978638,-1.403809,7.202148,13.671875
9181,0.051392,-0.284912,0.984619,-1.464844,5.676270,12.878418
9191,0.052734,-0.298706,0.914062,-1.525879,7.019043,11.840820
9201,0.081055,-0.369019,0.856079,-2.014160,4.699707,8.789063
9212,0.159546,-0.264404,0.965210,-2.685547,3.295898,7.385254
9222,0.195923,-0.219482,1.079346,-2.685547,3.479004,5.554199
9231,0.171753,-0.264038,1.026978,-2.502441,-0.671387,3.295898
9241,0.171875,-0.301025,0.961426,-1.586914,1.403809,1.037598
9251,0.170898,-0.279541,0.981445,-1.892090,-0.915527,-0.915527
9261,0.156982,-0.198730,1.005371,-1.770020,1.953125,-2.075195
9271,0.161987,-0.198364,0.989746,-2.441406,-2.685547,-3.417969
9282,0.127686,-0.197388,0.943481,-2.563477,-2.136230,-4.333496
9292,0.135864,-0.107544,0.971680,-2.563477,-1.342773,-4.638672
9302,0.137817,-0.077515,0.992432,-3.112793,-2.380371,-4.638672
9312,0.152466,-0.068726,1.021606,-3.234863,-1.953125,-4.760742
9321,0.127686,-0.011108,0.972290,-3.601074,-2.258301,-4.577637
9331,0.131104,0.031982,1.038086,-3.601074,-1.586914,-3.784180
9340,0.100464,0.042114,1.050171,-3.479004,-1.464844,-2.868652
9352,0.079956,-0.017822,1.143066,-2.624512,-0.122070,0.305176
9362,0.078857,-0.045288,1.127197,-2.136230,0.122070,1.647949
9371,0.050415,-0.087891,1.030273,-2.136230,-3.784180,2.807617
9381,0.051147,-0.104736,0.935425,-0.732422,-0.732422,3.845215
9390,-0.061279,-0.137939,0.968628,-0.610352,1.098633,6.103516
9401,-0.134644,-0.144287,0.880859,0.183105,-0.061035,7.324219
9411,-0.058716,-0.182617,0.936523,0.793457,2.685547,11.596680
9420,-0.014526,-0.209351,0.913330,0.488281,1.464844,13.671875
9430,-0.102173,-0.200806,1.067139,0.000000,2.014160,15.258789
9441,-0.182495,-0.136841,0.958862,-1.037598,2.929688,16.662598
9450,-0.122681,-0.146973,0.914307,-1.220703,2.807617,17.639160
9461,-0.066772,-0.213745,0.928467,-0.305176,3.540039,18.615723
9471,-0.063599,-0.143799,0.920166,0.061035,3.906250,19.714355
9481,-0.027222,-0.221191,0.943726,-0.122070,3.601074,21.362305
9490,-0.026001,-0.161133,1.030518,-1.708984,2.685547,21.850586
9500,0.081665,-0.040405,1.029907,-1.647949,2.502441,22.827148
9511,0.083496,-0.056030,0.968750,-1.525879,3.112793,24.902344
9521,0.032837,-0.009399,1.006836,-1.281738,2.624512,26.489258
9531,0.019531,-0.033936,1.073975,-1.159668,2.807617,26.977539
9541,-0.040283,-0.077393,1.052490,-1.342773,3.417969,27.465820
9551,-0.013428,0.014404,1.094971,-1.708984,3.051758,28.076172
9560,-0.003906,0.117920,1.068237,-0.915527,2.380371,28.625488
9571,-0.059204,-0.085449,0.942749,-0.549316,2.685547,29.418945
9581,-0.076782,-0.135132,0.958862,-0.976562,2.807617,30.090332
9591,-0.019897,-0.049561,1.021118,-1.708984,3.356934,31.494141
9601,-0.002930,0.017090,0.971313,-1.708984,3.723145,32.714844
9610,-0.001465,-0.069946,0.971680,-1.525879,4.150391,33.325195
9622,-0.072754,-0.159912,0.914429,-1.464844,0.854492,32.714844
9631,0.066040,-0.200439,1.026855,-1.525879,1.037598,31.433105
9641,0.053345,-0.229980,1.017700,-1.647949,0.305176,30.273437
9651,0.048828,-0.234131,0.985474,-1.281738,-1.403809,28.442383
9661,0.056519,-0.195312,1.000610,-0.854492,-2.624512,26.550293
9671,0.069702,-0.230591,1.022095,-0.183105,-3.234863,25.207520
9680,0.103882,-0.250732,1.076782,0.732422,-3.723145,23.193359
9693,0.076050,-0.242187,0.976196,1.403809,-4.638672,20.385742
9702,0.077515,-0.319336,0.953369,1.586914,-5.920410,18.493652
9712,0.109375,-0.327026,0.923462,1.586914,-6.225586,15.991211
9721,0.101563,-0.306396,0.911377,1.159668,-7.202148,13.549805
9730,0.130859,-0.243286,0.919800,0.671387,-7.507324,10.681152
9741,0.091797,-0.177856,0.995483,0.061035,-8.789063,8.056641
9751,0.110596,-0.205078,1.050903,0.061035,-8.972168,5.187988
9760,0.186401,-0.227783,1.012817,-0.122070,-10.070801,2.624512
9772,0.227295,-0.217041,0.942871,-0.488281,-12.268066,-1.403809
9782,0.182129,-0.223267,0.870728,-1.098633,-11.657715,-3.295898
9791,0.228516,-0.186646,0.914307,-2.807617,-15.991211,-4.455566
9801,0.180786,-0.087158,0.996948,-2.624512,-15.747070,-6.042480
9811,0.196289,-0.072388,0.950439,-2.197266,-10.742188,-6.042480
9821,0.122314,-0.126831,0.972656,-3.051758,-13.916016,-5.187988
9831,0.060303,-0.107422,0.954102,-2.441406,-14.221191,-4.699707
9841,-0.011719,-0.197632,0.944580,-2.990723,-11.840820,-3.967285
9851,-0.091187,-0.054565,1.033936,-3.051758,-12.573242,-3.723145
9861,-0.108276,-0.195923,0.958740,-2.685547,-12.817383,-3.540039
9871,-0.118896,-0.270874,1.005859,-2.136230,-10.864258,-3.723145
9881,-0.112793,-0.188965,1.003174,-1.892090,-9.338379,-4.272461
9891,-0.119873,-0.237915,0.912598,-2.807617,-13.000488,-4.211426
9901,-0.122437,-0.170898,0.997314,-2.075195,-7.385254,-3.356934
9911,-0.178955,-0.162354,1.017578,-2.807617,-10.986328,-3.112793
9921,-0.178833,-0.147949,0.991821,-1.892090,-5.676270,-2.929688
9931,-0.139771,-0.223022,0.943726,-2.563477,-6.042480,-2.075195
9941,-0.100586,-0.175049,0.969604,-3.112793,-8.911133,-2.258301
9951,-0.099487,-0.074951,1.024658,-2.990723,-7.690430,-2.136230
9961,-0.044556,-0.125610,0.993408,-3.662109,-8.117676,-1.220703
9971,-0.041260,-0.118286,0.995850,-3.967285,-2.746582,2.136230
9981,-0.057861,-0.078857,0.968140,-3.356934,1.037598,3.295898
9991,-0.039551,-0.103760,1.045410,-3.173828,2.868652,3.784180
10000,-0.072021,-0.082275,0.967896,-2.380371,3.662109,3.479004
10011,-0.027344,-0.089966,0.952759,-2.258301,3.906250,3.417969
10021,-0.049683,-0.030396,0.989258,-3.112793,0.549316,3.601074
10030,0.002441,-0.059692,0.996948,-3.540039,-4.699707,2.685547
10043,0.056152,-0.050781,1.018311,-2.868652,-0.610352,2.319336
10053,0.052979,-0.094360,1.037964,-2.746582,-3.601074,1.342773
10062,0.061646,-0.023071,1.040771,-2.197266,0.000000,1.037598
10071,0.065063,-0.089844,0.999390,-2.319336,-1.647949,0.732422
10081,0.041260,-0.125122,1.010132,-2.441406,-2.441406,0.183105
10090,-0.026245,-0.140869,1.019653,-2.685547,-1.708984,-0.549316
10101,-0.041748,-0.214600,0.918945,-2.441406,-2.258301,-1.708984
10111,0.002563,-0.155151,0.940552,-2.502441,-2.136230,-2.746582
10122,0.011230,-0.229248,1.019043,-2.197266,-2.197266,-3.417969
10132,0.013916,-0.097656,1.062622,-2.136230,-1.586914,-3.662109
10142,0.035522,-0.202637,1.055908,-1.586914,-1.037598,-4.089355
10151,0.057495,-0.102905,1.052246,-0.732422,-0.610352,-5.065918
10161,0.044922,-0.190308,1.000366,0.305176,-1.403809,-5.859375
10170,0.019531,-0.220337,0.954224,0.366211,-3.845215,-6.347656
10183,-0.002686,-0.107788,0.839722,0.366211,-1.586914,-6.591797
10193,0.036011,-0.095215,0.943726,0.305176,-0.366211,-5.920410
10202,0.026245,-0.108154,0.963745,0.000000,0.976562,-5.187988
10212,0.048096,-0.140747,0.983032,0.793457,0.488281,-5.065918
10221,0.059082,-0.167480,0.949585,0.488281,-0.732422,-4.699707
10231,0.073242,-0.212280,0.896606,0.366211,0.122070,-5.493164
10241,0.040894,-0.285767,0.951782,-1.037598,-2.258301,-5.859375
10253,-0.011841,-0.038086,0.997559,-2.136230,-0.915527,-5.187988
10263,0.032471,-0.037720,1.026733,-1.770020,0.244141,-4.333496
10272,-0.008057,-0.125366,1.041748,-1.525879,0.122070,-2.258301
10282,-0.006104,-0.134644,0.980103,-0.671387,2.258301,-0.732422
10292,-0.032471,-0.142212,0.914185,-1.525879,-0.366211,0.671387
10301,-0.030884,-0.108154,0.900391,-1.403809,3.173828,1.953125
10311,-0.019165,-0.032349,0.936401,-2.075195,2.807617,3.173828
10323,-0.137207,-0.168823,0.998657,-1.525879,1.586914,4.699707
10333,-0.155884,-0.204834,0.981567,-1.342773,2.990723,5.065918
10342,-0.126709,-0.137451,0.995605,-1.586914,4.028320,5.554199
10352,-0.140869,-0.089478,1.019165,-2.075195,4.455566,6.042480
10361,-0.091675,-0.093018,1.021729,-2.136230,5.737305,6.652832
10371,-0.066772,-0.150146,1.007202,-1.831055,7.385254,7.446289
10380,0.021118,-0.160156,0.989380,-1.342773,5.371094,7.141113
10392,-0.018433,-0.158325,1.014160,-1.708984,5.859375,7.385254
10402,-0.001709,-0.148560,1.016113,-2.136230,5.310059,7.080078
10411,0.034912,-0.193115,0.918335,-2.014160,4.882812,6.835937
10421,0.060425,-0.163940,0.882568,-2.197266,5.249023,6.408691
10430,0.029175,-0.235596,0.885010,-2.685547,2.685547,6.286621
10441,0.057251,-0.226807,0.969971,-2.502441,4.638672,5.493164
10451,0.080566,-0.155884,1.041992,-2.624512,7.995605,5.798340
10463,0.096802,-0.170288,1.024292,-2.807617,4.638672,4.760742
10473,0.074585,-0.335571,0.979004,-2.990723,2.746582,4.150391
10482,0.079956,-0.222778,1.028564,-3.234863,2.136230,2.990723
10492,0.085815,-0.210449,0.927124,-3.417969,1.647949,2.136230
10501,0.106079,-0.148437,1.070557,-3.479004,1.098633,1.525879
10510,0.123657,-0.288940,1.016113,-3.479004,0.854492,0.610352
10521,0.174805,-0.136475,1.064941,-3.051758,1.159668,-0.183105
10531,0.174927,-0.286865,0.909668,-2.746582,-0.610352,-0.610352
10541,0.227173,-0.156494,0.967285,-3.112793,-1.098633,-0.305176
10551,0.174316,-0.118896,1.053589,-3.234863,-1.037598,-0.183105
10561,0.143066,-0.212402,1.040161,-3.173828,-2.258301,-0.244141
10571,0.125732,-0.052612,1.068848,-2.563477,-1.037598,-0.549316
10581,0.079590,-0.185791,1.035645,-2.014160,-1.953125,-0.488281
10591,0.108398,-0.134766,1.012207,-1.770020,-3.479004,-0.976562
10601,0.123901,-0.156982,0.957520,-1.770020,-3.784180,-0.061035
10612,0.082886,-0.074707,1.034180,-1.098633,-3.234863,1.403809
10622,0.036621,-0.111084,0.910522,-0.549316,-3.173828,3.051758
10632,-0.036377,-0.082397,0.917358,-0.488281,-2.319336,4.882812
10641,-0.057983,-0.058960,0.927490,-1.098633,-2.319336,6.286621
10651,-0.088135,-0.026733,1.037109,-0.488281,-0.549316,6.591797
10661,-0.159058,-0.083618,0.958008,-0.488281,-2.319336,6.958008
10671,-0.156982,0.003174,1.004150,0.000000,-1.586914,7.263184
10682,-0.129395,-0.066406,0.999146,-0.244141,-1.342773,7.202148
10692,-0.094238,-0.223267,0.883179,0.061035,0.549316,7.385254
10701,0.014038,-0.055908,1.020264,-0.488281,-0.122070,7.629395
10711,0.025146,-0.226685,0.912231,-1.342773,-1.159668,8.056641
10721,0.066528,-0.065552,1.030396,-1.647949,0.671387,7.690430
10731,0.096436,-0.274902,0.986328,-1.586914,-0.305176,7.446289
10741,0.131348,-0.081909,0.976929,-1.770020,-0.976562,6.591797
10752,0.083008,-0.054932,1.030151,-1.770020,-1.708984,6.652832
10762,0.052124,-0.132935,1.018555,-1.647949,-1.647949,6.896973
10771,0.017578,0.016357,1.067993,-1.525879,-2.258301,6.896973
10782,0.006226,-0.014771,1.118042,-1.037598,-1.953125,7.385254
10791,-0.003296,-0.064087,0.970947,-0.732422,-1.098633,8.178711
10801,-0.011230,-0.037842,1.064453,-0.793457,-0.793457,9.277344
10813,-0.074097,-0.088013,0.956543,-0.976562,-1.098633,9.826660
10822,0.019043,-0.078613,0.915283,-1.770020,-1.525879,9.826660
10832,-0.027954,-0.029541,0.915283,-2.685547,-1.770020,9.948730
10841,0.060547,-0.076660,0.947144,-2.807617,-1.403809,9.826660
10851,0.055420,-0.013672,0.990479,-2.868652,-2.075195,9.765625
10862,0.086182,-0.111694,0.985718,-3.112793,-3.234863,9.826660
10871,0.059082,0.016968,1.085938,-2.624512,-1.708984,9.704590
10883,0.019531,-0.111450,1.055054,-2.624512,-4.211426,9.277344
10892,0.011230,-0.269897,0.955566,-1.953125,-3.906250,8.544922
10902,-0.030273,-0.124512,1.035645,-2.258301,-5.432129,8.117676
10911,0.025146,-0.172607,1.037720,-2.014160,-3.784180,7.934570
10921,0.000244,-0.177734,0.982544,-1.586914,-4.394531,7.080078
10931,0.017578,-0.248169,0.976929,-1.220703,-4.211426,7.324219
10943,0.004883,-0.341675,0.931641,-2.075195,-5.310059,6.896973
10952,0.016479,-0.131104,0.996216,-2.014160,-4.760742,7.263184
10962,-0.011841,-0.005859,1.096924,-1.586914,-4.516602,7.568359
10971,-0.005127,-0.276367,1.026367,-1.098633,-4.882812,7.568359
10981,0.002808,-0.186768,1.071777,-0.488281,-4.821777,7.385254
10992,0.045410,-0.228760,0.988525,-0.305176,-4.943848,6.896973
11001,0.008301,-0.147461,0.947632,-0.793457,-6.591797,6.286621
11013,0.041504,-0.131226,1.037842,-0.671387,-7.141113,4.333496
11022,0.020874,-0.161987,0.944458,-0.610352,-6.896973,3.601074
11033,-0.040405,-0.322876,0.895996,-0.671387,-5.920410,3.295898
11042,-0.042969,-0.005127,1.111450,-1.281738,-5.187988,2.868652
11051,0.015625,-0.045410,1.149658,-1.220703,-6.530762,2.624512
11061,-0.029785,-0.223022,0.993286,-0.427246,-6.652832,2.319336
11071,-0.053589,-0.030884,1.104736,0.061035,-7.202148,1.831055
11083,-0.025024,-0.252686,1.067017,0.732422,-9.216309,1.159668
11092,-0.047363,-0.060547,1.024414,1.708984,-4.455566,0.549316
11103,-0.070923,-0.346680,0.788330,0.976562,-4.272461,0.793457
11112,-0.068848,-0.160889,0.901245,0.366211,-6.591797,-0.122070
11122,-0.066650,-0.187988,0.951172,-0.122070,-3.051758,-0.061035
11131,-0.069580,-0.204102,0.885132,-0.915527,-7.568359,-1.586914
11141,-0.065918,-0.055054,1.019531,-0.671387,-4.760742,-3.234863
11151,-0.075195,-0.157227,0.968628,-1.098633,-4.577637,-4.455566
11161,-0.076660,0.085449,1.076294,-0.488281,-4.089355,-6.164551
11173,-0.084717,-0.241699,0.875610,-0.244141,-4.333496,-7.202148
11182,-0.041138,0.011597,1.087280,-0.122070,-2.685547,-8.056641
11192,-0.033936,-0.174561,1.002441,0.122070,-3.417969,-9.216309
11201,-0.011353,-0.086304,0.969604,0.183105,-4.272461,-10.864258
11212,0.040283,0.020996,1.088867,0.732422,-1.708984,-12.084961
11221,0.026733,-0.204712,0.951904,0.488281,-3.662109,-13.305664
11235,0.096802,-0.016724,1.097534,0.366211,-2.380371,-15.686035
11246,0.016602,-0.203247,0.923218,0.671387,-2.563477,-17.211914
11255,0.050171,-0.009888,1.043091,0.732422,-2.441406,-18.005371
11265,0.033203,-0.270142,0.909546,0.915527,-2.075195,-19.531250
11274,0.070557,-0.177856,0.945190,0.427246,-1.342773,-20.751953
11284,0.038818,-0.048462,1.083740,-0.183105,-0.427246,-20.812988
11293,0.040039,-0.354858,1.008423,-0.915527,-0.732422,-20.324707
11303,0.083374,-0.121216,0.935547,-1.159668,0.183105,-19.348145
11313,0.031250,-0.130615,0.953491,-1.098633,1.037598,-18.188477
11322,0.022705,-0.045044,0.962280,-1.159668,1.464844,-16.845703
11332,0.005493,-0.198120,0.887085,-0.915527,1.953125,-15.869141
11341,0.001831,-0.194702,0.889526,-0.854492,2.136230,-13.854980
11351,0.032959,-0.288696,0.858032,-1.953125,2.746582,-11.413574
11363,-0.017456,0.026245,0.996582,-3.112793,4.943848,-5.065918
11372,-0.141479,-0.125122,0.931519,-2.685547,5.859375,-1.159668
11382,-0.077759,0.015015,1.027100,-2.746582,7.141113,1.220703
11392,-0.073730,-0.173584,1.019653,-3.417969,7.629395,3.295898
11401,-0.149414,-0.131714,0.943848,-4.333496,7.934570,4.211426
11412,-0.135498,0.084717,1.013428,-4.760742,8.972168,5.249023
11421,-0.178101,-0.017578,0.945557,-3.845215,9.765625,5.920410
11433,-0.192871,-0.050537,1.041382,-2.990723,9.704590,6.835937
11442,-0.147705,-0.160278,0.948730,-2.624512,10.925293,7.995605
11453,-0.117432,-0.135986,1.049927,-2.380371,10.437012,9.399414
11462,-0.149414,-0.227295,0.953979,-2.014160,11.535645,11.169434
11472,-0.104492,-0.028687,1.015137,-1.892090,11.413574,12.695313
11481,-0.045410,-0.157227,0.965576,-1.403809,12.939453,13.854980
11491,-0.080200,-0.292603,0.880249,-1.647949,12.573242,14.892578
11503,-0.088989,-0.072021,1.105103,-1.586914,13.244629,15.502930
11512,-0.078979,-0.362549,0.865356,-1.525879,12.207031,14.892578
11522,-0.085327,-0.080200,0.999023,-1.708984,12.207031,14.343262
11531,-0.062378,-0.182129,1.025024,-1.831055,11.840820,13.977051
11541,-0.062744,-0.266479,0.877197,-2.197266,11.779785,13.671875
11552,-0.048950,-0.093506,0.970947,-2.258301,12.084961,13.854980
11561,-0.028809,-0.270386,0.947510,-2.441406,11.962891,14.465332
11573,-0.049316,-0.233887,0.936401,-2.502441,12.634277,16.052246
11582,0.017822,-0.293579,1.007813,-2.685547,11.840820,17.089844
11592,0.028809,-0.230103,1.022705,-2.685547,7.568359,16.479492
11601,0.074463,-0.117432,1.047852,-2.136230,11.779785,15.930176
11611,0.136475,-0.221313,0.930054,-2.746582,8.422852,15.258789
11621,0.144775,-0.200806,1.019653,-2.319336,9.094238,14.221191
11632,0.175659,-0.065552,1.030273,-2.136230,8.300781,13.671875
11641,0.183228,-0.250122,0.968018,-1.647949,7.507324,13.244629
11653,0.188599,-0.047852,1.052979,-1.647949,5.920410,13.305664
11662,0.152466,-0.239624,0.960083,-0.793457,5.371094,13.305664
11671,0.168823,-0.225830,0.927856,-0.854492,3.051758,13.183594
11682,0.148315,-0.033203,0.994873,-0.610352,2.380371,13.061523
11691,0.172852,0.031006,1.057861,-0.793457,2.746582,12.817383
11702,0.128296,-0.165039,1.007446,-1.159668,0.976562,12.329102
11711,0.045288,-0.161133,0.955566,-1.281738,-0.610352,11.962891
11723,0.062622,0.075439,1.110474,-0.732422,0.610352,12.268066
11732,0.043701,-0.125000,1.004395,-0.366211,0.549316,12.268066
11742,-0.013306,-0.127075,0.940674,0.000000,-0.915527,12.145996
11751,-0.018555,0.064819,0.990601,0.671387,0.976562,12.512207
11762,-0.033569,-0.081787,0.969482,0.610352,-0.366211,12.573242
11771,-0.041016,-0.204712,0.916016,0.122070,-0.122070,12.512207
11783,-0.047241,-0.065918,0.962158,-0.061035,-0.183105,12.329102
11793,-0.033203,-0.201904,0.935669,0.000000,-0.122070,11.474609
11802,-0.002930,-0.122681,1.010010,-0.732422,-0.488281,10.864258
11812,0.079956,-0.021973,1.109741,-1.098633,0.610352,10.375977
11821,0.086670,-0.192261,1.033081,-1.037598,-0.671387,10.009766
11832,0.069824,-0.144043,1.043213,-0.732422,-0.732422,9.948730
11841,0.128418,0.021851,1.058105,-0.732422,-1.586914,9.826660
11852,0.103149,-0.117065,1.031738,-0.244141,-2.441406,9.582520
11861,0.084473,-0.354980,0.950195,-0.549316,-2.868652,9.338379
11873,0.090820,0.197510,1.154053,-0.732422,-2.258301,9.948730
11882,0.100220,-0.032959,1.101929,0.000000,-2.868652,10.620117
11891,0.093750,-0.214478,0.962402,0.915527,-2.868652,11.108398
11902,0.078369,-0.107666,1.045410,1.037598,-3.540039,10.742188
11912,0.097778,0.102905,1.142578,0.976562,-4.394531,10.009766
11923,0.068237,-0.072144,1.094482,1.464844,-5.737305,8.789063
11932,-0.037598,-0.148193,0.839966,2.258301,-4.882812,7.812500
11943,-0.071899,-0.026855,0.963623,2.197266,-4.882812,7.446289
11952,-0.030762,-0.191528,0.940430,1.831055,-3.112793,7.385254
11962,-0.041138,-0.201294,0.969116,1.525879,-3.540039,6.835937
11971,0.000488,-0.110962,0.985840,1.098633,-4.577637,6.774902
11982,-0.004761,-0.193237,1.001099,1.098633,-4.699707,6.225586
11992,0.075439,-0.213623,1.019287,1.220703,-3.784180,5.371094
12001,0.079834,-0.067017,1.063354,1.159668,-5.615234,3.906250
12013,0.104004,-0.401001,0.967285,1.098633,-6.103516,3.356934
12022,0.057739,-0.273682,0.859253,0.854492,-6.591797,3.051758
12031,0.019409,0.012573,0.944214,0.366211,-6.835937,2.807617
12042,0.015503,-0.128174,0.953979,0.122070,-6.042480,3.173828
12051,0.012329,-0.313721,0.903931,-0.366211,-6.347656,3.540039
12061,0.029053,-0.081055,0.999756,-0.488281,-3.234863,3.906250
12073,-0.019531,-0.211914,0.915649,-0.549316,-5.676270,4.333496
12082,-0.033203,-0.488525,0.573120,-0.244141,-6.042480,4.211426
12092,-0.070679,-0.209229,0.815063,-2.075195,-5.004883,4.394531
12102,-0.057739,-0.224976,0.857056,-4.089355,-4.760742,5.004883
12111,-0.079956,0.056519,1.068237,-4.577637,-4.516602,4.760742
12122,-0.059204,0.103027,1.041016,-3.234863,-2.685547,4.943848
12132,-0.017090,-0.065063,1.060913,-2.746582,-5.371094,4.272461
12141,-0.018555,-0.258667,1.026611,-2.502441,-4.089355,1.831055
12151,-0.015991,0.049072,1.108276,-2.441406,-4.272461,1.464844
12162,-0.083008,0.018677,0.991089,-1.281738,-4.211426,1.464844
12171,-0.105591,-0.221069,0.923096,-1.281738,-5.310059,1.586914
12181,-0.062134,-0.318481,0.826660,-1.770020,-2.746582,1.953125
12192,-0.043335,-0.129150,0.949097,-2.441406,-0.488281,2.014160
12202,-0.011719,-0.116699,1.000000,-3.967285,-3.234863,1.464844
12213,-0.011353,0.109863,0.997192,-5.798340,-2.685547,0.122070
12223,0.063232,0.141235,1.110718,-6.164551,-4.455566,-1.281738
12233,0.040283,-0.110840,0.999146,-4.943848,-1.892090,-3.112793
12242,0.059326,-0.078491,1.038208,-5.859375,-5.187988,-4.455566
12252,0.094482,0.188843,1.229980,-5.065918,-1.464844,-5.615234
12261,0.120361,0.001465,1.107666,-4.882812,-5.065918,-5.737305
12273,0.056396,-0.112305,1.139038,-2.502441,-3.906250,-6.591797
12282,0.053589,-0.104126,1.012573,-1.281738,-3.295898,-7.019043
12292,0.033691,-0.067017,1.044434,-1.098633,-3.601074,-7.324219
12301,0.053467,-0.179565,0.983887,-1.464844,-1.953125,-7.690430
12311,0.018677,-0.181152,0.921631,-1.770020,-2.197266,-8.056641
12322,-0.013184,-0.030029,0.939087,-2.441406,-3.906250,-7.934570
12332,0.007080,-0.050903,0.998169,-1.708984,-0.854492,-8.544922
12341,-0.009155,-0.266602,0.967529,-2.014160,-2.136230,-8.178711
12353,-0.004517,-0.011108,1.076538,-1.892090,-1.037598,-7.690430
12363,-0.063477,-0.056396,1.004883,-0.793457,1.098633,-7.690430
12373,-0.039185,-0.011230,0.953491,-0.305176,4.516602,-6.591797
12382,-0.030273,-0.094238,0.926880,0.732422,1.464844,-5.737305
12392,0.004272,-0.180908,0.953735,2.319336,1.281738,-5.310059
12402,-0.018311,-0.108154,0.915527,1.831055,3.417969,-3.479004
12411,-0.005615,-0.148804,0.928955,2.136230,3.662109,-1.708984
12423,-0.061646,-0.058960,0.976807,2.136230,4.943848,1.342773
12432,-0.163086,-0.105103,0.975952,1.464844,4.882812,2.929688
12442,-0.158691,-0.180542,0.895386,1.159668,5.249023,4.150391
12452,-0.057983,-0.104370,0.921509,0.915527,6.347656,5.371094
12462,-0.068848,-0.087646,0.972412,1.403809,7.324219,6.347656
12472,-0.041870,-0.130737,0.915771,0.366211,6.042480,7.629395
12484,-0.060669,-0.006958,0.988159,0.732422,7.934570,10.192871
12494,-0.084961,-0.155884,1.002197,1.159668,8.911133,11.352539
12503,-0.057251,-0.279175,0.907715,1.525879,8.728027,12.329102
12513,-0.065186,-0.221191,0.992065,1.892090,8.544922,13.366699
12522,-0.007202,0.001709,1.095581,1.220703,6.591797,13.793945
12532,-0.010132,-0.078125,1.082520,1.953125,9.704590,14.099121
12542,-0.035889,-0.404541,0.885620,2.136230,7.995605,14.404297
12552,-0.027710,-0.260376,0.930298,0.976562,6.896973,14.526367
12561,-0.002075,-0.065918,1.094849,0.732422,10.009766,14.831543
12572,-0.019165,-0.119995,1.116821,-0.793457,6.835937,15.258789
12582,-0.022461,-0.149780,1.033691,-0.793457,5.615234,14.953613
12592,0.000000,-0.288818,0.942871,-0.732422,6.164551,15.380859
12602,0.083130,-0.038330,1.105225,-0.549316,8.911133,15.136719
12611,0.131104,-0.155884,1.025146,-0.732422,5.371094,15.380859
12623,0.086304,-0.292725,0.869629,-2.075195,2.685547,15.014648
12632,0.114258,-0.129883,0.792725,-1.708984,4.821777,14.282227
12642,0.039917,-0.086548,0.821655,-2.868652,5.981445,15.319824
12652,0.081421,-0.204590,0.786499,-4.760742,3.540039,15.441895
12662,0.099609,-0.012817,0.900146,-6.408691,-0.549316,14.465332
12672,0.140015,0.109741,1.064697,-6.103516,1.281738,13.183594
12682,0.042358,0.007202,1.103149,-5.981445,3.051758,12.939453
12692,0.109619,-0.030640,1.069214,-5.859375,-1.281738,10.375977
12703,0.067261,0.054321,1.150269,-3.173828,1.464844,9.643555
12713,0.041382,-0.002319,1.118164,-2.746582,4.089355,10.070801
12722,0.054565,-0.049927,0.992310,-2.807617,2.502441,11.291504
12731,0.038330,-0.180542,0.854980,-2.868652,-3.356934,12.207031
12742,0.009277,-0.058228,0.910278,-1.953125,-1.220703,11.718750
12752,0.076294,0.086304,0.999878,-1.892090,1.892090,11.108398
12764,0.085205,-0.148682,0.912354,-2.197266,3.051758,9.460449
12774,0.041138,-0.061279,0.898437,-2.685547,-1.403809,8.728027
12783,0.135864,-0.015259,1.012329,-2.624512,-6.286621,7.324219
12793,0.063843,-0.236328,0.988770,-1.525879,-3.906250,5.859375
12802,0.083374,-0.244141,0.970215,-1.464844,-0.793457,5.310059
12812,0.052979,-0.092773,1.005737,-2.502441,-2.014160,5.676270
12822,0.064941,-0.109009,0.989624,-2.685547,-4.516602,4.943848
12832,0.049805,-0.267822,0.880737,-2.380371,-4.760742,5.004883
12844,0.044800,-0.097290,1.046021,-3.662109,-1.586914,5.187988
12853,0.004395,-0.112183,0.996582,-4.516602,-5.187988,5.676270
12863,0.044922,-0.102051,0.989502,-3.601074,-4.455566,4.577637
12872,0.023804,0.025879,1.046631,-2.990723,-0.854492,4.577637
12882,0.051514,0.049561,1.063843,-3.845215,-6.103516,4.577637
12892,-0.018188,-0.127686,1.042725,-2.868652,-2.563477,3.845215
12902,-0.018677,-0.181885,0.990723,-3.662109,-5.310059,2.929688
12914,0.046021,0.047974,1.056519,-2.929688,-1.892090,3.540039
12923,0.031128,-0.061523,0.969604,-2.868652,-4.760742,3.723145
12933,0.032471,-0.171143,0.974731,-1.403809,-2.136230,4.211426
12942,0.054565,-0.156982,1.022949,-0.244141,-2.990723,4.211426
12952,0.084351,-0.178345,1.016724,0.183105,-5.371094,4.272461
12962,0.098145,-0.348511,0.957886,0.610352,-3.356934,4.943848
12975,0.034546,-0.273438,0.829956,0.305176,-4.760742,5.004883
12984,0.018066,-0.196167,0.884644,-0.793457,-4.211426,5.249023
12994,0.031250,-0.061646,0.956421,-2.014160,-3.540039,5.798340
13004,0.022217,-0.059570,1.009399,-2.807617,-5.493164,5.737305
13013,0.021362,-0.139771,0.952515,-2.502441,-4.760742,5.615234
13023,-0.027588,-0.133667,0.913208,-2.563477,-4.760742,5.249023
13033,0.007690,-0.036011,1.009033,-2.807617,-4.760742,5.004883
13042,-0.041260,0.051636,1.108643,-2.685547,-3.112793,4.882812
13053,-0.035767,-0.112183,1.005737,-1.098633,-2.136230,4.638672
13063,0.019531,-0.193970,0.946777,-0.793457,-3.051758,5.371094
13073,0.054077,-0.213867,0.919678,-0.915527,-2.258301,5.737305
13082,-0.025391,-0.185181,0.909058,-1.403809,-5.249023,5.432129
13092,-0.022583,0.031738,0.990845,-1.953125,-3.234863,6.164551
13102,0.008179,0.035156,1.041870,-1.403809,-2.990723,6.835937
13112,-0.011108,-0.120117,0.977051,-1.770020,-3.601074,6.530762
13124,-0.019165,-0.166504,1.019287,-1.525879,-3.784180,5.920410
13133,0.006226,-0.052246,1.037964,-1.586914,-3.540039,6.103516
13143,0.008423,-0.041870,0.985229,-0.732422,-3.234863,5.981445
13152,0.015747,-0.224609,0.925415,-0.366211,-2.563477,5.493164
13162,0.005371,-0.255615,0.975342,-1.159668,-4.516602,5.249023
13172,0.036621,-0.177979,1.042847,-1.586914,-2.990723,4.882812
13182,0.019775,-0.135864,1.040894,-1.708984,-2.136230,3.051758
13194,0.030396,-0.176025,1.009644,-2.136230,-4.699707,2.075195
13203,0.024292,-0.127686,1.042603,-1.770020,-0.549316,1.281738
13213,0.005005,-0.033081,1.069946,-2.502441,-4.577637,0.671387
13222,0.009277,0.025513,1.118408,-1.892090,-5.004883,-1.586914
13233,-0.026367,0.012817,1.062134,-1.770020,-4.272461,-2.685547
13242,0.019897,-0.077637,0.987915,-1.342773,-4.333496,-3.784180
13254,0.050537,-0.049683,1.010132,-2.075195,-6.774902,-5.676270
13263,0.027832,0.059937,1.055786,-0.854492,-3.662109,-5.676270
13273,0.028076,0.039917,1.022217,0.000000,-1.770020,-6.103516
13282,0.013550,-0.092041,1.026245,-0.610352,-4.089355,-6.225586
13292,0.053833,-0.236694,0.972046,0.000000,-3.234863,-6.469727
13303,0.017578,-0.248901,0.921143,-0.488281,-6.042480,-6.469727
13312,0.009521,-0.079102,0.948364,0.122070,-2.929688,-7.019043
13324,-0.061035,-0.138428,0.926514,-0.183105,-2.929688,-6.591797
13333,-0.038452,-0.143066,0.933472,-0.366211,0.488281,-6.286621
13343,-0.036499,-0.099121,0.996338,-0.793457,-1.831055,-6.042480
13352,-0.003906,0.021240,1.090454,-0.549316,0.000000,-5.493164
13362,-0.043823,0.019531,1.052490,0.244141,0.732422,-4.455566
13372,0.041382,-0.121582,0.977173,0.549316,-1.403809,-3.051758
13382,-0.043213,-0.203003,1.001953,2.075195,1.770020,-2.624512
13394,-0.075806,-0.067261,1.028687,2.258301,6.225586,0.244141
13404,-0.042480,-0.096313,1.018066,1.831055,4.333496,1.159668
13413,-0.012573,-0.067383,0.952148,1.037598,3.234863,2.319336
13423,0.024780,-0.230103,0.898315,1.525879,6.164551,2.685547
13432,-0.066040,-0.190674,0.968628,1.586914,4.943848,2.990723
13442,-0.032837,-0.022217,0.944946,1.403809,1.831055,2.868652
13452,-0.053467,0.003784,1.010620,1.770020,5.371094,3.906250
13464,-0.037354,-0.294067,0.845459,1.159668,2.990723,4.699707
13473,-0.008057,-0.303345,0.654419,-0.061035,3.356934,5.004883
13483,0.020508,-0.150391,0.801514,-1.159668,3.601074,5.859375
13492,-0.016724,-0.052612,0.964233,-2.319336,3.540039,6.347656
13503,-0.018799,-0.033691,0.974121,-3.051758,4.638672,6.408691
13512,-0.002075,-0.061523,1.106079,-3.295898,1.708984,6.164551
13522,-0.057739,-0.048218,1.111206,-2.807617,4.699707,5.798340
13534,0.017700,-0.142700,1.014160,-2.441406,4.577637,5.371094
13544,0.066406,-0.252808,0.982544,-2.380371,4.516602,5.187988
13554,0.023926,-0.287598,0.946411,-2.624512,2.929688,5.798340
13563,0.064209,-0.093262,0.916382,-2.624512,3.662109,6.835937
13572,0.060303,-0.046997,0.996338,-2.807617,3.845215,8.178711
13582,0.062378,-0.067993,1.024902,-2.929688,5.126953,9.094238
13593,0.004150,-0.130005,1.046875,-3.540039,2.929688,9.521484
13603,0.060181,-0.115479,1.032104,-2.197266,5.310059,10.131836
13612,-0.027344,-0.106201,1.013672,-2.685547,2.258301,10.681152
13623,-0.024048,-0.077393,0.903320,-2.075195,1.953125,10.314941
13633,-0.006592,-0.008057,1.028931,-2.685547,1.647949,10.803223
13642,0.022095,-0.172852,0.918457,-2.441406,2.319336,10.559082
13653,0.005127,-0.082275,0.959106,-3.112793,1.953125,10.803223
13662,0.047974,0.063721,1.067993,-3.723145,1.953125,10.864258
13674,0.030640,-0.128296,1.098633,-3.356934,2.258301,11.901855
13684,-0.007446,-0.171265,1.016357,-3.295898,1.708984,11.962891
13693,0.033325,-0.165527,1.011108,-3.356934,0.732422,12.512207
13702,-0.075439,-0.054443,1.084961,-2.990723,-0.061035,11.901855
13712,0.003174,0.038330,1.121582,-2.136230,3.173828,11.962891
13722,-0.095337,0.059326,1.083008,-2.380371,-1.831055,11.535645
13732,-0.065430,0.037109,0.976807,-0.854492,3.051758,10.864258
13744,-0.010986,-0.206543,0.868530,-0.793457,0.732422,9.887695
13753,0.021240,0.012451,0.975586,-0.915527,0.305176,9.521484
13762,0.005859,-0.027222,0.992920,-0.122070,1.037598,8.972168
13773,0.082153,-0.145264,0.950684,0.183105,0.061035,8.666992
13782,0.026733,-0.177490,0.944824,-0.061035,0.427246,8.178711
13792,0.071411,-0.211304,1.001099,0.183105,0.366211,7.873535
13804,0.079956,-0.145752,1.015259,0.061035,-1.586914,8.239746
13814,0.059814,-0.009766,1.017578,0.427246,-1.708984,8.666992
13823,0.143066,-0.144409,0.957275,0.854492,-3.784180,9.155273
13832,0.142090,-0.245850,0.903076,1.281738,1.098633,10.070801
13842,0.130981,-0.123047,0.934814,-0.122070,-3.845215,10.681152
13852,0.130249,-0.001343,1.049683,0.183105,-3.417969,10.803223
13862,0.185791,0.020264,1.021118,0.427246,-2.136230,10.498047
13873,0.141968,-0.027466,0.959595,0.671387,-4.333496,9.460449
13882,0.125122,-0.091675,0.986572,0.488281,-6.042480,6.652832
13892,0.078491,0.005981,1.078735,0.000000,-7.446289,5.371094
13902,-0.031494,0.113037,1.134277,0.000000,-7.995605,4.638672
13912,0.084351,0.088745,1.108887,1.159668,-7.568359,4.882812
13922,0.022461,-0.035034,1.031860,1.831055,-7.202148,6.591797
13933,-0.015259,-0.151489,1.042236,2.136230,-6.896973,8.056641
13943,0.019531,-0.279663,1.006592,2.563477,-7.263184,8.361816
13954,0.022461,-0.348877,0.869629,2.624512,-6.347656,7.873535
13964,-0.023926,-0.279663,0.843140,1.525879,-6.652832,7.446289
13973,0.020752,-0.261719,0.866455,0.305176,-7.202148,5.859375
13983,0.013306,-0.240479,0.935669,-0.610352,-6.408691,4.333496
13993,0.092529,-0.209473,0.946411,-1.770020,-9.704590,2.807617
14002,0.052246,-0.073975,0.986572,-2.075195,-10.131836,2.380371
14013,0.117310,-0.098022,1.042603,-2.136230,-8.850098,2.197266
14023,0.057983,-0.148926,1.012939,-2.685547,-8.911133,2.258301
14032,-0.023437,-0.181885,0.898071,-1.953125,-8.972168,2.197266
14043,0.031982,-0.243286,0.897217,-0.915527,-8.544922,1.953125
14052,-0.082397,-0.152954,0.864258,-0.732422,-6.286621,1.159668
14063,-0.066772,-0.147827,0.920166,-2.380371,-9.704590,0.671387
14073,-0.111450,-0.134888,0.999634,-1.831055,-7.873535,-0.427246
14082,-0.079712,-0.072388,1.068481,-2.258301,-7.324219,-0.244141
14094,-0.148560,-0.129150,1.024536,-1.464844,-5.554199,0.000000
14104,-0.147095,-0.146606,1.060303,-1.770020,-4.089355,0.610352
14113,-0.120117,-0.102051,1.037476,-1.342773,-2.502441,0.549316
14123,-0.091064,-0.177734,1.008301,-1.159668,-4.272461,0.427246
14133,0.028931,-0.280396,1.007202,0.000000,-0.732422,-0.305176
14142,0.029175,-0.233154,1.006714,-0.061035,-4.028320,-1.159668
14154,-0.042969,-0.213013,1.037476,-0.671387,-8.361816,-3.112793
14164,-0.044800,-0.099243,0.966187,-0.122070,-3.173828,-3.662109
14173,0.003418,-0.065674,0.945679,-1.220703,-2.014160,-2.929688
14183,0.018921,-0.042725,0.939575,-2.685547,-7.507324,-2.990723
14193,0.067261,-0.132568,0.928589,-3.234863,-8.361816,-3.540039
14202,0.096924,-0.125854,0.946411,-4.333496,-8.666992,-4.272461
14213,0.127441,-0.042725,0.991577,-5.371094,-8.422852,-5.004883
14222,0.126221,0.056885,1.031006,-5.493164,-9.460449,-6.225586
14234,0.098267,-0.021973,1.021973,-4.638672,-7.446289,-7.019043
14243,0.111694,-0.063721,0.998413,-4.211426,-2.685547,-6.958008
14253,0.017212,-0.024292,1.011963,-4.638672,-8.789063,-7.690430
14262,-0.016602,0.005005,1.028076,-3.479004,-9.582520,-8.972168
14272,-0.062134,-0.096191,0.982666,-1.586914,-8.239746,-10.742188
14283,-0.061523,-0.117676,1.003174,-0.366211,-5.371094,-12.573242
14292,-0.053833,-0.088501,1.007446,0.183105,-2.685547,-13.854980
14304,-0.079834,-0.143921,0.925659,0.427246,0.793457,-15.075684
14313,-0.066040,-0.182251,0.860596,0.610352,1.892090,-14.770508
14323,-0.006958,-0.176636,0.909302,0.244141,2.563477,-13.793945
14332,-0.001465,-0.110229,0.999146,-0.305176,1.037598,-12.878418
14343,0.022217,-0.068848,1.023071,-0.854492,-3.173828,-12.390137
14352,0.051636,-0.097534,1.018188,0.305176,1.281738,-12.207031
14363,0.035767,-0.069336,0.998169,-0.061035,4.760742,-10.742188
14374,0.041382,-0.157349,1.008301,-0.427246,4.150391,-8.361816
14383,0.047607,-0.175903,0.989502,-0.732422,4.821777,-7.629395
14393,0.068359,-0.137207,0.922485,-0.427246,5.676270,-7.019043
14403,0.034912,-0.102661,0.946899,-1.220703,4.760742,-6.103516
14413,0.025879,-0.114136,0.944824,-1.342773,6.652832,-5.493164
14423,0.024902,-0.036743,0.961426,-2.868652,5.249023,-3.906250
14433,-0.004272,0.006348,1.042969,-3.356934,3.784180,-2.441406
14442,-0.036987,-0.043701,1.088867,-2.502441,-0.488281,-2.502441
14454,0.006226,-0.036621,1.078857,-1.159668,3.601074,-2.441406
14463,-0.053101,-0.152344,1.004150,-0.610352,7.263184,-1.892090
14473,0.032471,-0.169800,0.864014,-0.610352,7.812500,-2.441406
14482,-0.000977,-0.259033,0.841187,-0.061035,7.934570,-3.173828
14493,-0.052246,-0.268677,0.853638,0.183105,7.629395,-3.723145
14502,-0.036011,-0.051025,0.903442,-0.549316,8.117676,-3.845215
14514,-0.049683,-0.064697,1.041016,-0.854492,8.361816,-5.249023
14523,-0.032104,-0.188354,0.915283,-0.244141,6.591797,-5.554199
14533,-0.015259,-0.196045,0.872559,-0.793457,6.652832,-5.554199
14542,0.008911,-0.130371,0.984863,-1.098633,8.178711,-5.310059
14553,-0.003662,-0.080200,1.039795,-1.464844,9.704590,-4.638672
14562,0.033203,0.005981,0.999756,-1.708984,8.422852,-4.272461
14572,0.057861,-0.037354,0.954102,-2.075195,5.187988,-3.356934
14584,0.033936,-0.113159,0.978760,-2.746582,5.920410,-0.549316
14593,0.035522,0.079224,1.063110,-1.403809,7.629395,-0.061035
14603,0.038330,0.060303,1.191284,-1.464844,2.746582,1.098633
14613,0.024536,-0.059082,1.150024,0.122070,6.774902,2.197266
14622,-0.019165,-0.125488,1.063599,-0.183105,3.051758,2.807617
14633,0.008789,-0.158813,1.069092,-0.183105,5.737305,3.723145
14642,0.014771,-0.200928,1.072021,1.098633,7.385254,3.234863
14655,-0.014160,-0.212158,0.941528,-0.305176,4.882812,4.028320
14664,-0.018066,-0.105469,0.986816,0.122070,10.070801,3.906250
14673,-0.033569,-0.037842,1.043335,0.549316,10.742188,3.601074
14682,-0.065186,0.023682,1.091309,0.671387,7.812500,3.662109
14693,-0.055908,-0.018433,1.050293,-0.183105,2.563477,3.723145
14702,-0.098511,-0.025024,1.028320,0.366211,3.112793,4.089355
14714,-0.044556,-0.153320,0.942017,1.281738,10.375977,4.211426
14723,-0.141479,-0.220703,0.681396,-0.732422,9.277344,3.662109
14734,-0.139648,-0.001221,0.824097,-3.173828,6.225586,3.845215
14743,-0.023193,0.045532,0.878784,-3.967285,7.873535,3.845215
14752,-0.085083,0.030396,0.929077,-4.028320,8.728027,4.577637
14763,-0.045044,-0.023682,0.949463,-4.333496,5.126953,5.798340
14772,-0.083862,-0.095459,0.959839,-4.150391,4.577637,6.958008
14784,-0.003418,-0.003418,1.049316,-3.723145,5.615234,8.483887
14793,-0.015869,0.082886,1.026978,-2.441406,5.432129,9.033203
14803,0.036011,-0.100952,0.911133,-0.366211,7.568359,9.521484
14813,0.065674,-0.132690,0.900757,0.061035,7.385254,10.131836
14823,0.053467,-0.129150,0.960815,-0.183105,6.164551,10.803223
14832,0.070435,-0.052612,1.022583,-0.915527,5.065918,11.230469
14843,0.076416,-0.044312,1.019531,-0.976562,5.249023,11.718750
14852,0.044922,-0.057129,0.947388,-0.732422,6.469727,12.207031
14864,0.012573,-0.059204,1.122070,0.427246,8.178711,13.122559
14874,-0.050415,-0.083008,1.160645,1.098633,9.826660,13.793945
14883,-0.016357,-0.080200,1.122559,1.525879,11.291504,14.099121
14893,-0.008423,-0.008301,1.155640,1.037598,11.474609,14.770508
14903,-0.022461,-0.033081,1.109131,0.671387,12.451172,15.625000
14912,-0.095703,-0.137207,1.053467,0.305176,12.512207,16.479492
14924,-0.076294,-0.183105,1.005005,-2.136230,7.141113,17.700195
14933,-0.060791,-0.150269,1.042725,-2.807617,5.798340,17.639160
14943,-0.014038,-0.165161,1.047363,-3.295898,4.821777,17.517090
14952,-0.078125,-0.174072,1.013062,-3.051758,8.544922,17.395020
14963,-0.063599,-0.075562,0.988281,-2.319336,11.718750,16.723633
14972,-0.087769,-0.182983,0.986206,-1.708984,11.169434,16.479492
14983,-0.010742,-0.315430,0.939941,-2.502441,5.981445,16.723633
14992,-0.095459,0.070068,0.985840,-3.356934,8.361816,17.761230
15004,-0.047974,0.004639,0.991333,0.183105,11.596680,18.249512
15014,0.002319,-0.053345,0.961060,1.525879,11.108398,18.920898
15023,-0.059692,-0.236938,0.962891,3.112793,11.291504,19.531250
15033,-0.033325,-0.169312,1.084595,3.601074,11.352539,20.019531
15043,-0.038696,-0.142700,1.154419,3.479004,10.925293,20.141602
15052,-0.055786,-0.109131,0.972534,4.089355,11.779785,19.348145
15064,-0.077271,-0.168335,0.886597,4.760742,11.169434,18.859863
15073,-0.042480,-0.185303,0.840942,3.234863,6.530762,18.432617
15083,-0.001953,-0.045166,0.904175,2.197266,2.746582,16.845703
15092,0.044434,-0.057983,0.978271,2.929688,7.812500,16.723633
15102,-0.014893,-0.162598,0.908569,2.441406,5.249023,17.883301
15113,0.025635,-0.154541,0.990112,2.563477,5.065918,18.188477
15123,-0.022583,-0.049927,1.072388,2.624512,10.070801,19.531250
15132,0.022949,-0.100098,1.061157,1.098633,5.798340,20.812988
15144,0.031738,-0.289917,0.857422,-0.244141,0.488281,20.690918
15154,0.069336,-0.063843,0.945679,-1.647949,-0.610352,19.653320
15163,0.087524,0.083984,1.078125,-2.319336,-0.610352,18.798828
15172,0.065308,0.073853,1.122314,-2.929688,-0.610352,17.944336
15183,0.104126,-0.040405,1.084717,-2.380371,3.051758,17.517090
15193,0.090698,-0.114868,1.055298,-2.197266,3.295898,17.272949
15202,0.108154,-0.110229,1.066528,-2.563477,2.868652,17.395020
15214,0.135254,-0.018799,1.017700,-3.112793,-5.126953,16.052246
15223,0.106201,-0.064209,0.986084,-1.708984,-2.746582,14.587402
15233,0.123291,-0.061646,0.977295,-0.915527,0.610352,12.817383
15243,0.097778,-0.092896,0.969360,-1.281738,-1.281738,11.291504
15252,0.050781,-0.124756,0.955688,-2.075195,-6.591797,9.643555
15262,0.030762,-0.018555,0.993164,-2.746582,-8.728027,8.300781
15272,0.050415,0.042603,1.013916,-2.990723,-8.666992,7.629395
15284,-0.006958,-0.177368,0.904175,-2.258301,-4.577637,6.896973
15294,0.013672,-0.248657,0.841064,-2.502441,-6.958008,5.920410
15303,-0.000244,-0.069092,0.922729,-2.807617,-6.469727,4.882812
15313,0.007202,0.044922,1.002197,-3.356934,-5.859375,4.516602
15322,0.033203,0.086792,1.013672,-3.967285,-6.164551,4.394531
15332,0.016235,0.026367,0.995850,-4.455566,-6.469727,4.882812
15342,-0.010742,-0.086304,0.963379,-4.394531,-6.530762,5.004883
15354,0.027588,-0.001099,1.098755,-3.295898,0.061035,5.920410
15364,0.016602,0.019409,1.093872,-2.136230,-0.244141,5.187988
15373,0.064941,-0.039307,1.065430,-2.624512,-5.126953,5.554199
15383,0.033936,-0.162598,1.013916,-1.892090,-0.854492,6.408691
15392,0.042114,-0.163940,1.009399,-0.671387,2.929688,6.103516
15402,0.032593,-0.143311,1.052734,-0.976562,0.366211,6.042480
15414,0.037476,-0.048706,1.045532,-1.281738,-1.892090,6.958008
15423,0.043823,-0.162354,0.929443,-0.854492,-0.183105,7.934570
15433,0.012939,-0.169800,0.929443,-1.403809,-3.356934,8.544922
15442,0.044067,-0.092163,1.004517,-0.549316,0.000000,9.155273
15452,-0.013062,-0.093628,1.003906,-0.671387,-3.906250,9.338379
15462,-0.013184,-0.126099,0.941040,-0.610352,-4.882812,9.521484
15473,-0.037354,-0.155884,0.925415,0.427246,-1.342773,9.277344
15482,-0.031372,-0.101318,0.964111,0.610352,1.281738,9.521484
15494,-0.058228,-0.053589,1.006104,-0.061035,0.488281,10.559082
15503,-0.006836,-0.109741,0.974854,0.061035,4.577637,11.352539
15512,-0.062988,-0.083496,1.001221,0.366211,5.798340,12.207031
15523,0.022217,-0.048950,1.032349,0.671387,3.356934,12.573242
15532,-0.044678,-0.008667,1.048218,0.427246,-0.976562,13.305664
15543,0.029297,-0.073364,1.039307,0.427246,-2.502441,14.099121
15552,-0.026489,-0.162964,0.976196,0.549316,-1.159668,14.831543
15564,0.009277,-0.168701,0.940430,0.061035,-3.540039,14.770508
15574,0.057861,-0.073120,0.973511,-0.122070,-3.845215,14.892578
15583,0.017456,-0.006470,0.982788,-0.183105,-3.784180,15.319824
15593,0.011719,-0.069702,0.974365,0.366211,1.281738,15.686035
15602,0.010742,-0.182861,0.948975,-0.183105,1.770020,16.723633
15613,0.008179,-0.177124,0.920044,-0.061035,2.624512,16.662598
15622,-0.019043,-0.084229,0.959595,-1.464844,0.549316,17.883301
15634,0.030762,-0.104858,0.976196,-2.136230,-3.479004,17.944336
15644,-0.011719,-0.105469,0.976685,-1.037598,1.831055,18.127441
15653,-0.000854,-0.074463,0.955566,-1.953125,1.770020,18.676758
15663,-0.008423,0.011597,1.071533,-2.746582,-4.089355,18.005371
15672,0.044312,-0.057129,1.077393,-2.502441,-3.662109,16.906738
15682,-0.020264,-0.134033,1.022949,-2.258301,-3.173828,16.418457
15694,0.025513,-0.162231,0.961182,-0.976562,2.014160,16.052246
15703,-0.048828,0.014282,1.123169,-0.671387,2.563477,16.174316
15713,-0.003174,-0.038086,1.163208,-0.366211,3.295898,16.052246
15723,0.080811,-0.082886,1.094849,-0.427246,3.479004,16.235352
15732,0.019897,-0.165771,1.021851,-0.976562,-1.586914,16.357422
15742,0.047363,-0.197998,0.988159,-0.610352,-6.286621,15.380859
15752,0.026733,-0.170654,0.988281,0.000000,-6.652832,14.221191
15764,0.049316,-0.106445,1.001953,-0.122070,-7.263184,13.488770
15774,0.058838,-0.229736,0.929443,-0.122070,-7.385254,13.061523
15783,0.046265,-0.216431,0.923340,0.305176,-4.333496,12.207031
15792,0.012329,-0.154907,0.958252,0.671387,0.488281,12.390137
15803,0.063232,-0.095703,0.988647,-0.061035,0.305176,12.817383
15812,0.008423,-0.081787,0.990723,-1.159668,-2.258301,13.000488
15823,0.074585,-0.122314,0.976562,-1.342773,-1.342773,13.061523
15834,-0.002563,-0.084839,0.981812,-0.915527,0.793457,12.329102
15843,0.004150,0.066772,0.973145,-1.037598,0.610352,12.878418
15853,0.038940,-0.014282,0.979858,-1.464844,-0.610352,13.244629
15863,0.019409,-0.148560,0.890991,-0.610352,0.915527,13.305664
15872,-0.001709,-0.105469,0.885498,-0.488281,1.281738,13.183594
15883,-0.013062,0.017944,0.958496,-0.122070,1.342773,13.000488
15892,-0.015869,0.097046,0.980347,0.061035,0.976562,12.451172
15904,0.000000,-0.081299,0.962891,-1.464844,-5.249023,12.451172
15913,0.009521,-0.027344,0.935303,-1.831055,-8.422852,11.840820
15924,0.032104,0.055298,0.986938,-1.831055,-8.483887,11.962891
15933,0.042236,-0.114014,0.880249,-1.831055,-8.728027,11.901855
15942,0.043579,-0.226929,0.824829,-2.563477,-8.117676,11.962891
15953,0.049438,-0.062866,0.912598,-3.112793,-6.896973,11.169434
15963,0.080811,0.075317,1.020020,-2.197266,-1.159668,10.131836
15972,0.077881,0.016968,1.022583,-2.319336,-0.488281,10.314941
15983,0.017334,-0.140015,0.997437,-2.624512,-6.774902,9.887695
15993,0.043579,-0.018066,1.142212,-1.831055,-3.234863,7.568359
16002,0.076050,-0.068726,1.098877,-2.197266,-1.281738,7.446289
16013,0.073730,-0.121094,0.988281,-2.502441,-2.441406,7.263184
16022,0.066162,-0.058594,1.047852,-2.929688,-8.728027,6.408691
16033,0.092407,0.051758,1.126221,-2.136230,-7.202148,5.126953
16044,0.133667,-0.023804,1.104248,-2.685547,-8.666992,4.455566
16053,0.103394,-0.190552,0.981445,-1.586914,-5.798340,3.051758
16063,0.136108,-0.161499,0.999512,-1.037598,-2.624512,2.380371
16073,0.145630,-0.047729,1.026733,-2.136230,-4.943848,2.075195
16082,0.122681,-0.005615,1.039307,-3.417969,-11.901855,0.976562
16092,0.104492,-0.084717,1.022217,-3.295898,-12.512207,-0.305176
16103,0.051758,-0.069702,1.002686,-2.807617,-10.131836,-1.342773
16113,0.072510,-0.023926,1.051636,-2.746582,-6.164551,-2.014160
16124,0.021118,-0.096313,0.987061,-2.868652,-11.962891,-2.990723
16134,-0.001587,-0.174805,0.963501,-2.075195,-11.779785,-4.333496
16143,0.041016,-0.137207,0.950317,-0.976562,-5.981445,-4.577637
16153,0.064697,-0.181885,0.885376,-1.525879,-5.554199,-3.906250
16162,0.062500,-0.195557,0.845581,-2.868652,-11.291504,-3.906250
16173,0.067505,-0.017578,0.918579,-2.929688,-11.352539,-4.516602
16182,0.108398,0.002808,0.993774,-2.136230,-7.324219,-4.699707
16194,0.022461,-0.141235,0.883423,-2.380371,-9.521484,-4.028320
16203,0.031494,0.020020,0.977905,-3.051758,-7.080078,-3.356934
16212,0.037109,-0.052856,0.966309,-2.441406,-4.699707,-3.234863
16223,0.023682,-0.200317,0.844482,-0.915527,-2.929688,-3.540039
16232,0.053955,-0.080322,0.902832,-1.037598,-7.446289,-3.112793
16243,0.043457,-0.037842,0.936157,-1.342773,-7.446289,-1.464844
16252,0.016846,-0.233398,0.872437,-0.610352,-1.708984,-0.732422
16264,-0.016479,0.025024,0.982788,-0.244141,-2.197266,-0.854492
16273,0.058960,0.077637,1.085815,-1.831055,-7.690430,-0.488281
16283,-0.012695,-0.113647,1.066162,-1.708984,-5.249023,0.915527
16293,0.004883,-0.208984,1.002441,-0.488281,-0.427246,1.220703
16302,-0.024536,-0.081787,1.099121,-0.915527,-4.272461,1.281738
16313,0.026367,-0.005615,1.205566,-1.037598,-5.615234,2.197266
16324,-0.006958,-0.005615,1.111206,0.183105,0.793457,4.943848
16333,-0.012451,-0.080078,1.084595,-0.732422,-4.028320,5.432129
16344,0.032837,-0.069824,1.122192,-0.122070,-1.953125,5.493164
16353,-0.021484,-0.106812,1.090454,0.976562,-0.305176,4.699707
16362,0.017578,-0.076538,1.174805,0.427246,-4.760742,4.577637
16372,0.025757,-0.116577,1.021851,0.793457,-2.746582,5.432129
16383,-0.018921,-0.188599,0.956909,1.281738,0.976562,5.493164
16394,-0.022461,-0.202515,0.902344,1.220703,1.708984,3.540039
16403,0.014893,-0.260132,0.806274,-0.244141,0.061035,3.295898
16413,-0.041260,-0.048706,0.852661,-2.624512,-5.249023,2.990723
16423,0.024780,0.143677,0.966064,-3.601074,-7.324219,2.563477
16433,-0.033691,-0.005371,0.974121,-3.662109,-7.080078,2.563477
16443,-0.036743,-0.123047,0.948486,-3.234863,-5.554199,2.380371
16453,-0.107422,0.050659,1.030762,-2.319336,-3.234863,2.441406
16462,-0.013306,0.134277,1.038086,-1.586914,-1.037598,2.868652
16474,-0.029541,-0.255249,0.854614,-1.281738,-2.441406,4.028320
16483,-0.002808,-0.111572,0.905884,-0.793457,-3.417969,4.455566
16493,0.061646,-0.006714,1.011963,-1.464844,-4.638672,5.310059
16502,0.037720,-0.151001,0.942383,-1.342773,-4.943848,5.310059
16513,0.034180,-0.100220,0.970581,-1.098633,-5.126953,4.943848
16523,0.065186,-0.002563,1.027710,-0.671387,-5.676270,5.187988
16532,0.024902,-0.019043,0.977173,-0.061035,-5.798340,5.371094
16544,0.024902,-0.216675,0.948364,0.183105,-4.699707,5.737305
16553,0.047363,-0.037109,1.018921,0.671387,0.732422,6.042480
16563,0.000977,-0.006470,1.072510,1.586914,1.586914,5.310059
16572,0.057007,-0.146729,0.997192,0.976562,-4.760742,5.432129
16583,-0.006714,-0.207397,0.949585,0.671387,-3.112793,6.591797
16593,0.024048,-0.075684,1.013794,0.610352,1.098633,7.202148
16602,-0.004639,-0.037964,1.059570,-0.244141,1.342773,7.507324
16613,-0.014893,-0.153931,0.993408,-1.525879,-3.173828,6.530762
16623,-0.016846,0.006348,1.066895,-1.281738,-2.624512,6.408691
16632,-0.014526,0.019531,1.113281,-1.647949,-2.014160,6.347656
16643,-0.002441,-0.067383,1.103882,-2.014160,-2.868652,6.347656
16652,-0.017822,-0.070923,1.081421,-2.136230,-2.929688,6.713867
16663,-0.022583,-0.097412,1.078857,-1.708984,-0.610352,6.958008
16672,0.037598,-0.170532,1.031982,-1.342773,1.220703,6.958008
16683,0.007568,0.049561,1.064941,-1.708984,2.990723,8.239746
16693,-0.003540,-0.051514,1.008545,-2.563477,-4.882812,7.446289
16703,0.026245,-0.133667,0.909790,-1.037598,-1.342773,6.835937
16712,-0.018311,-0.207031,0.879883,-1.525879,-0.305176,6.774902
16723,0.007568,-0.161743,0.905640,-2.319336,-6.103516,6.042480
16732,0.007446,-0.015991,0.941528,-2.014160,-6.530762,4.760742
16744,-0.036133,-0.145264,0.929199,-1.647949,0.976562,2.929688
16753,-0.013550,-0.121094,0.879150,-2.624512,-1.281738,2.441406
16763,0.007446,-0.015503,0.964478,-2.746582,-5.432129,1.220703
16773,-0.020508,-0.190430,0.931152,-2.563477,-6.103516,-0.366211
16782,0.039917,-0.182373,0.973877,-1.770020,-0.549316,-1.831055
16793,0.054932,0.056030,1.092529,-1.953125,0.915527,-2.319336
16803,0.081055,0.067871,1.151733,-2.197266,-3.112793,-2.746582
16812,0.124146,-0.125977,1.058350,-1.770020,-6.347656,-3.540039
16824,0.110474,-0.064697,0.992920,-0.183105,-1.708984,-4.455566
16834,0.081421,-0.028809,0.971436,0.183105,0.366211,-3.723145
16843,0.125122,-0.137451,0.920776,-0.854492,-3.295898,-2.380371
16852,-0.026245,-0.199219,0.931396,-0.915527,-5.310059,-1.953125
16863,0.011475,-0.032349,1.083984,-0.732422,0.122070,-1.831055
16872,0.050903,-0.056763,1.064941,-1.525879,-4.333496,-2.075195
16884,0.063477,-0.091309,1.101196,-0.732422,-1.464844,-1.770020
16893,0.028809,-0.106934,1.035889,-0.549316,-5.371094,-2.258301
16903,0.056885,-0.171875,1.020142,0.000000,-2.258301,-2.807617
16912,0.022583,-0.206665,1.025024,-1.037598,-3.234863,-2.990723
16923,0.000366,-0.025513,0.974731,-0.854492,-1.159668,-2.746582
16932,-0.009644,0.155884,1.039307,-1.403809,-4.760742,-1.586914
16943,0.030151,0.029053,1.026733,-0.244141,0.671387,-0.122070
16952,-0.039551,-0.192139,0.896118,-1.098633,0.305176,3.234863
16964,-0.087891,0.248657,1.070679,-1.403809,1.159668,8.666992
16974,-0.051025,0.044800,1.045410,-0.427246,0.976562,10.925293
16983,-0.079712,-0.343506,0.858154,-0.610352,2.929688,13.916016
16993,-0.103638,-0.196167,0.879028,-1.098633,-2.075195,15.075684
17002,-0.075195,0.126587,1.098633,-0.061035,2.746582,15.441895
17013,-0.128540,-0.015869,1.044312,0.000000,4.028320,16.723633
17022,-0.086182,-0.274536,0.898560,-0.488281,-1.281738,16.540527
17034,0.001465,0.024048,1.007568,0.732422,1.525879,13.244629
17043,-0.031494,-0.188110,0.995361,-0.061035,0.061035,10.620117
17053,0.023682,-0.140991,0.983154,0.305176,4.028320,9.033203
17063,0.067505,0.019043,1.056519,-0.427246,-0.915527,7.690430
17072,0.079224,-0.151001,0.964600,0.000000,-4.821777,6.042480
17083,0.099365,-0.264526,0.883057,-0.061035,-4.516602,4.638672
17095,0.060181,-0.005981,1.060303,-0.854492,-0.061035,3.723145
17105,0.022827,-0.101807,1.049561,-1.647949,-4.943848,2.563477
17114,0.067261,-0.019409,1.107788,-0.610352,-0.854492,1.220703
17124,0.045898,0.106445,1.144897,-0.793457,-2.380371,1.037598
17133,0.042480,-0.092041,1.088135,-0.183105,-6.591797,-0.366211
17142,-0.002808,-0.244751,1.015869,1.159668,-1.464844,-1.281738
17153,0.077637,-0.105469,1.033325,0.366211,-4.150391,-1.281738
17163,0.082764,0.046265,1.097290,1.159668,-3.295898,-1.708984
17174,0.129028,-0.222168,0.973267,0.549316,-7.080078,-2.075195
17184,0.171631,-0.111328,1.027710,1.342773,-6.408691,-2.929688
17193,0.179810,0.033447,1.031738,1.953125,-2.136230,-2.929688
17202,0.146484,-0.140991,0.983765,1.464844,-1.770020,-2.380371
17213,0.141479,-0.274170,0.959961,0.854492,-2.868652,-2.319336
17222,0.112549,-0.070679,1.014771,0.366211,-4.211426,-2.136230
17234,0.129639,-0.043091,0.996948,-0.183105,-7.385254,-0.976562
17243,0.018799,-0.187988,0.974976,-0.671387,-6.774902,-1.037598
17253,0.050049,-0.087524,1.082031,-0.427246,-4.699707,-1.586914
17263,0.061157,-0.282227,1.018555,0.061035,-6.347656,-2.319336
17272,0.007446,-0.625488,0.990112,0.366211,-5.432129,-3.051758
17283,0.022217,-0.108398,1.018677,-3.662109,-7.751465,-4.516602
17293,0.142456,-0.171387,0.601685,-7.507324,-6.591797,-5.310059
17302,0.033936,-0.651001,-0.473511,-9.094238,-6.713867,-5.920410
17314,0.063232,-0.293213,0.343384,-19.409180,-12.268066,-6.164551
17324,-0.061890,0.002808,0.089478,-26.306152,-12.207031,-8.972168
17333,-0.072388,0.622925,0.313232,-30.517578,-7.385254,-11.230469
17343,-0.119385,0.762939,0.526855,-32.409668,-6.774902,-11.352539
17352,-0.063477,0.576904,0.572144,-33.630371,-6.164551,-11.474609
17363,-0.069580,0.621460,0.692993,-34.851074,-6.652832,-14.099121
17372,-0.040283,0.698608,0.814087,-37.780762,-7.019043,-15.808105
17384,0.003540,1.014282,1.205811,-41.137695,-7.995605,-17.272949
17393,0.078491,0.701782,1.070801,-36.437988,-6.042480,-15.319824
17403,0.154785,0.540894,1.499390,-32.897949,-9.460449,-12.207031
17413,0.067993,0.430786,1.944702,-29.479980,-3.662109,-9.582520
17424,0.074097,0.884766,2.663818,-28.015137,-4.028320,-8.056641
17433,-0.062744,0.485596,1.796265,-23.803711,-6.347656,-5.432129
17443,0.008667,0.286621,1.085938,-14.831543,-0.244141,-4.211426
17454,-0.140869,0.091431,1.826660,-3.540039,-5.249023,-4.638672
17464,-0.206055,-0.096558,1.436279,-2.685547,-1.647949,-6.042480
17473,-0.315430,0.062622,0.498779,-3.540039,-3.540039,-7.019043
17483,-0.214722,0.679199,0.273804,-3.051758,1.159668,-7.263184
17492,-0.095459,0.907837,0.797241,-1.647949,-0.061035,-7.019043
17503,-0.235840,0.350098,1.076904,-1.159668,-1.159668,-6.164551
17513,-0.047363,0.184448,1.154663,-3.051758,3.845215,-7.385254
17522,0.036499,0.614136,0.942871,-5.371094,-0.915527,-7.080078
17533,0.080078,1.203979,0.900146,-2.502441,2.319336,-5.737305
17542,0.071411,0.571045,0.954468,3.906250,4.455566,-5.065918
17553,0.172974,0.191406,0.999756,5.065918,0.671387,-4.699707
17562,0.314941,0.550903,1.040405,-0.671387,1.953125,-4.516602
17573,0.263916,1.284058,1.031860,-9.094238,-2.441406,-3.295898
17582,0.075684,1.650391,1.180664,-11.779785,1.831055,-1.037598
17594,0.116821,0.752563,0.964844,-8.850098,13.977051,3.967285
17603,0.265381,0.685059,1.384277,-1.464844,0.610352,4.028320
17612,0.079956,0.865234,1.656128,-4.272461,-2.014160,3.845215
17623,-0.030762,0.855225,1.223267,-7.507324,-2.807617,4.699707
17632,-0.103394,0.693481,0.580688,-6.591797,-1.708984,5.310059
17643,0.017212,0.667114,0.663452,-3.906250,1.220703,4.272461
17652,0.043335,0.575439,1.202637,-1.708984,2.258301,2.685547
17664,-0.019043,0.307861,1.043823,-2.868652,-0.305176,-0.732422
17673,0.023560,0.500977,0.664673,-3.417969,-1.953125,-1.831055
17683,0.078369,0.742676,0.720337,-3.051758,-2.380371,-1.892090
17692,-0.053711,0.642090,1.008301,-2.563477,-4.089355,-1.892090
17703,-0.073120,0.428955,1.224487,-3.906250,-6.958008,-2.685547
17713,-0.055298,0.379883,1.025024,-6.225586,-7.263184,-3.845215
17722,-0.005493,0.716675,0.815918,-8.422852,-6.958008,-5.798340
17732,-0.045044,1.125122,0.923706,-7.751465,-5.737305,-5.920410
17743,-0.119141,0.730957,1.110352,-5.981445,-6.225586,-5.432129
17752,-0.058594,0.701538,1.021606,-7.324219,-5.981445,-5.554199
17763,-0.047852,0.993164,0.939087,-8.972168,-4.455566,-5.615234
17773,-0.093628,1.078857,0.895020,-9.155273,-2.014160,-5.554199
17782,-0.134155,0.812866,0.875122,-7.507324,-1.281738,-5.432129
17795,-0.047119,0.551514,1.067871,-9.582520,0.061035,-3.417969
17805,-0.066406,0.692139,1.068359,-12.023926,-0.488281,-2.014160
17814,-0.127441,0.767822,0.964966,-14.038086,-2.258301,0.122070
17824,-0.156372,0.766479,0.879761,-14.404297,-1.525879,2.136230
17833,-0.171875,0.726929,0.895264,-13.977051,0.183105,3.601074
17843,-0.187744,0.744141,1.026733,-14.099121,1.403809,3.906250
17853,-0.169678,0.794678,1.113770,-13.854980,7.995605,4.028320
17862,-0.131592,0.827148,0.986450,-13.671875,9.765625,3.845215
17874,-0.049072,0.593506,0.898804,-12.268066,3.662109,5.249023
17883,-0.028442,0.704468,1.034546,-11.840820,8.850098,6.896973
17893,-0.002686,0.590698,1.020508,-11.047363,8.911133,8.422852
17902,-0.007935,0.409912,1.038452,-10.314941,6.652832,10.559082
17913,-0.002075,0.400635,1.058350,-8.300781,12.756348,11.474609
17923,-0.006470,0.260498,0.987183,-5.798340,14.221191,11.840820
17935,0.050171,0.321167,0.935181,-3.784180,6.958008,10.559082
17945,0.032104,0.234741,0.854492,-3.051758,2.929688,10.070801
17954,0.053345,0.249146,0.871460,-1.159668,2.075195,9.277344
17964,0.067139,0.312744,0.939331,0.793457,1.953125,9.094238
17973,0.109009,0.341309,0.965332,2.746582,1.403809,8.850098
17983,0.121826,0.393066,0.945068,5.554199,0.976562,7.690430
17993,0.118042,0.413208,0.913208,9.521484,2.380371,6.469727
18005,0.054687,0.523193,0.837280,16.723633,4.882812,4.211426
18015,0.029419,0.575562,0.798828,18.737793,3.051758,4.028320
18024,0.028564,0.592041,0.747803,20.935059,0.183105,3.784180
18033,0.026367,0.663208,0.774780,23.864746,-2.441406,3.112793
18043,0.044556,0.725464,0.825073,27.587891,-1.647949,3.051758
18053,0.063965,0.749146,0.854126,31.188965,-0.122070,3.967285
18063,0.067139,0.722900,0.852661,34.362793,0.732422,5.187988
18075,0.033325,-0.581421,0.916138,42.419434,6.347656,5.249023
18084,0.077881,-2.542725,1.718628,39.733887,5.310059,3.723145
18094,-0.021362,-2.096802,2.859863,19.592285,2.807617,1.159668
18103,-0.279785,-0.331055,3.016357,0.976562,-3.784180,-0.732422
18113,0.015137,-0.336792,0.184448,4.028320,-2.258301,-1.647949
18123,0.518921,0.248535,0.151245,15.747070,3.051758,-2.197266
18133,0.504272,-0.519653,0.806641,25.817871,3.417969,-3.112793
18143,0.120483,-1.004272,0.967773,7.507324,-2.624512,-2.746582
18154,-0.075073,0.220337,0.745239,5.920410,-1.037598,-5.432129
18164,0.117676,0.327759,0.825073,3.234863,-0.427246,-5.004883
18174,0.135254,-0.354248,1.391235,4.333496,-2.868652,-0.549316
18183,0.044434,-0.631226,1.987793,6.591797,-1.831055,3.479004
18193,-0.159058,-0.157104,1.911255,5.859375,0.854492,6.774902
18204,-0.226562,0.064575,1.466309,7.141113,3.784180,6.835937
18213,-0.225098,0.001587,1.107056,9.277344,-1.708984,-1.708984
18223,-0.247559,0.248047,0.933838,8.544922,-4.699707,-3.112793
18233,-0.419067,0.256836,1.026978,8.666992,-2.868652,-3.234863
18243,-0.356934,0.240479,0.978394,8.117676,-2.563477,-2.136230
18253,-0.207642,0.038940,0.865723,9.643555,0.366211,-0.488281
18263,-0.061523,-0.300293,0.716309,13.244629,7.019043,0.915527
18273,0.052856,-0.298706,0.945679,15.258789,6.652832,2.319336
18285,0.158203,-0.675293,0.776733,16.479492,1.586914,0.793457
18294,0.230225,-0.615356,0.622681,14.282227,1.831055,-1.586914
18304,0.253418,-0.310303,0.540649,10.742188,-1.037598,-4.089355
18314,0.200317,0.039185,0.453369,7.080078,-1.953125,-5.004883
18323,0.191406,0.196045,0.421509,3.906250,-2.258301,-3.051758
18333,0.180908,0.115112,0.552490,2.319336,-2.441406,-0.244141
18344,0.171143,-0.079834,0.772339,2.136230,-2.441406,2.197266
18353,0.129028,-0.283813,0.917725,2.685547,-0.366211,3.906250
18363,0.123047,-0.448364,0.843628,3.234863,3.479004,4.272461
18373,0.040649,-0.424561,0.858643,1.770020,1.892090,4.211426
18383,0.001709,-0.259521,0.821777,0.244141,-4.699707,2.624512
18393,-0.020264,-0.217285,0.825439,0.061035,-7.202148,1.281738
18403,-0.030762,-0.277344,0.883423,-0.244141,-6.896973,0.305176
18413,-0.054321,-0.190552,0.981567,-1.708984,-5.554199,0.549316
18423,-0.059204,0.002808,0.858398,-2.197266,1.953125,2.014160
18434,-0.051636,-0.098877,0.941528,-1.098633,0.183105,2.136230
18444,-0.024536,-0.122070,1.101929,-2.258301,-0.671387,3.662109
18453,-0.022339,-0.094971,1.127197,-1.586914,0.183105,3.112793
18463,0.029297,-0.078491,1.065674,-1.831055,-2.075195,2.502441
18473,0.038574,-0.199463,1.057739,-2.014160,-2.014160,2.319336
18483,0.040039,-0.293823,1.099487,-1.647949,-3.601074,1.892090
18495,0.050415,-0.206665,0.971191,-1.892090,-1.770020,2.807617
18505,0.025024,-0.116455,0.952026,-2.441406,-0.793457,3.540039
18514,-0.009277,-0.071533,0.939819,-2.685547,0.061035,3.906250
18524,-0.046265,-0.072754,0.935791,-2.929688,-0.061035,4.150391
18533,-0.113892,-0.110596,0.976562,-3.112793,0.488281,4.211426
18543,-0.148071,-0.129639,1.009888,-3.356934,0.366211,3.723145
18553,-0.169800,-0.125244,0.996826,-3.234863,0.183105,3.967285
18563,-0.158813,-0.131714,0.962280,-3.173828,-0.427246,5.859375
18574,-0.109985,-0.054077,0.928223,-2.929688,3.479004,7.568359
18584,-0.096313,-0.035156,0.935791,-3.295898,1.770020,8.483887
18593,-0.062866,-0.030029,0.966919,-2.990723,6.347656,9.643555
18603,-0.020508,-0.039185,0.983643,-2.990723,3.662109,9.338379
18613,0.003296,-0.080444,0.982056,-3.173828,3.906250,9.582520
18623,0.046631,-0.116577,0.960205,-2.197266,6.225586,8.544922
18635,0.113647,-0.188721,0.863770,-2.929688,1.831055,6.896973
18645,0.136108,-0.188843,0.854858,-3.662109,1.831055,6.225586
18654,0.122192,-0.165161,0.923462,-3.173828,5.737305,4.821777
18663,0.121460,-0.183350,0.992187,-3.356934,2.014160,3.295898
18673,0.123169,-0.198364,1.027954,-4.333496,-0.427246,2.380371
18684,0.103394,-0.176636,1.033325,-3.845215,2.868652,0.671387
18693,0.074707,-0.132690,1.003906,-3.479004,2.563477,-1.098633
18705,0.041870,-0.053223,0.994263,-3.356934,1.892090,-2.624512
18714,0.032349,-0.035034,1.018555,-4.699707,-4.150391,-2.990723
18724,0.022949,-0.039429,1.045288,-5.004883,-2.868652,-2.929688
18733,0.030151,-0.050903,1.050049,-4.394531,-1.953125,-3.601074
18743,0.040527,-0.071289,1.020020,-4.089355,-1.281738,-3.540039
18754,0.046143,-0.091309,1.007202,-3.967285,-1.892090,-3.784180
18763,0.035767,-0.089966,1.023560,-3.234863,0.244141,-4.272461
18773,0.028687,-0.090210,1.043579,-3.540039,-6.225586,-4.760742
18784,0.007813,-0.051758,1.049316,-4.272461,-2.685547,-4.455566
18794,-0.010986,-0.014404,1.048828,-3.234863,-0.793457,-5.065918
18804,-0.005981,0.010620,1.055786,-3.662109,-5.798340,-4.760742
18813,0.002197,0.020386,1.064331,-3.295898,-2.746582,-4.089355
18823,-0.000854,0.014648,1.056152,-3.295898,-2.319336,-3.784180
18833,-0.016724,-0.001465,1.036255,-2.136230,1.159668,-3.479004
18843,-0.018066,-0.015137,1.012817,-2.136230,-4.882812,-2.502441
18855,-0.016113,-0.023682,0.998413,-2.441406,-6.042480,-1.159668
18864,-0.018677,-0.031616,1.000610,-2.014160,-2.258301,0.366211
18874,-0.024658,-0.041504,1.004028,-1.586914,1.708984,1.586914
18884,-0.026123,-0.052612,1.002808,-0.976562,0.671387,2.075195
18893,-0.018799,-0.057251,0.999146,-1.525879,-4.150391,3.234863
18903,-0.008301,-0.056152,0.999512,-1.770020,-2.075195,4.699707
18913,-0.008057,-0.051514,0.988525,-0.610352,3.967285,5.676270
18924,-0.036499,-0.049927,0.984863,-0.488281,0.061035,5.432129
18934,-0.045044,-0.065674,0.967896,-1.220703,-3.906250,6.042480
18944,-0.047607,-0.089966,0.963867,-1.464844,-3.967285,6.591797
18953,-0.042480,-0.040894,0.972534,-1.770020,-3.234863,7.324219
18963,-0.020508,0.040405,1.007446,-1.708984,0.244141,7.995605
18973,0.001221,-0.011353,0.982300,-0.915527,3.295898,8.178711
18983,0.010864,-0.026367,0.944458,-1.098633,-1.464844,7.568359
18994,0.028320,0.029419,0.982666,-0.732422,2.136230,8.056641
19003,0.023315,0.001465,1.015991,-0.305176,0.305176,7.568359
19014,-0.012817,0.001587,1.000732,-0.610352,2.136230,7.934570
19023,-0.009521,0.003296,0.998901,-0.427246,0.976562,7.507324
19033,-0.010132,0.004761,1.019653,-0.244141,2.258301,7.568359
19043,-0.007935,-0.027100,1.022827,0.061035,1.953125,7.324219
19053,0.033813,-0.056641,0.998413,0.366211,2.380371,5.920410
19064,0.081421,-0.116333,1.011475,-0.427246,-0.305176,5.249023
19074,0.069458,-0.144043,1.014160,0.366211,1.281738,3.417969
19083,0.012695,-0.215576,1.018433,-0.305176,-2.502441,2.502441
19094,0.005493,-0.190308,0.991455,0.244141,1.892090,2.685547
19103,-0.010620,-0.175903,1.019897,-0.549316,-1.831055,2.258301
19113,-0.037842,-0.189453,0.974121,-0.244141,2.319336,2.502441
19125,-0.093506,-0.214355,0.967773,-0.732422,0.915527,2.441406
