timestamp,accX,accY,accZ,gyrX,gyrY,gyrZ
11,-0.097778,-0.076416,1.123535,0.854492,-3.662109,-19.836426
21,-0.043701,-0.110718,1.046143,1.647949,-3.173828,-21.240234
31,0.027588,-0.207886,0.855347,2.136230,-2.868652,-22.155762
40,0.017212,-0.169067,0.913574,1.647949,-3.234863,-21.606445
52,0.015625,-0.080322,0.967773,1.403809,-3.356934,-19.531250
61,-0.057251,-0.183716,1.010498,1.586914,-2.563477,-16.723633
71,-0.001587,-0.105713,1.084595,1.831055,-1.220703,-13.000488
81,0.019287,-0.139771,0.973389,2.197266,0.183105,-9.460449
91,0.010010,-0.143555,1.044189,2.502441,0.427246,-7.995605
101,-0.017456,-0.124756,1.047607,2.502441,0.122070,-7.385254
112,-0.065186,-0.105713,1.061279,2.990723,-0.671387,-8.239746
122,-0.070068,-0.344727,0.954712,3.540039,-1.159668,-8.850098
132,-0.043457,-0.185669,0.912354,1.953125,-0.610352,-9.155273
141,-0.041870,-0.178467,0.940918,0.976562,-0.305176,-8.178711
151,-0.027344,-0.130371,1.020630,-0.305176,0.305176,-6.958008
161,-0.021484,-0.023804,0.992798,-0.671387,0.854492,-5.554199
172,-0.061523,0.024536,1.057495,-0.183105,1.953125,-0.549316
182,-0.004517,-0.072510,1.014771,-0.732422,1.953125,0.671387
192,-0.076050,-0.104492,0.934326,-1.464844,1.892090,2.197266
202,-0.067749,-0.042603,0.985718,-1.708984,2.075195,4.272461
211,-0.100586,-0.060547,0.926392,-1.342773,1.892090,5.798340
222,-0.075073,-0.129639,0.941406,-1.403809,1.892090,7.690430
231,-0.040283,-0.187744,0.980835,-1.892090,2.075195,9.887695
241,-0.026489,-0.091064,0.951538,-2.380371,1.953125,12.023926
252,-0.059814,-0.086914,1.036865,-2.441406,1.647949,15.014648
262,-0.083496,-0.059448,1.120605,-1.770020,1.281738,15.319824
271,-0.129028,-0.149048,1.054321,-0.549316,0.671387,14.221191
281,-0.142944,-0.163696,1.041138,0.549316,0.610352,12.451172
291,-0.065430,-0.324463,0.945190,1.281738,0.183105,10.375977
302,-0.079956,-0.195068,0.861206,0.793457,-1.037598,7.263184
311,-0.130127,-0.222046,0.897583,0.305176,-2.258301,3.417969
323,-0.082397,-0.189209,1.010864,0.671387,-2.136230,2.441406
332,-0.067139,-0.184448,1.000977,0.854492,-1.953125,2.380371
342,-0.103760,-0.195557,0.954346,1.098633,-2.258301,1.098633
351,-0.105591,-0.336060,0.847046,0.976562,-2.563477,0.061035
361,-0.099976,-0.205566,0.926025,0.427246,-2.624512,-0.671387
371,-0.112183,-0.230957,0.989380,-0.122070,-2.563477,-1.831055
381,-0.152832,-0.056641,1.096802,0.061035,-2.136230,-2.624512
392,-0.057617,-0.352539,0.966064,0.793457,-1.403809,-2.990723
402,-0.029053,-0.260010,0.878662,0.976562,-2.014160,-3.906250
411,-0.065308,-0.281128,0.879150,0.122070,-2.685547,-4.516602
421,-0.128052,-0.151367,0.998291,-0.793457,-2.197266,-4.211426
432,-0.114868,0.053711,1.231567,-0.915527,-1.464844,-4.028320
441,-0.108887,-0.078857,1.167480,0.305176,-0.732422,-3.967285
451,-0.081909,-0.210571,1.101563,1.464844,-0.183105,-4.516602
463,-0.026489,-0.172729,0.914917,-0.244141,-2.136230,-8.178711
472,-0.093872,0.061401,0.996704,-1.159668,-2.807617,-10.437012
482,-0.149780,-0.032471,0.939697,-0.610352,-2.258301,-12.023926
491,-0.088867,-0.006348,0.977661,-0.305176,-1.342773,-13.549805
501,-0.054443,-0.159546,0.854126,-0.488281,-1.464844,-15.197754
511,-0.124878,-0.184326,0.776733,-1.403809,-1.647949,-17.211914
521,-0.153931,-0.026733,0.865723,-2.990723,-1.831055,-18.432617
532,-0.150269,0.091064,1.026855,-3.479004,0.854492,-18.432617
542,-0.154541,-0.031616,0.954468,-1.586914,1.647949,-19.348145
551,-0.118164,-0.027710,1.051025,-0.976562,2.502441,-20.202637
561,-0.060547,-0.185181,0.936523,-0.976562,2.807617,-21.850586
571,-0.023926,-0.069092,0.925049,-1.342773,2.807617,-23.132324
581,-0.027344,0.022827,1.010010,-1.647949,2.685547,-24.475098
591,-0.073975,-0.134277,0.949097,-0.976562,3.112793,-25.268555
602,-0.022339,-0.201538,1.122559,0.061035,4.882812,-25.695801
612,-0.082397,-0.216675,0.993652,0.122070,5.249023,-26.245117
622,-0.051392,-0.109009,1.080444,0.488281,5.371094,-27.099609
631,-0.097168,-0.286377,0.986328,1.220703,5.920410,-27.526855
641,0.010864,-0.115112,0.984863,1.464844,6.713867,-27.404785
651,0.007935,-0.304077,1.007446,2.075195,6.774902,-26.672363
662,-0.080566,-0.299927,0.845703,1.770020,8.544922,-22.460937
672,0.040039,-0.310669,0.927490,1.525879,9.765625,-19.226074
682,-0.033325,-0.171631,0.973267,1.586914,9.948730,-16.967773
691,-0.080078,-0.244141,1.012085,1.831055,10.253906,-14.892578
701,-0.171631,-0.351563,0.863770,1.586914,10.803223,-12.451172
712,-0.142944,-0.131470,1.100220,0.793457,13.183594,-8.911133
721,-0.096436,-0.117676,1.133545,0.305176,15.136719,-6.103516
734,-0.184448,0.068115,1.156006,1.586914,15.563965,-1.525879
743,-0.146851,-0.128784,1.090088,2.746582,15.869141,-1.525879
752,-0.020630,-0.315430,0.932251,2.563477,15.869141,-2.258301
762,0.097900,-0.126343,0.986816,2.014160,15.625000,-3.356934
771,0.066162,-0.073608,0.968018,0.976562,14.648438,-4.943848
781,0.056396,-0.098877,0.923340,0.305176,13.671875,-5.371094
791,0.084839,-0.088745,0.950073,-0.122070,13.671875,-4.455566
801,0.054077,-0.126343,0.981079,-0.183105,13.549805,-2.624512
812,-0.065796,-0.212524,1.007324,-0.122070,14.770508,3.417969
822,-0.049438,-0.064453,1.031738,-0.061035,15.747070,6.713867
832,-0.096313,-0.080933,1.046387,0.610352,16.357422,8.972168
841,-0.143311,-0.224976,1.005371,1.831055,16.052246,9.826660
852,-0.146973,-0.266968,0.926636,2.746582,15.625000,10.009766
861,-0.088623,-0.316528,0.920776,2.929688,15.563965,10.009766
874,-0.038574,-0.239380,0.939453,2.502441,15.197754,9.948730
883,0.049194,-0.316162,0.846680,2.136230,14.831543,10.437012
892,0.016113,-0.475586,0.798706,1.831055,14.465332,11.047363
902,0.037476,-0.297241,0.903320,1.220703,14.526367,11.535645
911,0.053833,-0.206543,0.958862,0.366211,13.977051,11.840820
921,0.053101,-0.288696,0.947876,-0.244141,13.427734,12.084961
932,0.012573,-0.165894,1.128296,-0.671387,12.390137,11.718750
941,-0.032471,-0.248413,1.029053,-0.244141,11.230469,10.681152
953,-0.032227,-0.259521,0.872314,-0.549316,10.681152,10.070801
962,-0.010864,-0.201050,1.018311,-1.098633,10.192871,9.826660
972,0.051514,-0.193481,1.075439,-1.647949,9.826660,9.399414
981,0.092041,-0.188477,1.064331,-1.098633,9.216309,9.033203
992,0.117432,-0.262329,1.063843,-0.427246,8.544922,8.666992
1001,0.167480,-0.314209,0.988525,0.000000,7.385254,8.178711
1014,0.139771,-0.113403,1.071533,-0.488281,5.859375,8.178711
1023,0.152832,-0.008179,1.112061,-0.610352,5.432129,8.972168
1033,0.134766,-0.013672,0.997925,-0.671387,5.371094,10.131836
1042,0.101196,-0.152832,0.932861,-0.915527,4.516602,11.352539
1052,0.084473,-0.261475,0.919434,-1.525879,3.845215,12.451172
1061,0.079956,-0.089478,0.981079,-2.258301,2.929688,13.610840
1072,0.010742,0.110107,1.038330,-2.746582,2.441406,15.136719
1081,-0.024536,0.076050,1.044189,-2.746582,2.380371,17.333984
1093,-0.098389,-0.074463,1.063599,-2.075195,2.380371,17.639160
1102,-0.168091,-0.013550,1.045410,-1.647949,1.708984,17.028809
1112,-0.122925,-0.025391,1.035522,-1.403809,2.075195,17.395020
1122,-0.090332,-0.220581,1.002197,-0.732422,2.319336,18.127441
1131,-0.063354,-0.317261,0.945679,-0.305176,2.258301,19.165039
1141,-0.086548,-0.114380,0.925537,-0.488281,2.075195,20.202637
1154,-0.029419,-0.059082,1.029785,-0.732422,1.586914,22.277832
1163,-0.011841,-0.087158,1.007568,-0.549316,1.037598,22.521973
1173,0.005371,-0.174316,0.995117,0.244141,0.671387,22.583008
1183,-0.003052,-0.098145,0.990967,0.854492,0.244141,22.949219
1192,0.035034,-0.048096,0.977417,0.976562,-0.305176,22.827148
1201,0.014038,-0.113892,0.945068,0.061035,-1.159668,22.705078
1212,-0.005615,-0.247314,0.959473,-1.037598,-1.831055,22.216797
1222,0.035767,-0.148071,0.973389,-2.197266,-3.234863,21.179199
1232,0.004639,0.073853,0.980835,-1.953125,-3.601074,20.202637
1242,0.024170,-0.105957,0.937378,-1.892090,-4.211426,18.371582
1252,0.045898,-0.186890,0.974487,-2.075195,-5.493164,16.235352
1261,0.041504,-0.091675,1.018921,-2.014160,-6.713867,13.244629
1272,0.031006,-0.166748,0.976685,-1.892090,-7.873535,9.826660
1281,0.047607,-0.283203,0.935913,-1.525879,-8.605957,6.652832
1294,0.096191,-0.061157,1.066040,-2.563477,-11.047363,-0.488281
1304,0.184814,-0.217651,1.075317,-1.892090,-12.207031,-3.662109
1313,0.225708,-0.375122,0.962891,-1.098633,-13.427734,-6.896973
1323,0.212646,-0.382935,0.954346,-1.037598,-14.465332,-9.887695
1333,0.261230,-0.214844,1.008301,-1.159668,-15.197754,-12.451172
1342,0.255005,-0.085327,1.124512,-1.037598,-15.991211,-14.587402
1352,0.276001,-0.137451,1.116821,-0.366211,-16.967773,-16.784668
1361,0.180664,-0.322632,0.998779,1.037598,-17.578125,-19.775391
1373,0.141602,-0.386597,0.840698,1.647949,-17.211914,-20.385742
1383,0.116455,-0.403320,0.716797,0.610352,-17.150879,-20.446777
1392,0.015137,-0.478516,0.623169,-1.220703,-17.028809,-20.141602
1402,-0.020386,-0.400269,0.630127,-3.723145,-15.930176,-19.531250
1412,-0.062988,-0.189575,0.807495,-5.798340,-14.221191,-18.676758
1422,-0.135376,-0.094727,1.044678,-6.713867,-13.244629,-18.432617
1431,-0.126709,-0.037964,1.235962,-6.103516,-12.145996,-21.118164
1443,-0.135376,-0.203857,1.022339,-3.906250,-11.901855,-23.193359
1453,-0.115845,-0.142334,0.974976,-4.211426,-11.413574,-23.864746
1463,-0.073120,0.015381,1.046387,-5.004883,-10.192871,-22.888184
1472,-0.145142,-0.004517,1.030396,-4.882812,-8.117676,-20.812988
1482,-0.104980,-0.156006,0.896973,-4.211426,-6.408691,-17.395020
1491,-0.079224,-0.287720,0.873535,-4.028320,-4.028320,-13.549805
1501,-0.095947,-0.159912,0.911621,-4.577637,-1.220703,-8.361816
1511,-0.167847,0.026367,1.157349,-4.333496,-0.793457,-7.812500
1522,-0.189453,-0.003906,1.080322,-3.112793,-0.488281,-8.666992
1532,-0.201172,-0.121460,0.925537,-2.441406,-1.037598,-10.131836
1542,-0.187866,-0.169556,0.880737,-2.685547,-1.098633,-11.413574
1552,-0.149658,-0.135376,0.929077,-3.417969,-0.488281,-11.657715
1562,-0.159180,-0.031006,0.962524,-3.601074,0.366211,-12.023926
1573,-0.044800,0.019287,0.977417,-3.112793,1.159668,-12.512207
1583,0.011841,-0.118042,0.985840,-1.708984,2.441406,-13.000488
1592,0.027344,-0.219604,1.003662,-1.770020,2.807617,-13.610840
1602,0.043945,-0.198486,1.022827,-2.136230,2.868652,-14.587402
1611,0.038330,-0.214111,1.010864,-2.197266,2.685547,-15.380859
1622,0.062012,-0.270752,1.006104,-1.892090,2.929688,-16.174316
1632,0.010864,-0.186401,0.976318,-2.441406,2.990723,-17.211914
1641,-0.025635,-0.182251,1.042114,-2.746582,3.051758,-18.371582
1653,0.042358,-0.076294,0.989380,-2.258301,3.234863,-18.371582
1663,0.093018,-0.020752,0.987183,-1.037598,3.540039,-18.249512
1672,0.046021,-0.121338,1.017822,0.793457,3.601074,-17.944336
1682,0.052002,-0.106567,0.970947,1.953125,3.845215,-17.333984
1692,0.007202,-0.163818,0.986572,2.990723,4.333496,-16.113281
1702,-0.061523,-0.130859,1.030029,3.479004,5.187988,-14.282227
1711,-0.086182,-0.071655,1.094238,3.479004,7.995605,-9.643555
1723,-0.177490,-0.042969,1.044678,3.112793,9.643555,-7.995605
1733,-0.229248,0.026489,1.025024,3.356934,10.314941,-7.385254
1743,-0.214355,0.084717,0.994995,3.723145,10.803223,-7.202148
1752,-0.175659,0.032959,0.983643,4.455566,11.596680,-6.774902
1762,-0.176270,-0.097046,0.952026,5.004883,12.329102,-5.859375
1773,-0.140747,-0.190430,0.885132,3.723145,13.854980,-2.014160
1783,-0.068848,-0.227051,0.985596,2.746582,14.770508,0.915527
1793,-0.065308,-0.129517,0.987915,2.197266,15.075684,2.868652
1802,-0.037109,-0.232056,0.883789,2.380371,16.052246,4.882812
1812,-0.056152,-0.245239,0.895874,2.380371,16.723633,7.141113
1822,-0.042725,-0.222046,0.980713,1.831055,16.784668,8.850098
1832,0.064941,-0.172363,1.076538,1.281738,16.967773,10.253906
1843,0.039307,-0.258911,1.094604,2.380371,15.014648,12.451172
1853,0.032715,-0.380127,0.880737,2.868652,14.892578,13.061523
1863,0.104370,-0.489380,0.745972,2.624512,14.526367,13.916016
1873,0.141357,-0.140137,1.288330,0.671387,13.488770,14.343262
1882,0.201050,-0.498535,0.716675,1.098633,11.718750,14.648438
1892,0.044678,-0.413696,0.667969,0.793457,10.803223,15.441895
1902,-0.024658,-0.447876,0.679932,-0.122070,10.375977,16.052246
1912,0.004517,-0.661621,0.468750,-1.281738,9.094238,14.709473
1923,0.081909,0.106201,1.242920,-4.882812,6.835937,11.535645
1933,0.105957,0.006958,1.256836,-4.455566,5.615234,9.216309
1942,0.139282,-0.297852,1.049561,-1.586914,4.821777,7.080078
1952,0.078369,-0.498047,0.958618,-0.854492,4.089355,5.249023
1962,0.189697,-0.383301,0.901367,-2.502441,3.234863,3.662109
1972,0.262695,-0.108032,0.918945,-4.699707,2.258301,3.479004
1984,0.256958,-0.011108,0.998047,-5.554199,-0.183105,4.089355
1993,0.106079,-0.047363,1.041870,-4.821777,-0.244141,4.577637
2002,-0.006470,-0.058105,1.120850,-4.760742,0.244141,5.126953
2012,-0.032471,-0.017944,1.101807,-5.249023,0.671387,5.371094
2022,-0.038818,0.055664,1.055298,-6.408691,1.525879,6.225586
2032,-0.037598,0.092651,1.055420,-6.774902,1.647949,6.652832
2043,-0.054565,0.036011,1.026001,-6.042480,0.976562,6.530762
2052,-0.096313,-0.041016,0.984741,-4.943848,0.549316,7.019043
2062,-0.044434,-0.087036,0.987183,-4.272461,0.549316,8.483887
2072,0.001465,-0.094727,1.009888,-3.723145,0.915527,9.338379
2082,-0.003540,-0.186401,0.903198,-2.685547,0.732422,10.253906
2092,0.010986,-0.279297,0.795044,-2.380371,0.976562,10.864258
2102,0.036621,-0.227417,0.875000,-2.868652,0.854492,11.291504
2112,0.052002,-0.114136,0.968506,-3.234863,0.000000,11.230469
2122,0.040161,-0.001343,0.999146,-3.356934,-1.342773,10.131836
2133,0.067017,0.071045,0.884033,-2.502441,-2.685547,9.338379
2143,0.104980,0.032227,1.008179,-2.075195,-2.868652,9.033203
2153,0.056763,-0.161621,1.043213,-0.122070,-3.295898,8.850098
2162,0.081055,0.094116,0.987915,-0.366211,-3.723145,8.239746
2172,0.019775,-0.042847,0.961060,0.793457,-3.295898,8.117676
2182,0.005981,-0.251221,0.861206,2.502441,-3.662109,7.507324
2192,-0.049316,-0.193237,0.850708,2.441406,-4.699707,6.103516
2203,-0.030396,-0.134033,0.926758,1.831055,-5.981445,2.319336
2213,-0.010254,-0.178223,0.901367,1.403809,-6.347656,0.122070
2222,-0.013062,-0.154175,0.847656,0.732422,-7.080078,-1.831055
2232,-0.004639,-0.147339,0.851074,0.549316,-7.385254,-3.723145
2242,0.022339,-0.145508,0.884033,0.732422,-7.446289,-4.577637
2253,0.011597,-0.180176,0.947144,1.098633,-6.896973,-4.821777
2262,0.014038,-0.201538,0.956543,1.281738,-6.774902,-5.432129
2274,0.027344,-0.162842,0.971313,0.488281,-6.286621,-5.432129
2283,0.008545,-0.156860,0.968994,0.793457,-6.713867,-5.981445
2293,0.008057,-0.250977,0.949585,1.098633,-6.347656,-6.225586
2302,0.023560,-0.316284,0.904541,1.037598,-5.737305,-6.042480
2312,0.049316,-0.204712,0.969849,0.366211,-5.676270,-5.920410
2323,0.081421,-0.085449,1.099976,-0.427246,-5.676270,-5.920410
2332,0.020508,-0.016113,1.131592,-1.159668,-5.126953,-6.774902
2342,-0.041992,-0.126709,1.084839,-0.122070,-4.699707,-7.385254
2352,-0.070190,-0.123535,1.080688,-0.061035,-4.333496,-8.239746
2362,-0.060059,-0.104370,1.124512,0.183105,-4.028320,-9.216309
2372,-0.060547,-0.119019,1.088623,0.488281,-3.967285,-9.887695
2382,-0.046753,-0.067017,1.017944,0.366211,-3.356934,-9.704590
2392,-0.072510,-0.057251,1.018433,0.305176,-2.868652,-9.399414
2404,0.000366,-0.127441,1.046021,0.671387,-2.014160,-9.033203
2413,-0.021484,-0.119873,0.955566,0.305176,-1.708984,-8.911133
2422,0.026611,-0.069946,1.001953,-0.183105,-1.037598,-9.033203
2432,0.017822,-0.050903,1.010986,-0.244141,-0.854492,-8.666992
2442,-0.037476,-0.029907,0.948486,-0.488281,-1.220703,-8.972168
2452,0.024780,-0.035522,0.912964,0.000000,-0.976562,-8.422852
2462,0.044067,-0.098022,0.941284,0.244141,-0.610352,-7.751465
2474,0.033203,-0.124878,0.921143,-0.244141,0.305176,-6.469727
2483,-0.021851,-0.092041,0.899780,-0.610352,0.915527,-5.432129
2493,-0.006836,-0.132935,0.870728,-0.793457,1.037598,-4.821777
2502,-0.072144,-0.102661,0.886719,-0.976562,1.342773,-4.333496
2512,-0.110474,-0.076050,0.913574,-1.281738,1.770020,-4.455566
2522,-0.138916,-0.049561,0.924927,-1.220703,1.953125,-4.943848
2532,-0.128418,-0.086426,0.895630,-0.732422,1.953125,-5.371094
2544,-0.140381,-0.109253,0.885376,-0.854492,3.417969,-4.943848
2553,-0.067627,0.028931,0.942261,-1.281738,4.394531,-4.394531
2563,-0.061768,-0.039673,0.918701,-1.464844,4.760742,-4.150391
2573,-0.043579,-0.081543,0.869263,-1.647949,5.371094,-3.906250
2582,-0.055054,-0.023437,0.930664,-2.319336,5.676270,-3.417969
2593,-0.003784,-0.014038,1.028198,-2.624512,5.920410,-2.929688
2602,-0.029297,0.008911,1.145752,-2.502441,6.408691,-2.563477
2612,0.015747,-0.055298,1.114502,-2.197266,6.286621,-1.342773
2624,-0.001221,-0.105103,1.024170,-1.708984,6.896973,-0.366211
2634,0.013306,-0.061035,1.015259,-1.770020,7.019043,0.671387
2643,-0.035278,-0.155884,1.041870,-1.281738,6.958008,1.953125
2653,-0.042358,-0.080811,0.978516,-1.708984,7.263184,3.417969
2662,-0.015991,-0.116455,0.947021,-2.014160,7.812500,4.638672
2673,-0.010010,-0.101074,0.959106,-2.624512,8.239746,5.920410
2682,0.008179,-0.120361,1.031616,-2.990723,7.995605,6.530762
2693,0.000122,-0.150635,1.025879,-3.295898,7.080078,6.958008
2703,-0.065063,-0.114746,0.973755,-4.272461,6.347656,6.164551
2713,0.005981,-0.061035,1.037964,-4.699707,5.798340,5.615234
2722,-0.029419,-0.058472,1.048340,-4.638672,5.920410,5.554199
2732,0.002319,-0.165527,1.115356,-4.333496,5.676270,5.432129
2742,-0.001465,-0.078613,1.088501,-4.211426,5.676270,5.126953
2752,-0.005005,-0.170044,1.040649,-3.784180,5.920410,5.493164
2762,0.012695,-0.214111,0.942993,-3.540039,5.981445,6.225586
2772,0.054077,-0.151733,0.878174,-4.028320,5.920410,6.958008
2782,0.117188,-0.096191,0.963501,-4.394531,5.187988,7.446289
2792,0.081299,-0.015381,1.029663,-4.150391,4.272461,7.873535
2802,0.078125,0.044556,1.054810,-3.295898,4.272461,8.300781
2812,0.011963,-0.119873,1.046265,-1.586914,3.967285,8.300781
2822,-0.017822,-0.171021,0.992065,-0.305176,3.417969,8.056641
2833,-0.027100,-0.108887,1.024536,0.183105,2.746582,8.666992
2843,0.039185,0.004150,1.093506,0.183105,2.502441,9.094238
2852,0.031982,-0.045166,1.076294,1.281738,2.746582,10.009766
2863,-0.010986,-0.202515,0.995728,2.014160,2.807617,11.169434
2872,-0.007446,-0.255249,0.956909,2.014160,3.051758,11.718750
2882,-0.037354,-0.137939,0.932007,1.281738,2.868652,11.779785
2893,-0.030273,-0.030273,1.046387,0.000000,1.586914,11.047363
2903,-0.006714,0.008301,1.015747,-0.061035,1.220703,10.620117
2912,-0.034546,-0.018555,1.029053,0.488281,0.976562,10.375977
2922,-0.027100,-0.088501,1.106812,0.976562,1.098633,10.253906
2932,-0.054687,-0.089478,1.099121,0.915527,1.098633,10.192871
2943,-0.060669,-0.044189,1.102051,0.732422,1.159668,9.826660
2952,-0.053955,0.083862,1.220459,0.793457,1.159668,9.826660
2965,-0.019043,-0.212769,1.086182,4.150391,0.427246,10.070801
2974,0.015991,-0.371826,0.932251,5.310059,0.366211,10.437012
2984,0.084717,-0.422729,0.899902,5.004883,0.244141,10.437012
2993,0.110840,-0.274292,0.836304,2.807617,-0.366211,9.826660
3002,0.118652,-0.054443,0.841431,0.854492,-1.342773,9.338379
3013,0.120239,0.014038,0.828247,0.305176,-2.319336,9.277344
3022,0.110596,0.006348,0.785034,0.488281,-3.051758,8.972168
3033,0.144043,-0.144775,0.884277,0.610352,-3.967285,8.483887
3043,0.152100,-0.090088,0.998291,0.244141,-5.187988,7.690430
3052,0.132202,-0.131470,1.008301,0.244141,-6.286621,6.408691
3062,0.180908,-0.107788,0.965210,0.488281,-7.324219,5.126953
3072,0.128906,-0.160767,1.001953,0.549316,-8.300781,4.272461
3082,0.126099,-0.241455,0.965942,0.549316,-8.850098,3.295898
3092,0.062744,-0.218872,0.862671,-0.427246,-9.338379,2.563477
3103,0.001831,-0.294434,0.858154,-2.258301,-9.155273,0.976562
3113,-0.000854,-0.083984,0.984253,-3.234863,-9.277344,-0.122070
3122,-0.054443,-0.071411,1.063965,-3.051758,-9.765625,-1.647949
3132,-0.045776,-0.237671,1.073730,-1.892090,-9.948730,-3.234863
3142,-0.051392,-0.221680,0.998169,-1.220703,-9.887695,-4.394531
3152,-0.048706,-0.220093,1.075195,-1.342773,-9.338379,-5.371094
3162,-0.019653,-0.139771,1.062744,-1.403809,-8.911133,-6.164551
3175,0.020996,-0.175293,1.000854,-1.464844,-8.239746,-6.958008
3184,0.072266,-0.167358,1.085083,-2.258301,-8.117676,-7.019043
3194,0.046509,-0.096436,1.083862,-2.929688,-7.934570,-7.141113
3203,0.017578,-0.156006,1.032104,-3.112793,-7.812500,-7.507324
3213,-0.058350,-0.121094,0.932007,-3.723145,-7.507324,-7.751465
3223,-0.033447,-0.097046,1.022583,-3.967285,-7.080078,-7.629395
3232,-0.054199,0.047729,1.063843,-4.211426,-6.713867,-7.751465
3242,-0.016968,-0.028076,1.050171,-3.234863,-6.408691,-7.507324
3252,-0.014526,-0.200073,0.996582,-1.220703,-5.920410,-7.202148
3262,-0.015259,-0.306519,0.940552,-1.281738,-5.187988,-7.080078
3273,0.005737,-0.164429,0.958374,-2.136230,-4.821777,-6.896973
3283,0.007202,-0.136841,0.934204,-2.502441,-4.638672,-7.263184
3292,-0.035156,-0.127075,0.851318,-3.051758,-4.699707,-7.507324
3303,-0.004639,-0.132080,0.764771,-3.234863,-4.699707,-7.934570
3313,-0.011230,-0.065674,0.765381,-3.967285,-4.516602,-8.972168
3322,-0.002075,-0.022949,0.890625,-3.845215,-4.516602,-9.277344
3332,-0.016479,-0.029297,1.062988,-3.051758,-4.516602,-9.399414
3342,0.000732,-0.066772,1.018066,-2.319336,-3.784180,-9.277344
3352,0.011963,-0.080322,0.984253,-1.464844,-2.990723,-8.605957
3363,0.030762,-0.118774,1.053223,-0.915527,-2.197266,-8.056641
3372,0.045898,-0.101929,1.041748,-0.671387,-1.892090,-8.239746
3382,-0.008301,-0.143921,0.936157,-0.183105,-2.258301,-8.422852
3392,0.005981,-0.190796,0.857910,-0.854492,-2.319336,-9.399414
3402,0.000488,-0.096558,1.014648,-1.831055,-2.075195,-10.192871
3412,-0.012207,-0.007324,1.081299,-2.380371,-1.464844,-10.314941
3422,-0.062988,-0.047974,1.042603,-2.136230,-0.854492,-10.375977
3433,-0.077271,-0.107666,1.043701,-2.075195,-0.427246,-10.375977
3442,-0.030884,-0.068970,1.047119,-2.136230,0.061035,-9.826660
3452,-0.045654,-0.109131,1.036865,-1.953125,0.366211,-8.117676
3462,-0.048706,-0.133789,0.985962,-2.441406,1.525879,-7.324219
3473,-0.015259,-0.038330,1.013916,-3.112793,2.502441,-6.225586
3482,-0.066650,-0.029663,0.985229,-3.234863,3.051758,-5.432129
3492,-0.099731,-0.128052,0.933716,-2.929688,3.356934,-4.943848
3503,-0.056641,-0.169189,0.953491,-2.563477,3.784180,-4.150391
3512,0.042847,-0.093750,0.993896,-2.929688,4.211426,-2.868652
3522,0.010132,-0.126343,1.050293,-3.234863,4.150391,-2.075195
3534,0.047607,-0.086060,0.914917,-3.112793,3.601074,-1.220703
3543,0.012573,-0.141479,0.912964,-2.929688,3.723145,-0.915527
3553,0.016113,-0.134399,0.986694,-2.746582,3.601074,-0.732422
3562,0.063599,-0.015137,0.998413,-2.807617,3.051758,-0.854492
3572,-0.018677,-0.116943,1.040283,-1.831055,2.746582,-0.915527
3583,-0.026611,-0.239990,1.042480,-1.098633,2.624512,-0.915527
3592,0.126953,-0.196289,0.980225,-0.854492,3.112793,-0.244141
3602,-0.023437,-0.239136,1.079956,-1.098633,2.868652,-0.366211
3613,0.057129,-0.136230,0.951294,-1.647949,2.502441,-0.488281
3623,-0.002930,-0.176147,0.978149,-1.342773,2.868652,0.122070
3632,0.004639,-0.058838,0.988037,-1.708984,2.441406,-0.244141
3642,0.029907,-0.049927,0.958496,-1.403809,2.197266,-0.366211
3652,-0.055664,-0.252197,0.945435,-0.610352,2.319336,0.244141
3662,-0.025269,-0.192871,0.891357,-0.671387,2.319336,0.610352
3674,-0.016602,-0.136597,0.986450,-1.342773,2.868652,2.014160
3683,0.017212,-0.127930,0.939209,-1.586914,2.258301,2.197266
3693,0.022827,-0.008301,0.953125,-2.014160,2.075195,2.502441
3702,-0.051025,0.014771,1.102295,-2.319336,2.624512,3.356934
3712,-0.041992,-0.028442,1.195679,-2.136230,2.990723,3.479004
3722,-0.061523,0.050781,1.125488,-1.647949,2.929688,3.601074
3732,-0.134033,-0.106812,1.096680,-0.305176,3.173828,4.028320
3743,-0.068604,-0.092285,1.093384,0.610352,3.723145,4.882812
3753,-0.012085,-0.026611,1.015625,0.488281,3.662109,5.310059
3762,-0.002441,-0.112915,1.042358,0.549316,3.479004,5.859375
3772,0.072998,-0.151611,0.956177,0.366211,3.540039,6.286621
3782,0.031738,-0.086304,0.955933,-0.488281,3.234863,6.408691
3793,0.006592,-0.116943,0.969360,-0.854492,2.990723,6.225586
3802,-0.017090,-0.138062,1.041138,-1.220703,2.441406,4.882812
3814,-0.027832,-0.026001,1.053345,-2.502441,2.197266,4.577637
3824,0.013184,0.013062,1.027100,-2.258301,1.831055,4.272461
3833,-0.004639,-0.005737,1.010254,-1.647949,1.770020,4.028320
3842,0.041870,-0.089722,0.997681,-1.342773,1.525879,3.906250
3853,0.072754,-0.106323,1.005981,-1.342773,1.037598,3.356934
3862,0.089722,-0.055542,0.978760,-1.464844,0.854492,3.417969
3874,0.057251,-0.057129,0.919800,-2.258301,-0.305176,2.746582
3883,0.114258,-0.046265,0.906006,-2.441406,-0.793457,2.380371
3892,0.113403,0.042236,0.905518,-2.136230,-1.770020,1.770020
3903,0.103882,-0.101074,0.902100,-1.403809,-1.953125,1.525879
3912,0.106079,-0.144775,0.884399,-1.708984,-2.258301,1.098633
3923,0.096069,-0.028320,0.930908,-2.014160,-2.441406,0.366211
3932,0.088867,-0.048462,0.994873,-1.708984,-3.173828,-0.244141
3942,0.070435,-0.082397,0.911621,-1.281738,-3.601074,-1.220703
3954,0.043945,-0.195190,1.025391,-0.732422,-4.394531,-2.990723
3963,0.027466,-0.128540,1.046265,-1.342773,-4.577637,-3.845215
3973,-0.037598,-0.239014,1.001221,-1.403809,-4.821777,-4.638672
3983,-0.054932,-0.248901,0.911987,-1.770020,-4.577637,-5.249023
3992,-0.016602,-0.125244,1.020020,-2.563477,-3.784180,-5.493164
4002,-0.091309,-0.152100,1.123901,-2.502441,-3.417969,-5.737305
4015,-0.086182,-0.196411,0.995483,-1.953125,-3.173828,-5.981445
4025,-0.089478,-0.211304,0.965576,-1.953125,-2.685547,-5.554199
4035,0.019165,-0.161255,1.058838,-2.441406,-1.342773,-5.126953
4044,-0.008057,-0.085083,1.116455,-3.051758,-0.671387,-4.211426
4054,0.015015,-0.087402,1.031738,-2.868652,-0.427246,-3.723145
4064,0.004517,-0.169189,0.981323,-2.746582,-0.427246,-3.112793
4074,0.005981,-0.029053,0.996948,-3.051758,0.061035,-2.014160
4083,-0.014771,-0.090942,1.044312,-2.929688,-0.305176,-1.953125
4093,-0.008179,-0.077881,1.046143,-2.929688,-0.732422,-2.197266
4103,-0.055298,-0.110840,1.020996,-2.563477,-0.854492,-1.953125
4112,-0.009521,-0.112305,0.970581,-2.502441,-0.732422,-1.953125
4122,-0.030518,-0.151489,0.918945,-2.258301,-0.183105,-1.708984
4133,-0.027954,-0.154419,0.914673,-2.014160,0.122070,-1.770020
4143,-0.031250,-0.131714,0.896362,-2.197266,-0.244141,-2.014160
4152,0.031982,-0.062378,0.983765,-2.319336,-0.305176,-2.563477
4164,0.015503,-0.064575,1.014282,-0.488281,-0.732422,-3.479004
4173,0.033447,-0.087769,1.060547,0.549316,-0.244141,-3.662109
4183,0.010132,-0.102051,1.079712,0.671387,-0.061035,-4.272461
4192,0.026367,-0.135986,1.023193,0.976562,-0.854492,-5.249023
4202,0.009155,-0.225464,0.901855,1.220703,-1.037598,-6.042480
4213,-0.004395,-0.219116,0.824585,1.098633,-1.159668,-6.286621
4222,0.069946,-0.120239,0.920166,0.122070,-0.854492,-6.530762
4234,0.045532,-0.025391,1.024414,-1.098633,0.122070,-5.798340
4243,0.022949,-0.086426,0.976562,-1.281738,0.366211,-5.554199
4253,-0.013550,-0.093628,1.002930,-0.976562,0.183105,-5.371094
4262,-0.006592,0.023315,1.151855,-0.732422,-0.244141,-5.249023
4272,0.006348,0.015747,1.254395,0.427246,-0.610352,-5.004883
4283,0.058716,-0.113281,1.193481,1.647949,-0.732422,-4.150391
4293,0.013306,-0.143311,1.037354,2.136230,0.244141,-1.586914
4302,0.066406,-0.117798,0.936401,1.647949,0.549316,-0.244141
4313,0.026733,-0.148926,0.851074,0.793457,0.671387,0.793457
4322,0.019897,-0.094482,0.878906,-0.549316,0.427246,1.525879
4333,0.006226,-0.019775,0.920898,-2.075195,-0.061035,1.770020
4342,-0.081299,0.067139,0.947510,-3.112793,-0.427246,1.586914
4353,-0.034058,0.064819,1.035278,-3.479004,0.122070,2.075195
4363,-0.087891,0.062378,1.079590,-2.685547,0.854492,2.624512
4372,-0.115723,0.025513,1.110474,-1.953125,0.976562,2.380371
4383,-0.104248,-0.092773,1.148926,-1.098633,1.647949,2.380371
4393,-0.034790,-0.113159,1.192627,-0.427246,1.892090,1.708984
4402,-0.035156,-0.133057,1.175659,0.183105,1.892090,0.976562
4412,-0.057495,-0.210327,1.021118,0.793457,1.525879,0.488281
4422,-0.019409,-0.275879,0.915894,0.915527,1.525879,0.427246
4432,-0.011108,-0.263062,0.890137,0.061035,1.892090,0.244141
4443,0.069702,-0.148682,1.033813,-1.586914,1.220703,0.305176
4453,0.036011,-0.135620,0.978027,-1.220703,0.793457,0.366211
4462,0.012573,-0.105225,1.032959,-0.366211,1.037598,0.549316
4472,0.007690,-0.090698,1.058105,0.244141,1.159668,0.610352
4482,-0.007568,-0.178955,0.983032,0.732422,1.098633,0.732422
4492,-0.030762,-0.154175,0.962524,0.427246,0.793457,0.549316
4505,-0.020264,-0.016113,1.003784,-0.915527,1.159668,0.549316
4514,-0.058472,-0.007813,0.972656,-1.220703,1.281738,0.427246
4524,-0.054443,-0.047729,0.958130,-1.281738,1.281738,0.305176
4534,-0.038452,-0.035156,0.995972,-1.525879,1.220703,0.244141
4543,-0.003052,-0.024536,1.069580,-2.136230,1.464844,0.244141
4552,0.025513,-0.036255,1.039673,-1.953125,1.159668,0.000000
4562,-0.008301,-0.039307,1.011597,-1.464844,1.159668,-0.122070
4575,0.025269,-0.208374,0.830200,-0.610352,1.220703,-0.610352
4584,0.018311,-0.156616,0.774170,-0.976562,0.915527,-0.915527
4594,0.016968,-0.096558,0.818237,-1.708984,0.610352,-1.525879
4603,0.033325,-0.133301,0.859985,-2.502441,0.244141,-1.831055
4613,0.012085,-0.097290,0.900391,-3.234863,0.122070,-2.136230
4623,-0.017944,-0.038208,0.965576,-3.845215,0.366211,-2.075195
4632,-0.020508,-0.062378,0.996216,-4.028320,0.427246,-1.831055
4645,-0.024414,-0.122681,0.963013,-4.150391,0.793457,-0.976562
4654,-0.009521,-0.092896,0.938110,-4.516602,1.403809,-0.610352
4664,0.016113,0.010986,0.976440,-5.249023,1.220703,-0.183105
4673,-0.026855,0.020752,0.969116,-5.126953,1.159668,-0.122070
4683,0.013550,-0.005493,0.982178,-4.516602,0.976562,-0.427246
4693,0.006348,-0.061279,0.995972,-4.089355,0.976562,-0.854492
4702,0.034302,-0.094604,1.072388,-3.601074,0.732422,-1.525879
4714,0.023193,-0.066650,1.120728,-2.746582,0.305176,-2.319336
4723,0.036987,-0.150024,1.017334,-2.014160,0.244141,-2.868652
4732,0.028442,-0.132568,1.002319,-2.136230,0.122070,-2.929688
4742,0.017822,-0.130859,0.990601,-2.258301,0.122070,-3.234863
4753,0.019775,-0.137939,0.987427,-2.319336,-0.122070,-3.540039
4762,0.000732,-0.177856,0.950684,-2.502441,0.244141,-2.990723
4772,0.023193,-0.146240,0.969482,-3.173828,0.671387,-2.563477
4783,-0.026855,-0.080322,0.960937,-4.028320,0.366211,-1.953125
4793,-0.010254,-0.173462,0.897827,-4.150391,0.671387,-1.586914
4802,-0.015869,-0.104736,0.954590,-4.516602,1.037598,-1.098633
4812,-0.003906,-0.024658,1.069702,-4.699707,1.098633,-0.244141
4823,-0.020752,-0.027222,1.098755,-4.333496,1.464844,0.488281
4832,-0.066284,-0.032349,1.090454,-3.784180,1.647949,1.037598
4842,-0.060059,-0.029175,1.122192,-2.807617,2.075195,1.159668
4855,-0.049805,-0.157471,1.002441,-0.061035,2.624512,1.220703
4864,-0.047485,-0.185669,0.915894,0.976562,2.685547,0.915527
4874,0.006592,-0.219360,0.920654,1.647949,2.563477,1.159668
4883,-0.013428,-0.241577,0.923096,1.342773,2.380371,1.525879
4893,0.073730,-0.211548,0.958496,0.610352,2.197266,1.647949
4902,0.002808,-0.054810,0.987915,0.000000,1.953125,1.708984
4912,0.018066,-0.026123,1.016724,-0.305176,1.831055,1.647949
4922,-0.027710,-0.029907,1.008789,-0.244141,1.831055,2.014160
4934,-0.102173,-0.103882,0.905884,0.732422,2.136230,2.685547
4943,-0.055176,-0.113281,0.940796,0.854492,2.319336,3.051758
4953,-0.000488,-0.088989,0.977661,0.305176,2.380371,3.051758
4963,-0.036743,-0.040405,1.003418,-0.610352,2.258301,2.990723
4972,-0.001099,-0.053345,1.006714,-0.732422,2.319336,2.929688
4983,-0.037964,-0.103882,1.013916,-0.671387,2.441406,3.173828
4992,0.015991,-0.027222,1.143555,-0.366211,2.258301,2.075195
5002,0.001709,-0.010986,1.207642,0.000000,1.586914,1.220703
5013,-0.007446,-0.108521,1.071899,0.671387,1.220703,0.244141
5023,0.071777,-0.074463,1.060913,0.793457,1.220703,-0.610352
5032,0.058838,-0.077759,1.045288,0.854492,1.464844,-1.037598
5043,0.063354,-0.099854,0.990967,1.403809,1.342773,-1.281738
5052,0.081055,-0.140869,0.986450,1.647949,1.220703,-1.342773
5063,0.057983,-0.124512,1.002808,1.281738,1.159668,-1.281738
5073,0.063354,-0.109863,1.047974,0.854492,0.793457,-1.586914
5082,0.036011,-0.103882,0.993164,0.732422,0.183105,-2.136230
5092,0.045776,-0.124634,0.955078,0.427246,0.122070,-2.258301
5103,0.037720,-0.064087,0.946777,-0.427246,0.000000,-2.563477
5112,0.007080,0.041870,1.005005,-0.976562,0.183105,-2.868652
5123,-0.005859,0.065063,0.990356,-0.854492,0.244141,-3.234863
5132,-0.032959,-0.019287,0.964600,0.122070,0.732422,-3.967285
5142,-0.006592,-0.086426,0.938965,0.610352,0.732422,-3.723145
5153,0.036133,-0.078735,0.970703,0.610352,0.427246,-3.784180
5162,0.040039,-0.089600,0.966187,0.305176,0.305176,-3.662109
5173,0.054443,-0.098145,1.020020,0.061035,0.549316,-3.234863
5182,0.001831,-0.023682,1.046143,0.183105,0.793457,-2.746582
5192,-0.000122,-0.015869,1.135986,0.793457,1.159668,-2.258301
5205,-0.035156,-0.200928,0.985352,2.075195,1.281738,-1.770020
5214,-0.003296,-0.156494,0.969116,2.014160,1.342773,-2.014160
5224,-0.013306,-0.187622,0.919067,1.770020,1.464844,-1.586914
5233,0.016846,-0.203247,0.864624,1.586914,1.464844,-1.525879
5243,-0.013184,-0.238770,0.837402,1.342773,1.586914,-1.525879
5253,0.027100,-0.269409,0.829712,0.488281,1.708984,-1.220703
5262,0.001831,-0.155029,0.926270,-0.732422,1.892090,-1.464844
5275,0.034912,-0.026367,1.138672,-1.892090,1.525879,-1.159668
5284,0.030762,-0.046509,1.113892,-1.770020,2.014160,-0.488281
5293,-0.006470,-0.043457,1.102783,-1.464844,2.441406,0.183105
5303,-0.048340,-0.001343,1.083862,-0.976562,2.319336,0.244141
5312,-0.026855,-0.098389,1.058716,-0.061035,2.502441,0.427246
5323,-0.000488,-0.100830,1.034912,-0.061035,2.624512,0.610352
5332,-0.020264,-0.066772,1.069824,-0.305176,2.746582,1.037598
5345,-0.030884,-0.037231,1.055176,-0.976562,3.173828,1.586914
5354,-0.028442,-0.046753,1.058105,-0.488281,3.234863,1.770020
5364,-0.063599,-0.078247,1.029297,-0.244141,3.356934,2.014160
5374,-0.025513,-0.087891,1.014526,-0.366211,3.112793,2.075195
5383,-0.039307,-0.072632,0.975220,-0.244141,3.173828,2.319336
5392,0.012573,-0.065552,0.946289,-0.122070,3.112793,2.258301
5403,0.006470,-0.073853,0.984253,-0.183105,3.051758,2.990723
5412,0.032837,-0.101685,0.978760,-0.488281,3.540039,3.479004
5424,-0.016724,-0.084839,1.008911,-1.281738,3.967285,4.943848
5433,-0.017212,-0.070435,1.039429,-1.708984,4.333496,5.493164
5443,-0.028442,-0.065308,1.049927,-2.197266,4.394531,5.737305
5452,-0.004395,-0.040283,1.087280,-2.807617,3.967285,5.554199
5463,0.014160,-0.055054,1.047363,-2.624512,3.723145,5.615234
5472,0.028564,-0.063477,1.035156,-2.319336,3.601074,5.615234
5485,0.057495,0.017212,1.183838,-1.647949,3.112793,5.371094
5494,0.052856,-0.026733,1.144531,-0.793457,2.868652,5.126953
5503,0.044678,-0.068970,1.127319,0.061035,2.319336,5.249023
5513,0.049072,-0.095459,1.094116,1.220703,2.258301,5.310059
5522,0.069336,-0.173828,1.035034,1.770020,1.953125,5.004883
5532,0.072632,-0.249634,0.998047,1.953125,1.342773,5.187988
5542,0.048340,-0.241333,0.992187,1.525879,0.488281,5.126953
5553,0.084961,-0.235352,1.005249,0.610352,0.061035,5.432129
5563,0.083984,-0.338989,0.981567,0.183105,0.183105,5.981445
5572,0.016357,-0.495239,0.808105,-0.061035,-0.122070,6.408691
5582,0.035889,-0.530151,0.753784,-1.098633,0.366211,7.080078
5592,0.073853,-0.503052,0.835205,-2.868652,0.244141,6.958008
5602,-0.058350,-0.905640,0.985474,-4.089355,-0.488281,6.713867
5613,0.020264,-0.364014,0.561523,-10.559082,-0.671387,6.652832
5622,0.030884,-1.417480,-0.821777,-28.381348,-0.427246,6.347656
5632,-0.213135,0.022339,0.929199,-26.855469,-1.220703,6.530762
5642,-0.347412,0.091553,-0.229248,-33.508301,-0.305176,4.272461
5652,-0.033813,1.048706,0.785645,-37.048340,2.990723,5.371094
5662,-0.338379,0.694214,1.034302,-30.944824,2.746582,5.493164
5672,-0.273193,0.029663,1.269897,-26.367187,1.281738,3.295898
5682,-0.378784,0.052856,1.295898,-30.456543,1.464844,1.098633
5692,-0.178345,0.872925,1.249878,-37.780762,3.295898,-0.061035
5703,-0.090698,1.187866,0.893433,-34.790039,7.629395,4.150391
5713,-0.154175,0.746338,1.178467,-28.259277,5.310059,3.540039
5722,-0.100830,0.763794,1.921753,-23.620605,2.807617,2.075195
5733,0.050415,1.146362,3.039917,-19.470215,1.831055,2.746582
5742,0.009155,0.551392,1.887329,-13.183594,1.586914,5.859375
5753,0.131470,-0.161987,0.168945,-6.469727,3.967285,8.728027
5762,0.502930,1.061401,1.000366,-6.713867,6.408691,15.197754
5772,0.289795,1.032227,2.149536,-3.234863,0.854492,14.343262
5782,-0.124878,0.301514,0.761108,-2.441406,-0.122070,12.451172
5792,0.336304,0.408325,-0.239014,-2.807617,3.784180,12.695313
5802,0.555054,1.468506,0.730225,-4.211426,6.469727,15.014648
5812,0.068237,1.532593,2.131470,-4.211426,3.662109,16.784668
5823,-0.348389,-0.222656,1.121704,-0.793457,-0.671387,14.587402
5832,0.114380,0.142090,0.244629,-3.601074,-0.305176,7.812500
5842,0.620483,1.560181,0.688965,-12.878418,-2.624512,9.460449
5852,-0.294556,0.817993,1.788574,-6.652832,-6.408691,9.277344
5862,-0.200928,-0.462891,0.790405,-0.061035,-6.958008,5.004883
5872,0.373901,0.424072,0.730957,-3.540039,-4.333496,1.281738
5882,0.520020,1.436646,1.358887,-8.972168,-3.540039,1.831055
5893,0.033691,1.087891,1.442383,-7.141113,-6.103516,3.479004
5902,-0.209473,-0.200073,0.540649,-0.488281,-7.934570,-13.793945
5914,0.457275,0.646729,1.057495,-0.915527,-8.728027,-5.310059
5923,-0.006104,0.993530,1.637573,-5.920410,-11.291504,-5.676270
5933,-0.349365,0.294556,1.042969,-6.103516,-11.291504,-5.187988
5943,-0.160278,0.281860,0.392334,-4.882812,-7.995605,-5.676270
5952,0.056274,0.878296,0.655762,-5.004883,-5.554199,-6.774902
5963,-0.024658,0.927734,1.197876,-5.615234,-6.164551,-6.896973
5973,-0.269165,0.583130,1.406616,-6.225586,-6.469727,-6.713867
5982,-0.264160,0.508179,0.823608,-7.507324,-3.356934,-5.859375
5993,0.147339,1.133179,0.896851,-7.263184,-2.014160,-4.211426
6002,-0.039429,0.897583,1.274414,-5.981445,-3.173828,-3.112793
6013,-0.115601,0.390015,1.088989,-5.004883,-4.150391,-3.295898
6022,0.073730,0.531006,0.932739,-6.225586,-3.479004,-3.784180
6033,0.187012,0.919312,0.980713,-8.178711,-2.807617,-3.295898
6042,0.033691,1.061401,1.110840,-6.530762,-2.746582,-0.122070
6052,-0.104980,0.596069,0.995117,-5.981445,-2.502441,-0.610352
6063,0.049683,0.592163,1.017456,-7.385254,-2.380371,-1.586914
6072,-0.011353,0.841797,1.159424,-9.155273,-2.319336,-1.953125
6083,-0.159424,0.826416,0.979492,-10.253906,-2.075195,-2.014160
6092,-0.135986,0.611206,0.763062,-9.826660,-1.159668,-2.380371
6103,-0.091064,0.717407,0.984741,-9.521484,-0.732422,-3.356934
6112,-0.069702,0.834839,1.161987,-10.253906,-0.549316,-2.624512
6122,-0.117676,0.773315,1.238281,-10.925293,0.244141,-1.770020
6133,-0.103638,0.810547,0.844238,-12.145996,1.525879,-0.061035
6142,-0.069580,0.943604,0.816040,-13.427734,2.868652,2.014160
6152,-0.119873,0.767334,0.961060,-12.451172,3.845215,4.272461
6162,-0.160400,0.547729,1.120850,-13.183594,4.150391,5.310059
6172,-0.117554,0.354248,0.948853,-13.916016,3.967285,5.493164
6182,-0.011108,0.831421,1.073853,-16.845703,4.333496,5.981445
6193,-0.066772,0.708008,0.850952,-16.906738,5.676270,9.277344
6203,-0.037354,0.598022,0.894287,-16.174316,6.164551,10.314941
6212,0.005249,0.740234,0.998413,-17.333984,6.530762,11.047363
6223,0.053955,0.833008,1.016724,-19.470215,6.713867,11.901855
6232,0.049927,0.819946,0.958374,-20.629883,6.958008,12.573242
6242,0.018677,0.721558,0.906250,-20.568848,6.958008,12.939453
6252,0.051880,0.721680,0.924316,-20.629883,6.774902,13.000488
6263,0.041260,0.656494,1.036987,-20.935059,6.408691,11.901855
6272,0.072510,0.525269,0.981445,-19.958496,5.981445,10.864258
6283,0.121094,0.381958,0.945679,-18.737793,6.042480,10.192871
6292,0.131958,0.355835,1.015137,-17.578125,5.920410,9.399414
6302,0.082031,0.368164,1.052246,-16.967773,5.676270,9.094238
6313,0.044434,0.256836,0.988525,-15.747070,5.859375,8.850098
6322,0.026123,0.177612,0.959717,-13.671875,5.615234,7.568359
6333,0.028931,0.207397,1.005493,-10.131836,4.882812,6.591797
6343,0.005493,0.221069,0.948730,-8.361816,3.723145,5.249023
6352,0.012451,0.226318,0.859375,-6.164551,2.746582,4.577637
6363,0.051147,0.267700,0.824097,-3.845215,2.685547,4.333496
6372,0.076050,0.388306,0.860718,-2.319336,2.319336,4.211426
6383,0.044189,0.483887,0.875488,-0.854492,2.624512,5.371094
6392,0.037598,0.521240,0.847900,3.845215,3.356934,7.507324
6404,-0.026367,0.600830,0.853516,6.591797,3.479004,7.873535
6413,-0.059448,0.657837,0.914307,9.338379,3.234863,7.751465
6423,-0.027832,0.658936,0.922119,12.084961,2.929688,7.263184
6432,0.032104,0.612305,0.857544,15.319824,2.380371,7.141113
6442,0.084839,0.603027,0.801025,17.883301,2.014160,7.446289
6453,0.139160,0.546997,0.799927,19.836426,2.014160,8.728027
6462,0.469116,0.758179,0.272217,21.728516,3.295898,11.169434
6473,0.400024,0.909424,1.193115,24.597168,2.685547,13.732910
6483,0.301025,0.639526,0.994507,28.869629,-1.159668,10.986328
6492,0.336304,0.596436,0.870728,35.888672,-4.577637,5.493164
6503,0.533203,0.722412,1.210938,41.076660,-6.469727,0.854492
6513,0.417603,0.763794,0.938965,45.898437,-9.460449,-2.380371
6522,0.430908,0.706787,0.780640,51.940918,-11.901855,-5.737305
6535,0.254761,0.857300,0.667480,60.607910,-11.169434,-6.042480
6544,0.206421,0.043335,0.700806,64.819336,-10.864258,-6.164551
6554,-0.072021,-3.999512,1.728516,62.622070,-12.268066,-7.019043
6563,0.199585,-3.820190,3.269409,31.005859,-13.793945,-7.934570
6573,-0.321899,-1.508545,2.682251,-2.136230,-15.808105,-7.202148
6583,-0.968750,-0.047241,1.251953,-8.361816,-17.456055,-7.629395
6592,-0.841919,-0.446167,-0.582153,2.319336,-15.258789,-9.277344
6602,-0.621704,-0.165527,0.081665,17.333984,2.624512,-6.530762
6614,-0.622803,-1.100342,1.236206,12.207031,11.718750,-1.770020
6623,-1.047119,0.003174,0.680298,1.953125,13.671875,-0.915527
6633,-0.605591,0.495605,0.608643,1.586914,10.192871,-9.704590
6642,-0.131836,0.978760,1.036621,2.075195,5.187988,-16.418457
6652,0.093750,0.236328,1.405273,6.469727,1.953125,-16.418457
6662,0.409668,-0.208740,1.786499,10.009766,0.732422,-12.878418
6672,0.389648,0.493408,2.038696,6.469727,1.342773,11.535645
6682,0.299561,0.508301,1.765991,11.901855,0.671387,7.629395
6692,0.711914,0.220215,1.258911,13.061523,0.122070,11.352539
6703,0.640015,0.244873,1.301880,13.916016,0.061035,15.808105
6712,0.323242,0.209473,1.196045,14.709473,-0.549316,16.479492
6723,0.049194,0.092407,0.996582,14.892578,-0.610352,16.418457
6732,-0.278809,-0.095459,0.851440,16.296387,-0.671387,14.648438
6745,-0.354858,-0.384766,0.810303,20.446777,0.976562,8.789063
6754,-0.256348,-0.553589,0.879761,21.789551,4.638672,9.094238
6764,-0.181641,-0.800171,0.721313,21.118164,7.568359,10.009766
6774,-0.115234,-0.723389,0.606689,19.226074,9.399414,11.108398
6783,-0.160522,-0.539429,0.463745,16.601562,10.986328,12.268066
6793,-0.119141,-0.266357,0.373657,12.939453,12.329102,14.404297
6802,0.035034,-0.187256,0.417480,10.375977,14.465332,16.662598
6815,0.099243,-0.288574,0.551392,5.371094,14.831543,17.578125
6824,0.113892,-0.286987,0.655518,2.319336,13.916016,17.578125
6834,0.094238,-0.290894,0.792847,0.671387,12.268066,17.578125
6843,-0.077637,-0.273071,0.921753,0.183105,9.460449,16.540527
6853,-0.229004,-0.422852,0.946533,1.098633,7.141113,14.770508
6863,-0.314453,-0.458130,0.819336,1.281738,4.577637,12.268066
6872,-0.248291,-0.237427,0.781738,-0.122070,3.662109,10.925293
6882,-0.256470,-0.212524,0.777344,-0.793457,4.455566,12.084961
6893,0.009888,-0.171143,0.889038,-2.624512,6.774902,12.939453
6903,0.124756,-0.190674,1.003540,-2.990723,8.178711,15.625000
6912,0.176514,-0.238647,1.084839,-2.929688,8.422852,17.517090
6922,0.257690,-0.193604,1.083008,-3.295898,8.239746,18.554687
6933,0.292847,-0.167603,1.069702,-3.601074,8.178711,19.287109
6942,0.336548,-0.177124,1.057251,-3.417969,7.141113,18.859863
6954,0.199341,-0.204468,0.968994,-4.028320,4.821777,17.517090
6964,0.108521,-0.236328,1.005127,-3.967285,5.187988,16.967773
6973,0.042847,-0.236450,1.015991,-4.394531,5.554199,16.540527
6983,-0.002686,-0.242920,0.996826,-4.943848,5.737305,16.235352
6993,-0.051147,-0.245605,0.954834,-5.187988,6.103516,15.502930
7002,-0.115234,-0.208130,0.908569,-5.249023,6.469727,14.099121
7012,-0.155640,-0.165039,0.861450,-5.798340,7.141113,13.305664
7022,-0.149292,-0.151978,0.837646,-5.981445,7.385254,11.718750
7034,-0.081299,-0.105103,0.880859,-6.591797,7.324219,10.437012
7043,-0.029297,-0.106201,0.906250,-6.652832,7.080078,9.460449
7053,0.032471,-0.104126,0.925415,-6.713867,7.202148,8.789063
7063,0.081787,-0.097412,0.935791,-6.774902,7.324219,8.483887
7072,0.146973,-0.085083,0.966064,-6.408691,7.385254,8.728027
7082,0.225464,-0.081177,0.976074,-6.225586,7.507324,8.789063
7092,0.253296,-0.059692,0.963989,-6.225586,7.141113,7.873535
7103,0.250244,-0.059448,0.990601,-6.286621,5.432129,7.263184
7113,0.237549,-0.049072,1.026489,-6.286621,4.821777,6.713867
7122,0.223511,-0.049927,1.057495,-5.981445,4.516602,6.042480
7132,0.203125,-0.058838,1.082520,-5.798340,4.089355,5.187988
7143,0.192993,-0.060547,1.091431,-5.310059,3.540039,4.089355
7152,0.190186,-0.049316,1.099609,-4.943848,2.807617,2.563477
7165,0.190063,-0.024780,1.096313,-4.394531,1.281738,-1.220703
7174,0.180054,-0.029053,1.084961,-4.150391,0.610352,-3.479004
7184,0.174683,-0.035767,1.093994,-3.601074,0.183105,-5.310059
7193,0.165039,-0.036499,1.098145,-3.356934,-0.610352,-6.530762
7203,0.169556,-0.042480,1.086548,-3.173828,-0.976562,-7.141113
7213,0.178223,-0.040771,1.071045,-2.746582,-1.098633,-7.568359
7223,0.171509,-0.027588,1.042969,-2.258301,-1.342773,-7.507324
7232,0.164185,-0.011841,1.008057,-2.075195,-1.831055,-7.385254
7244,0.097778,0.003662,0.978516,-1.770020,-1.708984,-7.019043
7253,0.085815,0.004883,0.984009,-1.708984,-1.586914,-6.591797
7263,0.066528,-0.007324,0.994995,-1.464844,-1.647949,-6.103516
7273,0.046021,-0.022095,0.996704,-1.098633,-1.586914,-5.126953
7283,0.046875,-0.048462,0.989990,-0.915527,-1.647949,-3.662109
7292,0.055054,-0.062134,0.991333,-0.488281,-1.403809,-2.197266
7305,0.066406,0.003418,0.938843,-0.122070,-1.037598,1.647949
7314,0.049683,-0.097168,0.922119,1.342773,-0.793457,3.356934
7323,0.065796,-0.216064,0.955322,2.197266,-0.671387,4.516602
7333,0.026733,-0.193970,1.000488,1.953125,-0.793457,4.699707
7343,0.024414,-0.131592,1.070557,0.732422,-0.244141,5.981445
7353,0.078857,-0.008667,1.068481,0.122070,0.183105,7.019043
7362,0.122070,0.025635,1.013428,0.427246,0.305176,7.507324
7374,0.110229,-0.039673,0.971436,1.464844,-1.403809,8.911133
7384,0.213989,-0.026978,1.062256,1.220703,-1.037598,10.375977
7393,0.312500,0.023926,1.048950,0.549316,-1.342773,11.352539
7403,0.272827,0.067139,1.060059,-0.122070,-2.563477,10.986328
7412,0.195557,-0.033081,0.954712,-0.305176,-3.234863,10.559082
7423,0.253052,-0.060547,0.931519,-0.427246,-3.417969,8.605957
7432,0.357666,-0.020874,1.025269,-0.793457,-4.699707,5.615234
7445,0.271484,0.010986,1.023315,-1.464844,-7.568359,1.525879
7454,0.322021,0.007080,1.013916,-1.159668,-7.446289,0.915527
7464,0.307007,-0.156006,0.956299,-0.854492,-6.958008,0.488281
7473,0.188599,-0.256714,0.924072,-0.183105,-7.812500,-0.061035
7483,0.088257,-0.279785,0.954102,-0.549316,-8.728027,-1.464844
7492,0.068848,-0.308350,0.987915,-0.915527,-8.544922,-1.708984
7502,0.038574,-0.321411,1.014526,-1.281738,-8.666992,-2.136230
7515,-0.275879,-0.255249,1.016235,-0.366211,-8.789063,-10.375977
7524,-0.262085,-0.395508,1.009277,0.305176,-6.835937,-13.610840
7534,-0.162231,-0.420288,0.973389,0.366211,-6.286621,-18.798828
7544,-0.158691,-0.249634,0.969849,0.061035,-5.920410,-25.390625
7553,-0.057373,-0.303467,1.000854,-0.183105,-7.446289,-25.451660
7563,0.219604,-0.380615,1.021118,-0.549316,-8.117676,-26.306152
7572,0.083252,-0.259888,0.943481,-0.793457,-10.986328,-31.433105
7582,-0.104614,-0.268311,0.862793,-0.854492,-10.986328,-26.550293
7594,0.192749,-0.264771,0.973877,-0.305176,-7.019043,-25.451660
7603,0.090698,-0.309570,1.011230,-0.061035,-7.263184,-24.291992
7613,0.010376,-0.352051,0.984863,0.122070,-8.483887,-23.437500
7623,0.043335,-0.367798,0.971558,-0.061035,-8.117676,-22.155762
7632,0.105347,-0.336304,0.975830,-0.244141,-7.446289,-20.812988
7643,0.091919,-0.295532,0.967163,-0.427246,-7.263184,-20.935059
7652,0.023926,-0.281250,0.945312,-0.549316,-8.056641,-23.071289
7664,-0.064575,-0.323364,0.894287,-0.244141,-7.812500,-23.803711
7673,-0.072510,-0.334473,0.894165,-0.549316,-7.629395,-24.475098
7683,-0.074707,-0.277832,0.944824,-0.854492,-7.202148,-25.146484
7692,-0.079956,-0.243164,0.968750,-1.037598,-7.080078,-25.512695
7702,-0.100586,-0.285645,0.922241,-0.976562,-6.774902,-25.146484
7713,-0.092163,-0.319580,0.869141,-0.793457,-6.286621,-24.353027
7722,-0.096802,-0.338989,0.865112,-1.037598,-4.577637,-23.254395
7732,-0.076660,-0.332886,0.936890,-1.464844,-4.211426,-23.010254
7743,-0.059937,-0.353394,1.029053,-1.708984,-4.089355,-22.460937
7752,-0.079102,-0.363525,1.042725,-1.525879,-3.479004,-21.606445
7763,-0.018799,-0.354980,1.053223,-1.647949,-2.502441,-19.958496
7772,0.000610,-0.338379,1.046997,-1.586914,-1.892090,-17.761230
7782,-0.053467,-0.324707,1.018188,-1.281738,-1.464844,-15.625000
7795,-0.116455,-0.286621,0.979858,-1.342773,-0.305176,-10.437012
7804,-0.120605,-0.250732,0.941895,-1.342773,0.793457,-7.934570
7814,-0.167114,-0.234131,0.907715,-1.281738,1.708984,-5.676270
7824,-0.180176,-0.239746,0.911255,-1.281738,2.563477,-3.173828
7833,-0.143555,-0.193481,0.968750,-1.525879,3.417969,-0.732422
7843,-0.124146,-0.196045,0.987061,-1.708984,4.028320,1.403809
7852,-0.118530,-0.213745,0.984741,-1.708984,4.516602,2.990723
7865,-0.100952,-0.136108,1.021240,-1.647949,5.126953,4.821777
7874,-0.082520,-0.201660,0.944702,-1.098633,5.981445,5.798340
7883,-0.052734,-0.225708,0.974121,-0.976562,7.141113,7.080078
7893,-0.015747,-0.236816,0.995117,-1.159668,7.629395,7.873535
7902,-0.001953,-0.271851,0.954468,-1.342773,7.324219,8.178711
7912,0.010254,-0.205078,0.984253,-2.014160,7.446289,8.361816
7922,0.050659,-0.173462,1.003052,-2.380371,7.751465,8.728027
7932,0.052979,-0.209106,0.953979,-2.136230,7.751465,9.704590
7944,0.088745,-0.200073,1.006348,-1.770020,7.141113,11.047363
7953,0.060913,-0.231812,0.978394,-1.586914,7.263184,13.122559
7962,0.062012,-0.190674,1.007935,-1.770020,7.446289,14.221191
7972,0.087402,-0.187744,0.986938,-1.525879,7.934570,15.991211
7983,0.048584,-0.259521,0.948853,-1.159668,7.751465,17.272949
7992,0.080688,-0.241211,0.987793,-1.464844,6.896973,16.967773
8005,0.072510,-0.274048,0.980225,-2.014160,6.347656,17.150879
8014,0.112061,-0.191895,1.039917,-2.624512,5.676270,16.296387
8024,0.070801,-0.283691,0.979858,-2.258301,5.737305,16.113281
8033,0.074585,-0.254272,0.989746,-2.319336,5.554199,15.258789
8043,0.076416,-0.266968,0.994629,-2.136230,5.310059,14.465332
8052,0.047363,-0.289307,0.996338,-1.953125,4.882812,13.793945
8062,0.078857,-0.259033,1.004150,-2.197266,3.967285,12.145996
8072,0.018066,-0.280762,0.986938,-2.197266,3.601074,9.033203
8083,0.063354,-0.170654,0.991333,-2.441406,2.807617,7.141113
8093,0.047241,-0.187012,1.010010,-2.319336,2.624512,5.859375
8102,0.085449,-0.176758,0.997803,-1.953125,2.014160,3.784180
8113,0.105347,-0.152588,0.997192,-1.953125,1.586914,2.624512
8122,0.124023,-0.140625,1.002930,-2.014160,0.915527,1.525879
8133,0.133423,-0.126465,1.010254,-2.014160,0.366211,0.183105
8142,0.091675,-0.107300,1.017578,-1.831055,15.563965,-1.586914
8154,0.096191,-0.107544,0.992676,-1.892090,0.244141,-2.136230
8163,0.116089,-0.098511,0.958374,-2.075195,0.061035,-2.075195
8172,0.154419,-0.081665,0.971924,-1.953125,-0.427246,-2.380371
8182,0.209717,-0.081421,0.983521,-2.014160,-1.342773,-2.685547
8192,0.261841,-0.119873,0.979492,-1.770020,-2.441406,-2.868652
8203,0.273804,-0.079346,1.017456,-1.892090,-3.356934,-2.502441
8212,0.401611,-0.019897,0.988770,-1.892090,-3.906250,-0.671387
8224,0.276978,-0.110718,0.986816,-1.525879,-4.455566,0.366211
8233,0.317993,-0.065308,1.021606,-1.647949,-5.187988,1.098633
8242,0.251221,-0.132935,1.062622,-1.708984,-6.347656,1.159668
8252,0.162598,-0.126831,1.048828,-1.770020,-7.324219,0.915527
8262,0.150757,-0.134644,0.986206,-1.647949,-7.385254,0.793457
8273,0.099731,-0.156738,0.935669,-1.342773,-7.690430,0.061035
8282,0.076660,-0.129150,0.930786,-1.281738,-9.216309,-1.098633
8292,-0.078003,-0.100220,0.724121,-0.854492,-9.582520,-1.464844
8303,0.080688,-0.339478,1.213501,-0.793457,-8.666992,-1.770020
8312,0.096313,-0.311035,1.152344,-1.342773,-8.056641,-2.319336
8323,-0.192383,-0.075684,0.632812,-2.441406,-8.972168,-4.089355
8332,-0.207397,0.011841,0.873779,-1.770020,-9.094238,-6.347656
8342,-0.128540,-0.162231,0.946777,-0.915527,-7.507324,-7.629395
8355,0.073242,-0.234619,1.077881,-0.976562,-6.347656,-9.521484
8364,0.002686,-0.198975,1.025879,-1.647949,-7.507324,-10.681152
8374,-0.005005,-0.121094,0.995117,-2.014160,-8.728027,-12.145996
8384,0.053833,-0.086182,1.022217,-1.708984,-9.094238,-13.305664
8393,0.224365,-0.103027,1.013428,-1.281738,-8.666992,-14.038086
8403,0.253540,-0.117310,0.947754,-0.793457,-8.911133,-14.892578
8412,0.192993,-0.079834,0.947388,-0.793457,-9.704590,-15.808105
8422,0.172363,-0.035889,0.984375,-1.281738,-10.925293,-17.517090
8433,0.049927,0.025146,1.090576,-0.915527,-12.207031,-19.592285
8443,-0.011475,-0.036499,1.116577,0.183105,-12.634277,-21.423340
8453,-0.040405,-0.129639,1.068848,0.732422,-12.451172,-22.766113
8462,-0.066284,-0.105103,1.039429,0.549316,-11.840820,-24.169922
8472,0.024414,0.029541,0.981079,-0.244141,-10.925293,-25.390625
8482,-0.078613,0.057007,0.942383,-0.061035,-10.803223,-26.000977
8495,0.029541,-0.080078,0.903320,0.244141,-11.230469,-25.878906
8504,-0.025269,-0.016113,1.002686,-1.098633,-11.291504,-24.719238
8514,0.152710,0.064941,1.024780,-1.831055,-10.437012,-22.827148
8524,-0.057129,-0.017700,1.009155,-2.441406,-8.422852,-20.019531
8533,-0.070312,-0.074829,1.149536,-2.319336,-6.713867,-18.005371
8543,-0.073608,-0.239746,1.201904,-0.976562,-5.371094,-17.333984
8553,0.073486,-0.014282,0.966431,-0.305176,-6.042480,-19.104004
8562,0.048828,-0.029053,0.880615,-0.854492,-10.009766,-21.057129
8574,-0.177734,0.043213,0.923096,-3.479004,-11.352539,-22.583008
8584,-0.136353,0.142944,1.064819,-4.394531,-10.253906,-22.644043
8593,-0.000977,0.145142,1.012573,-3.295898,-7.080078,-20.202637
8603,-0.068359,-0.071045,0.922729,-1.342773,-3.540039,-16.174316
8613,-0.137085,-0.218140,0.967773,-0.488281,-2.136230,-14.404297
8622,-0.193604,-0.277588,1.007080,-0.976562,-2.502441,-15.258789
8632,-0.215210,-0.047852,1.129761,-2.136230,-3.295898,-18.798828
8642,-0.129395,-0.076538,1.029785,-0.488281,-4.455566,-20.202637
8653,-0.052368,-0.260376,0.889038,0.244141,-5.187988,-21.789551
8662,0.035889,-0.333252,0.864990,0.244141,-5.249023,-22.338867
8672,0.171997,-0.187134,1.043091,-0.610352,-4.089355,-21.728516
8683,0.225708,-0.169067,1.008423,-0.549316,-3.479004,-20.568848
8692,0.154907,-0.199097,0.998657,-0.793457,-3.967285,-20.324707
8702,0.115723,-0.206909,0.946533,-0.305176,-5.126953,-21.301270
8712,0.011597,-0.231689,0.907837,0.000000,-5.126953,-22.888184
8723,0.003052,-0.236206,1.002563,0.122070,-5.371094,-24.414062
8732,-0.005859,-0.215820,1.059692,-0.061035,-6.103516,-25.878906
8742,-0.007813,-0.184204,0.977051,-0.305176,-6.652832,-27.038574
8752,-0.007813,-0.105225,0.997314,-0.305176,-6.835937,-27.587891
8763,0.022949,-0.104492,0.956055,-0.122070,-6.774902,-27.526855
8772,-0.007080,-0.181152,0.949829,0.244141,-5.615234,-27.221680
8782,0.010620,-0.201172,1.008911,-0.610352,-5.493164,-27.404785
8793,-0.004028,-0.074951,1.025635,-0.854492,-5.493164,-27.648926
8802,-0.086548,-0.144897,0.963379,-0.427246,-5.676270,-28.015137
8812,-0.081299,-0.198120,0.990356,-0.305176,-6.042480,-29.052734
8823,-0.099365,-0.207764,0.978027,-0.244141,-6.042480,-30.212402
8832,-0.065796,-0.068481,1.032715,-0.549316,-6.347656,-31.188965
8842,-0.085449,-0.104614,0.987671,-0.427246,-5.371094,-31.311035
8852,-0.072998,-0.164917,1.032471,-0.122070,-4.943848,-30.761719
8863,-0.042480,-0.069702,1.017090,-0.427246,-4.089355,-29.968262
8873,-0.041748,-0.117798,0.959351,-0.122070,-3.417969,-28.808594
8883,-0.054565,-0.187988,0.998779,0.183105,-3.234863,-27.832031
8893,-0.081665,-0.228760,0.953613,0.061035,-3.234863,-27.343750
8902,-0.058838,-0.116333,1.014282,-0.427246,-3.112793,-26.794434
8912,-0.055664,-0.134521,0.988647,-0.244141,-2.868652,-25.268555
8922,-0.074219,-0.193726,1.008545,0.000000,-2.319336,-24.108887
8933,-0.054810,-0.152344,0.987915,-0.122070,-1.770020,-22.766113
8942,-0.033081,-0.152954,0.962769,0.000000,-1.464844,-20.935059
8952,-0.064331,-0.198975,0.973389,0.305176,-1.770020,-19.226074
8963,-0.095215,-0.214966,0.957275,0.366211,-1.220703,-17.272949
8973,-0.105713,-0.149658,0.963257,0.244141,-0.122070,-14.831543
8982,-0.116943,-0.178467,0.957275,0.854492,1.770020,-9.399414
8992,-0.146851,-0.217041,0.995239,0.671387,2.380371,-7.568359
9003,-0.161377,-0.169067,0.979492,0.732422,2.929688,-5.920410
9012,-0.143799,-0.205811,0.994385,0.915527,3.784180,-4.089355
9023,-0.170288,-0.253906,0.974121,1.098633,3.845215,-2.136230
9032,-0.171143,-0.195679,0.971802,1.037598,4.516602,0.000000
9042,-0.178711,-0.187134,0.968750,0.793457,5.432129,2.197266
9053,-0.192993,-0.217407,0.975464,1.220703,7.141113,7.202148
9062,-0.187500,-0.179077,1.007690,1.342773,7.629395,9.277344
9072,-0.188110,-0.201050,0.992798,1.342773,8.544922,11.352539
9082,-0.212646,-0.206543,1.000732,1.525879,8.911133,12.878418
9093,-0.224365,-0.184692,1.003906,1.464844,9.277344,14.160156
9102,-0.181885,-0.172241,0.979980,1.403809,9.521484,14.892578
9112,-0.160767,-0.202759,0.972412,1.464844,9.521484,15.136719
9122,-0.143433,-0.239136,0.947510,1.342773,9.643555,15.625000
9133,-0.066406,-0.213867,0.929932,0.793457,9.582520,16.174316
9143,-0.052490,-0.235352,0.935547,0.427246,9.582520,16.662598
9152,-0.052368,-0.171387,0.947754,0.061035,9.460449,17.028809
9162,-0.073975,-0.214355,0.959595,-0.305176,9.338379,16.967773
9172,-0.054321,-0.234985,1.003662,-0.671387,9.094238,16.723633
9182,-0.042847,-0.199463,1.017456,-0.549316,9.094238,16.479492
9195,-0.029541,-0.240723,1.016968,-0.305176,8.239746,15.319824
9204,-0.025635,-0.207275,0.979736,-0.122070,8.056641,15.502930
9213,-0.052002,-0.247192,0.944092,-0.366211,7.873535,15.991211
9223,-0.035156,-0.254028,0.961914,-0.305176,8.117676,17.150879
9233,-0.058105,-0.207275,0.945557,-0.732422,8.789063,19.042969
9242,-0.111084,-0.239136,0.933716,-1.098633,9.460449,20.629883
9252,-0.134521,-0.240967,0.967529,-1.159668,10.192871,22.460937
9265,-0.207642,-0.243896,0.962891,-1.037598,11.352539,25.878906
9274,-0.199341,-0.286987,0.953247,-0.976562,11.901855,26.855469
9284,-0.201660,-0.303589,0.953979,-0.976562,12.268066,27.954102
9293,-0.215942,-0.321167,0.937378,-1.342773,12.817383,28.747559
9303,-0.203979,-0.269531,0.944336,-1.708984,13.061523,29.541016
9313,-0.161011,-0.268677,0.983276,-1.770020,13.244629,30.517578
9322,-0.116577,-0.259766,1.016479,-1.770020,13.244629,31.311035
9332,-0.099243,-0.264160,0.988770,-1.708984,13.366699,33.386230
9344,-0.040649,-0.229004,0.978149,-1.220703,13.793945,34.484863
9353,-0.016235,-0.245728,1.006104,-1.098633,13.427734,35.827637
9363,-0.023804,-0.280762,0.974609,-1.098633,13.061523,37.292480
9373,-0.030029,-0.244019,0.937012,-1.464844,12.573242,38.208008
9382,-0.051392,-0.213135,0.903442,-1.525879,12.329102,39.306641
9392,-0.045288,-0.165527,0.927979,-2.075195,12.207031,40.283203
9402,-0.080444,-0.189819,0.954834,-2.441406,11.657715,41.198730
9414,-0.072388,-0.212402,0.989258,-2.746582,11.108398,41.076660
9423,-0.063354,-0.197632,0.965332,-2.929688,11.047363,41.442871
9433,-0.075928,-0.146484,0.980713,-3.051758,11.291504,41.748047
9442,-0.061157,-0.254761,0.926514,-2.990723,11.169434,42.236328
9452,-0.052734,-0.188232,0.935547,-3.540039,10.925293,42.358398
9462,-0.041992,-0.225830,0.963501,-3.845215,10.681152,41.870117
9472,-0.026611,-0.228760,1.046143,-3.967285,9.704590,40.283203
9484,-0.065186,-0.267090,1.063477,-3.479004,8.972168,39.123535
9494,-0.032104,-0.225708,1.046875,-3.051758,9.033203,38.146973
9503,-0.003174,-0.255493,1.018677,-2.868652,8.728027,37.658691
9513,-0.044678,-0.266724,0.989136,-2.685547,8.300781,36.743164
9522,-0.039673,-0.289673,0.989502,-2.380371,7.995605,36.132812
9532,-0.024048,-0.262329,0.998657,-2.441406,7.751465,35.705566
9542,0.046631,-0.288330,1.021240,-2.380371,7.446289,35.888672
9553,0.166748,-0.276001,0.976929,-1.403809,5.310059,35.827637
9563,0.115845,-0.336060,0.940186,-1.159668,4.089355,36.071777
9572,0.121704,-0.357422,0.945068,-1.098633,3.662109,36.621094
9582,0.075806,-0.315063,0.958496,-1.281738,3.906250,38.085937
9592,0.062744,-0.289551,0.984009,-1.342773,4.333496,39.672852
9602,0.052246,-0.274048,0.988892,-1.037598,4.638672,41.198730
9612,0.021362,-0.368408,0.951782,-0.915527,4.272461,42.663574
9623,0.021484,-0.387085,0.921509,-1.281738,2.807617,45.104980
9633,0.046387,-0.414185,0.828125,-1.525879,1.831055,46.569824
9642,0.022461,-0.356689,0.921509,-1.953125,1.281738,47.973633
9652,0.006714,-0.207520,1.083618,-2.441406,0.854492,49.194336
9662,0.017212,-0.311401,1.035156,-1.708984,0.366211,49.377441
9672,0.035767,-0.383911,0.932007,-0.854492,0.305176,49.011230
9681,0.091797,-0.486328,0.881592,-0.671387,0.061035,47.851562
9693,0.015869,-0.343872,0.979736,-1.831055,-2.441406,43.090820
9703,-0.005005,-0.397583,0.855469,-1.159668,-4.638672,39.489746
9712,0.029785,-0.375610,0.916748,-1.464844,-6.225586,35.339355
9722,-0.002930,-0.323242,1.012817,-2.258301,-7.446289,32.104492
9732,-0.008545,-0.209595,1.076416,-2.380371,-8.361816,28.625488
9742,0.020508,-0.197876,1.043457,-1.708984,-8.666992,25.390625
9753,0.015503,-0.302246,0.933350,-0.976562,-8.483887,21.240234
9763,-0.013550,-0.251709,1.016235,-1.159668,-8.789063,18.920898
9773,-0.084961,-0.317871,0.988159,-1.831055,-9.216309,16.357422
9783,-0.057251,-0.119019,1.086060,-2.075195,-8.850098,13.549805
9793,-0.077393,-0.140503,1.073853,-1.953125,-8.789063,10.681152
9803,-0.103394,-0.211426,1.012085,-1.953125,-9.094238,7.446289
9812,-0.126953,-0.132812,1.096924,-1.892090,-9.216309,3.845215
9822,-0.151855,-0.049927,1.109619,-2.014160,-9.033203,-2.197266
9832,-0.166016,-0.133179,1.066284,-2.380371,-7.934570,-4.760742
9842,-0.054321,-0.078491,1.054810,-2.807617,-7.507324,-7.080078
9852,-0.013672,0.008423,1.052002,-2.868652,-7.446289,-9.887695
9862,-0.001343,0.030396,1.078491,-2.990723,-8.178711,-13.793945
9871,0.054321,0.047119,1.086304,-2.441406,-8.483887,-17.272949
9882,0.114624,0.022339,1.050659,-1.770020,-8.300781,-20.263672
9892,0.173828,-0.054687,0.969727,-1.281738,-9.216309,-26.245117
9902,0.226440,0.045532,0.883667,-1.220703,-9.460449,-28.564453
9912,0.135376,0.005493,0.855225,-0.976562,-9.277344,-30.456543
9922,0.107178,-0.012939,0.900879,-0.732422,-8.361816,-31.677246
9932,0.135864,-0.070190,0.906616,-0.366211,-7.751465,-32.409668
9941,0.112671,-0.166260,0.910034,-0.488281,-7.385254,-32.836914
9952,0.156738,-0.139648,0.972534,-0.549316,-7.629395,-33.081055
9962,0.164185,-0.189453,0.956421,-0.366211,-8.300781,-32.531738
9972,0.180298,-0.215210,0.940552,-0.549316,-9.094238,-31.372070
9982,0.144897,-0.213501,0.922119,-1.037598,-8.117676,-29.418945
9992,0.136353,-0.234131,0.960571,-1.403809,-6.530762,-26.733398
10002,0.190552,-0.277344,0.961182,-1.525879,-5.493164,-23.864746
10012,0.197388,-0.275757,1.008179,-1.708984,-5.187988,-21.484375
10022,0.164185,-0.225708,1.080688,-1.892090,-5.859375,-19.409180
10032,0.104492,-0.284424,1.064087,-2.258301,-6.469727,-15.930176
10041,0.077026,-0.331177,1.059326,-2.746582,-6.530762,-14.648438
10052,-0.130371,-0.365845,0.933960,-2.380371,-5.798340,-13.366699
10062,-0.187744,-0.406982,0.881470,-1.892090,-3.967285,-12.207031
10072,-0.211060,-0.489502,0.862549,-1.464844,-2.624512,-11.535645
10082,-0.190674,-0.482300,0.978760,-1.403809,-1.831055,-11.474609
10091,-0.213257,-0.521118,0.963135,-1.342773,-1.098633,-12.145996
10101,-0.214966,-0.513916,0.961304,-1.525879,-0.610352,-13.366699
10111,-0.205078,-0.420166,1.040405,0.122070,-0.061035,-16.296387
10122,-0.251953,-0.506592,1.047852,0.793457,0.610352,-17.822266
10132,-0.198120,-0.540894,0.957520,0.976562,2.197266,-18.310547
10142,-0.146118,-0.488159,0.921509,0.915527,3.479004,-17.944336
10152,-0.068359,-0.318726,0.946045,1.525879,4.272461,-17.639160
10162,-0.092163,-0.505005,0.825439,2.746582,5.126953,-16.113281
10172,0.007202,-0.421997,0.968384,2.868652,7.629395,-10.375977
10181,0.036011,-0.282715,0.954590,3.356934,7.873535,-7.141113
10192,0.061157,-0.378174,0.886963,3.356934,8.422852,-3.906250
10202,0.101685,-0.273315,0.973755,3.112793,8.728027,-0.061035
10212,0.133301,-0.311646,0.936401,2.746582,8.972168,3.662109
10221,0.176147,-0.279175,0.929565,2.258301,8.789063,6.958008
10232,0.204224,-0.348511,0.944458,2.441406,8.117676,10.253906
10241,0.241455,-0.372070,0.947388,2.502441,7.324219,13.549805
10253,0.293945,-0.356079,0.968872,1.892090,5.004883,20.446777
10262,0.308472,-0.310669,1.017212,0.976562,4.150391,23.437500
10272,0.328857,-0.349976,1.078979,1.342773,2.990723,26.245117
10282,0.261841,-0.392090,1.002319,1.708984,1.647949,28.625488
10291,0.201416,-0.411743,0.916870,1.770020,-0.061035,29.724121
10302,0.072021,-0.453003,0.893311,2.197266,-1.464844,29.724121
10312,0.017090,-0.497681,1.039551,2.380371,-2.624512,28.808594
10323,-0.195190,-0.407715,0.989746,2.258301,-4.394531,23.132324
10333,-0.234863,-0.547119,0.921753,2.136230,-4.699707,18.493652
10342,-0.215088,-0.380371,1.117065,1.525879,-4.760742,13.427734
10351,-0.280029,-0.497803,1.039795,0.854492,-5.493164,7.141113
10362,-0.286255,-0.194336,1.152466,-0.061035,-6.591797,0.183105
10372,-0.241699,-0.130005,1.145020,0.122070,-6.896973,-5.920410
10384,-0.039429,-0.108643,1.017822,0.305176,-6.958008,-14.770508
10394,0.139648,-0.092773,0.929565,-0.122070,-7.446289,-17.395020
10404,0.273438,-0.086914,0.945923,-1.586914,-7.812500,-18.127441
10413,0.325562,-0.157471,0.910522,-2.563477,-7.446289,-16.540527
10423,0.390259,0.097412,1.057251,-3.723145,-6.042480,-13.366699
10433,0.462280,-0.042603,1.004639,-3.906250,-4.943848,-9.643555
10442,0.487549,-0.022949,1.037720,-3.417969,-4.211426,-6.774902
10452,0.461182,-0.060425,0.994629,-2.868652,-5.310059,-2.502441
10461,0.439697,0.089355,1.021240,-2.136230,-9.155273,-1.342773
10472,0.274658,0.105103,0.927368,-1.525879,-10.803223,-0.793457
10482,0.327515,0.047241,0.796753,-1.708984,-11.596680,0.427246
10497,0.196045,0.062988,0.902710,-2.258301,-13.061523,3.051758
10506,0.157593,0.177368,1.035278,-2.319336,-13.732910,4.089355
10516,0.112305,0.084961,1.069458,-1.953125,-13.854980,5.065918
10525,0.106201,0.080322,1.059326,-1.586914,-15.136719,4.821777
10535,0.029907,-0.021240,0.999146,-1.403809,-15.808105,4.211426
10545,-0.063354,0.060791,0.987915,-1.525879,-15.869141,3.234863
10554,-0.107544,-0.052856,0.908447,-1.708984,-15.625000,1.647949
10564,-0.152588,-0.001831,0.999390,-1.831055,-14.831543,0.000000
10573,-0.173096,-0.090698,0.965454,-2.502441,-14.343262,-1.770020
10583,-0.199707,-0.085327,0.924683,-3.356934,-13.977051,-5.310059
10593,-0.213013,-0.067383,0.955078,-5.126953,-12.939453,-6.225586
10603,-0.223511,-0.053711,1.031738,-6.225586,-12.268066,-7.263184
10613,-0.197876,-0.030029,0.999634,-6.835937,-11.779785,-8.117676
10622,-0.148071,-0.056030,1.027222,-6.713867,-10.803223,-9.033203
10632,-0.120972,-0.096069,0.986328,-6.835937,-10.009766,-9.521484
10642,-0.077759,-0.172729,0.954590,-6.713867,-9.521484,-9.887695
10652,-0.032349,-0.079956,1.044556,-6.469727,-9.094238,-9.826660
10662,-0.001953,-0.167725,1.012207,-5.859375,-9.216309,-9.338379
10672,-0.013184,-0.134888,0.981689,-4.272461,-9.216309,-9.338379
10682,-0.030151,-0.286865,0.969971,-3.784180,-9.277344,-9.826660
10692,-0.003784,-0.312866,0.940430,-3.601074,-9.033203,-10.498047
10702,0.024292,-0.263916,0.939819,-3.601074,-8.666992,-11.291504
10712,0.014648,-0.226562,0.947021,-3.417969,-8.850098,-12.390137
10721,0.078613,-0.272827,0.960449,-3.295898,-9.033203,-13.732910
10734,0.134155,-0.206421,0.883911,-3.173828,-10.131836,-16.906738
10744,0.097168,-0.210449,0.924438,-3.051758,-10.437012,-17.944336
10754,0.137939,-0.233032,0.899414,-2.929688,-10.620117,-18.493652
10764,0.144287,-0.140747,0.979858,-2.746582,-10.620117,-18.676758
10773,0.112305,-0.211182,0.893066,-2.624512,-10.620117,-18.859863
10783,0.042236,-0.152588,0.988403,-2.563477,-10.742188,-18.859863
10792,0.006592,-0.277222,0.918457,-2.075195,-10.620117,-18.981934
10802,0.008301,-0.171631,0.962891,-2.014160,-10.314941,-19.897461
10813,-0.071655,-0.129761,0.968506,-2.319336,-10.009766,-20.080566
10823,-0.088501,-0.282593,0.946167,-2.258301,-9.460449,-20.019531
10833,-0.026245,-0.088135,1.096558,-2.624512,-8.483887,-19.470215
10842,-0.035034,-0.173950,1.020020,-2.746582,-8.117676,-18.737793
10852,-0.019287,-0.066040,1.065308,-2.746582,-7.873535,-18.249512
10862,0.006836,-0.168457,1.046997,-2.502441,-7.385254,-17.150879
10874,0.025146,-0.124878,0.988892,-2.685547,-6.958008,-14.160156
10884,-0.045898,-0.120972,0.899414,-2.807617,-6.530762,-12.390137
10893,-0.097778,-0.054443,1.022339,-3.295898,-5.310059,-10.192871
10903,-0.098511,-0.115723,0.974731,-3.417969,-4.333496,-8.239746
10912,-0.147949,-0.049683,1.020874,-3.540039,-3.479004,-7.263184
10922,-0.174561,-0.016724,1.064209,-3.234863,-2.868652,-6.530762
10931,-0.210327,-0.061035,1.057129,-2.624512,-2.258301,-6.225586
10944,-0.256836,-0.144897,0.954224,-1.403809,-1.098633,-6.408691
10954,-0.242310,-0.190674,0.940918,-1.037598,-0.732422,-6.774902
10964,-0.230469,-0.122437,1.036133,-0.732422,-0.366211,-7.141113
10973,-0.229736,-0.181396,1.006470,-0.061035,-0.122070,-7.263184
10983,-0.234375,-0.142212,0.990234,0.305176,0.366211,-7.507324
10992,-0.211426,0.013916,1.122925,0.427246,1.037598,-7.751465
11002,-0.227417,-0.143433,1.047485,1.220703,1.586914,-8.117676
11012,-0.217651,-0.097900,1.039185,1.586914,2.136230,-9.460449
11023,-0.135986,-0.153687,0.969971,2.502441,2.624512,-10.498047
11033,-0.068726,-0.060669,1.032104,2.685547,2.807617,-10.681152
11043,0.009155,-0.061157,1.054688,2.441406,3.295898,-9.948730
11052,0.029541,-0.090088,1.032471,2.014160,3.295898,-9.277344
11062,0.050537,-0.043701,1.052612,2.197266,3.173828,-8.666992
11072,0.016724,-0.080200,1.003296,2.563477,2.990723,-8.300781
11084,-0.029907,-0.118164,0.982910,3.051758,3.234863,-8.544922
11094,-0.066650,-0.209473,1.002686,2.929688,2.868652,-9.521484
11104,-0.039307,-0.123291,0.977783,2.868652,2.380371,-10.986328
11113,-0.056641,-0.139404,0.992920,2.929688,1.892090,-12.268066
11123,-0.037964,-0.273315,0.890991,3.234863,1.220703,-13.671875
11132,0.029541,-0.087036,0.971924,3.417969,1.220703,-14.587402
11142,0.062622,-0.302246,0.929077,3.540039,1.892090,-15.014648
11154,0.081787,-0.213013,1.004028,3.601074,0.854492,-17.700195
11164,0.024170,-0.287109,0.875000,3.845215,-0.061035,-19.836426
11173,-0.010620,-0.124878,1.006470,3.967285,-0.427246,-22.155762
11183,0.002686,-0.243408,0.962769,4.028320,-0.610352,-24.353027
11192,-0.049316,-0.165283,0.968872,4.089355,-0.366211,-26.245117
11202,-0.002686,-0.047485,1.076050,4.028320,0.000000,-27.343750
11212,-0.004761,-0.187134,0.909302,3.967285,0.793457,-27.465820
11222,-0.053223,-0.164551,0.926636,3.417969,2.319336,-26.611328
11231,0.026245,0.004150,0.979370,3.173828,3.051758,-26.000977
11242,0.051514,-0.037354,0.996460,2.868652,3.295898,-25.573730
11252,0.049438,-0.112305,1.016357,3.051758,3.173828,-25.451660
11262,0.034668,-0.154907,0.916870,2.990723,3.417969,-25.451660
11272,0.098633,-0.119019,0.915771,2.441406,3.540039,-24.841309
11282,0.038940,-0.263550,0.888184,1.342773,3.601074,-23.925781
11292,0.029053,-0.023315,1.085205,-0.061035,4.089355,-21.057129
11303,-0.057129,-0.202148,1.023438,-0.183105,5.371094,-19.714355
11313,-0.104004,-0.003906,1.200073,-0.183105,6.774902,-18.249512
11322,-0.107178,-0.198730,1.130127,-0.122070,7.385254,-17.211914
11332,-0.120850,-0.180176,1.044556,0.244141,8.178711,-16.906738
11343,-0.061768,0.005737,1.101318,0.854492,8.789063,-16.052246
11352,-0.089722,-0.286377,1.006348,1.525879,8.850098,-15.319824
11364,0.013672,-0.062256,1.000366,1.098633,9.460449,-13.671875
11374,0.013306,-0.418823,0.841553,1.220703,9.948730,-11.901855
11383,-0.008179,-0.271484,0.944946,0.549316,10.314941,-10.498047
11393,0.057739,-0.241211,0.991089,0.305176,10.559082,-8.972168
11402,-0.000244,-0.386841,0.828369,0.000000,10.620117,-7.812500
11412,0.005859,-0.162720,0.973755,-0.549316,10.803223,-7.141113
11422,-0.022217,-0.303101,0.980103,-1.037598,11.169434,-6.591797
11432,-0.073242,-0.385132,0.852661,-1.586914,11.291504,-6.652832
11443,-0.028198,-0.156128,0.976807,-1.892090,10.498047,-6.652832
11453,-0.050049,-0.230469,0.949951,-1.586914,10.253906,-6.774902
11463,0.032837,-0.046265,1.077393,-1.281738,10.803223,-6.958008
11472,0.055542,-0.068115,1.127930,-0.732422,11.108398,-6.652832
11481,0.057983,-0.088623,1.219482,0.061035,10.986328,-6.530762
11492,0.024536,-0.064453,1.191772,1.098633,10.498047,-6.835937
11502,0.031250,-0.168701,1.041382,2.014160,9.948730,-7.080078
11513,0.127808,-0.172119,0.985718,2.014160,8.483887,-7.080078
11522,0.089966,-0.038574,0.969604,1.892090,7.751465,-6.713867
11532,0.114624,0.031738,0.979004,1.525879,7.873535,-5.920410
11542,0.074707,-0.134888,0.932983,1.403809,8.483887,-3.967285
11552,0.067139,-0.117188,0.861938,1.220703,8.850098,-2.136230
11562,0.016602,0.141479,1.008667,0.915527,9.155273,-0.183105
11572,-0.006592,0.071167,1.028076,0.915527,9.216309,2.075195
11583,-0.097290,-0.035400,1.043701,2.258301,9.948730,5.798340
11593,-0.110596,0.004395,1.022461,2.929688,9.948730,7.690430
11602,-0.078247,-0.220947,0.979858,3.479004,9.826660,9.338379
11612,-0.034668,-0.199341,0.981201,2.868652,9.399414,10.437012
11622,-0.065674,-0.049438,0.995728,2.807617,8.666992,11.718750
11632,-0.041504,-0.101318,0.989624,2.990723,8.728027,13.305664
11645,-0.073364,-0.201294,0.988525,2.502441,10.070801,16.845703
11654,-0.126953,-0.015259,1.050171,1.953125,9.948730,17.822266
11663,-0.092407,-0.122437,0.957642,1.708984,9.826660,18.798828
11673,-0.125488,-0.175659,0.924561,0.915527,9.582520,19.592285
11682,-0.145874,-0.012573,0.964478,0.671387,9.277344,20.507812
11692,-0.155029,-0.028076,0.933350,0.366211,9.094238,20.935059
11702,-0.138306,-0.197632,0.900757,0.061035,9.094238,20.751953
11714,-0.071045,-0.094727,1.061523,-0.549316,8.056641,19.836426
11724,-0.133179,-0.210083,0.922119,-0.671387,6.591797,17.700195
11733,-0.096680,0.025024,1.003784,-0.671387,5.920410,15.197754
11742,0.014893,-0.038574,1.097046,-0.183105,6.164551,13.977051
11753,0.091187,-0.374634,0.949707,-0.061035,5.493164,12.512207
11762,0.137695,-0.141968,0.985962,-0.183105,4.577637,10.559082
11773,0.150635,0.011353,1.086670,-0.366211,2.807617,9.216309
11782,0.160889,-0.202148,1.031250,-0.549316,1.525879,7.629395
11793,0.072144,-0.176514,0.993652,-1.220703,0.610352,6.225586
11803,0.043823,-0.249390,0.974121,-1.586914,0.244141,5.004883
11812,0.064453,-0.294678,0.886230,-1.708984,0.000000,3.967285
11822,0.083496,-0.035645,0.935059,-2.258301,-0.976562,2.807617
11832,0.127930,-0.057007,1.021973,-2.319336,-1.892090,2.380371
11842,0.062256,-0.297119,0.857422,-2.258301,-2.807617,2.746582
11852,0.045776,-0.181763,0.936646,-2.319336,-2.807617,4.821777
11863,0.066162,-0.247437,0.997314,-2.685547,-2.136230,6.408691
11873,0.061157,-0.300659,0.994507,-2.807617,-2.319336,7.690430
11882,0.022949,-0.011475,1.064819,-2.502441,-2.502441,8.789063
11892,-0.011475,-0.094360,1.060547,-2.136230,-3.051758,9.887695
11902,-0.075562,-0.328003,0.934570,-2.441406,-3.051758,10.437012
11912,-0.108154,-0.224731,0.989136,-3.234863,-3.356934,10.437012
11925,-0.219604,-0.119019,0.995117,-3.540039,-3.356934,9.399414
11934,-0.227783,-0.250000,0.949829,-3.662109,-2.929688,8.728027
11944,-0.220581,-0.097534,1.010864,-3.479004,-2.319336,7.934570
11954,-0.191772,-0.055176,1.068848,-3.234863,-1.892090,6.835937
11964,-0.153564,-0.210083,1.089233,-2.624512,-1.770020,5.981445
11974,-0.122925,-0.253540,1.023071,-2.014160,-2.014160,4.577637
11984,-0.076416,-0.130737,1.012695,-1.098633,-2.380371,1.037598
11993,-0.053101,-0.180176,1.002563,-0.854492,-2.441406,-0.549316
12003,-0.021240,-0.306152,0.962524,-0.671387,-2.441406,-2.685547
12013,-0.064941,-0.163208,0.973267,-0.732422,-2.380371,-4.638672
12023,0.000366,0.019775,1.067871,-0.671387,-2.441406,-6.347656
12032,-0.032349,0.005127,1.130493,-0.549316,-2.502441,-7.690430
12042,0.019043,-0.093140,1.074951,-0.183105,-2.746582,-9.033203
12052,0.000000,-0.190186,0.993896,0.610352,-2.502441,-9.948730
12064,0.073486,-0.055908,0.954468,1.403809,-2.136230,-10.803223
12074,0.084961,-0.107544,0.908081,0.793457,-1.953125,-10.620117
12084,0.037231,-0.178711,0.839844,0.366211,-1.892090,-10.742188
12093,0.093506,-0.000854,0.936768,-0.427246,-1.953125,-10.925293
12103,0.140625,0.052246,1.015015,-0.732422,-1.892090,-10.559082
12112,0.119873,-0.108643,0.930176,-0.915527,-1.708984,-10.498047
12122,0.122070,-0.138428,0.930176,-0.854492,-1.953125,-10.192871
12134,0.057007,-0.144165,0.967285,-0.183105,-2.929688,-9.399414
12144,-0.005127,-0.282227,0.833496,-0.366211,-2.746582,-9.643555
12154,-0.015137,-0.024536,0.891235,-1.037598,-2.075195,-9.094238
12163,0.022705,0.000000,0.964722,-1.342773,-1.220703,-8.422852
12173,0.029907,-0.207153,0.878174,-1.770020,-0.915527,-8.056641
12182,-0.027100,0.030762,1.110352,-2.258301,-0.976562,-7.995605
12192,-0.094971,0.008911,1.057861,-1.403809,-1.037598,-7.873535
12202,-0.071289,-0.064331,1.028320,-0.732422,-1.037598,-8.728027
12213,-0.015625,-0.288696,0.791504,-0.976562,-0.488281,-8.850098
12223,0.021118,0.035034,0.946045,-2.624512,-0.427246,-9.033203
12233,-0.000488,0.074707,0.974121,-3.356934,-0.305176,-8.911133
12242,-0.077515,-0.044678,0.882080,-2.868652,-0.061035,-8.728027
12252,-0.052856,-0.101807,0.869995,-2.685547,0.976562,-8.422852
12262,-0.009888,-0.113403,0.949463,-3.173828,1.464844,-8.178711
12272,-0.022827,-0.130005,1.026733,-4.394531,1.647949,-8.117676
12283,-0.027466,0.066772,1.050171,-5.249023,1.770020,-7.324219
12293,0.001465,-0.200684,0.921875,-4.638672,2.319336,-6.591797
12303,-0.005127,-0.174194,0.917480,-4.577637,2.746582,-5.554199
12312,0.037598,0.034302,1.021362,-5.371094,3.234863,-4.150391
12322,0.009766,-0.042969,1.027832,-6.347656,3.173828,-2.868652
12332,-0.011475,-0.142456,0.962769,-6.958008,3.601074,-2.014160
12342,-0.052368,-0.006104,0.982178,-7.568359,3.784180,-0.183105
12352,-0.026489,0.059204,1.046021,-7.446289,3.723145,1.098633
12362,-0.057617,-0.014038,1.137939,-6.713867,4.028320,2.014160
12372,-0.110596,-0.043823,1.138794,-6.103516,4.333496,2.929688
12382,-0.111084,-0.025146,1.065063,-5.371094,4.760742,3.845215
12392,-0.060547,-0.008301,1.103149,-4.516602,4.943848,4.638672
12402,-0.045776,-0.104736,1.068970,-3.601074,4.882812,5.187988
12412,-0.053833,-0.129639,1.003052,-2.319336,4.760742,5.615234
12424,-0.007080,-0.174316,0.950195,-1.953125,4.516602,5.737305
12433,-0.042969,-0.101807,0.923584,-1.953125,4.394531,6.103516
12443,-0.010742,-0.232910,0.858643,-1.831055,4.028320,6.103516
12452,-0.053467,-0.179321,0.803589,-1.647949,3.967285,6.225586
12462,0.010742,-0.128174,0.842651,-1.770020,3.784180,6.042480
12472,0.020630,-0.288086,0.851807,-2.319336,3.356934,5.737305
12482,0.016357,-0.121460,0.938354,-2.990723,2.868652,4.272461
12493,0.023071,0.028320,1.084229,-2.624512,2.868652,3.540039
12503,-0.015137,-0.320679,1.008789,-1.464844,3.051758,3.112793
12513,-0.006104,-0.052002,1.033691,-1.281738,2.685547,2.441406
12522,-0.000854,0.026367,1.048218,-0.671387,2.136230,1.831055
12532,0.025757,-0.194702,0.972534,-0.183105,1.892090,1.464844
12542,-0.002197,-0.271362,0.836304,-0.427246,1.708984,0.793457
12552,0.071533,-0.016479,0.879517,-0.915527,1.037598,0.122070
12563,0.057983,-0.181763,0.960937,-1.464844,0.732422,-0.610352
12573,-0.023682,-0.037964,1.044800,-1.403809,0.793457,-0.854492
12583,0.009155,0.025269,1.075806,-0.915527,0.549316,-0.915527
12592,-0.025513,-0.135010,1.047119,0.122070,0.671387,-0.915527
12602,0.003540,-0.171021,1.058105,0.305176,0.305176,-1.281738
12612,-0.023560,-0.094727,1.081177,0.732422,0.549316,-1.281738
12622,-0.002686,-0.072998,1.062256,1.037598,0.732422,-2.380371
12633,0.024170,-0.228271,1.000244,1.403809,0.244141,-3.479004
12643,-0.002930,-0.165405,1.044312,1.342773,0.000000,-4.821777
12652,-0.007202,-0.131714,1.008423,1.403809,-0.244141,-5.737305
12662,0.028198,-0.133667,0.973022,1.281738,0.122070,-6.103516
12672,-0.009155,-0.117554,0.964233,0.793457,0.427246,-6.042480
12682,0.043579,-0.124756,0.925659,0.549316,0.854492,-5.859375
12694,0.079102,-0.204468,0.897339,0.000000,0.732422,-4.638672
12703,0.029053,-0.093750,0.956055,-2.197266,1.098633,-4.272461
12713,0.072998,0.131714,1.108887,-2.868652,0.976562,-3.845215
12722,0.018066,0.076294,1.132324,-2.868652,0.976562,-3.906250
12733,0.034302,-0.092407,1.082520,-2.624512,0.427246,-3.906250
12742,0.030273,-0.028076,1.098145,-1.831055,0.610352,-3.906250
12754,0.031982,0.063721,1.085205,0.793457,0.854492,-3.723145
12763,0.044312,-0.226318,0.955566,1.403809,0.976562,-3.540039
12773,0.034058,-0.219238,0.865356,1.342773,1.037598,-3.112793
12782,0.057983,-0.020752,0.977051,0.854492,0.915527,-2.624512
12792,0.033569,-0.043213,1.026611,0.244141,0.854492,-2.197266
12802,-0.002197,-0.152466,0.977295,0.244141,0.610352,-1.953125
12812,-0.056763,-0.128540,1.028076,0.366211,0.366211,-1.647949
12824,-0.087036,-0.007935,1.013794,1.037598,0.732422,-0.549316
12833,-0.102661,-0.135376,0.928833,1.159668,1.647949,0.244141
12843,-0.102295,0.015381,0.961182,1.159668,2.197266,0.915527
12852,-0.077881,0.087524,0.977051,1.586914,3.051758,2.319336
12862,-0.098267,-0.201660,0.919678,1.892090,3.540039,3.662109
12872,-0.104004,-0.250854,0.832153,1.892090,3.906250,4.516602
12882,-0.073242,-0.070923,0.953979,1.403809,4.211426,5.371094
12892,-0.078247,-0.223022,0.934082,1.159668,4.150391,5.981445
12904,-0.042603,-0.037231,0.952881,-0.610352,3.906250,6.286621
12914,0.003052,-0.058960,0.984497,-1.159668,3.723145,6.225586
12923,-0.031982,-0.264282,0.957153,-2.075195,3.234863,5.249023
12932,-0.030151,-0.065063,0.980957,-2.807617,2.929688,3.845215
12942,-0.007202,0.061523,1.088135,-2.929688,2.746582,2.868652
12952,-0.001831,-0.154663,0.993042,-2.868652,2.563477,1.953125
12962,-0.016357,-0.130127,0.965210,-2.807617,2.746582,1.220703
12972,0.036865,0.059692,1.121826,-2.441406,2.563477,0.305176
12984,0.056519,-0.061523,1.066528,-1.708984,2.380371,-0.244141
12993,0.034058,-0.093018,1.032959,-1.403809,2.441406,-0.549316
13003,0.040283,-0.032837,0.977661,-0.976562,2.441406,-0.488281
13012,0.006836,-0.107178,0.993164,-0.793457,2.563477,-0.427246
13023,0.024414,-0.216187,0.902588,-0.854492,2.258301,-0.610352
13032,0.036011,0.003540,1.003052,-1.586914,2.075195,-0.671387
13044,0.040039,-0.198975,0.969727,-2.075195,1.220703,-0.427246
13053,0.029419,-0.098267,0.990723,-2.563477,1.403809,0.183105
13063,0.030396,0.120483,1.087036,-2.502441,1.831055,1.586914
13072,0.019165,0.019287,1.095093,-2.319336,2.197266,2.990723
13083,-0.004272,-0.146973,1.012451,-2.075195,2.563477,3.784180
13092,-0.007080,-0.055664,1.045166,-1.647949,2.746582,4.516602
13104,-0.026978,0.021729,1.056030,-0.549316,2.197266,5.615234
13113,-0.005859,-0.239136,0.775757,-1.098633,2.136230,6.103516
13124,0.007813,-0.214355,0.826172,-2.075195,2.075195,6.835937
13133,-0.002441,-0.285645,0.737305,-3.540039,1.831055,7.019043
13143,-0.027100,-0.002930,0.888062,-5.004883,1.586914,6.896973
13153,-0.003540,0.059814,0.989380,-5.676270,1.159668,6.896973
13162,-0.043091,-0.159424,0.976685,-5.554199,1.464844,6.713867
13174,-0.062500,0.067993,1.162598,-4.333496,1.647949,6.286621
13184,-0.040283,-0.062866,1.185913,-3.173828,2.014160,5.920410
13193,-0.057007,-0.036621,1.165771,-1.586914,2.075195,5.859375
13203,-0.033569,-0.089111,1.060181,0.305176,1.831055,5.432129
13212,0.024414,-0.199829,0.981812,1.647949,1.281738,4.882812
13223,0.037964,-0.163330,0.968750,1.892090,0.915527,3.784180
13232,0.068970,-0.164062,0.987305,1.586914,0.122070,2.441406
13243,0.072510,-0.086304,0.974365,1.281738,-0.610352,0.793457
13252,0.058838,-0.153931,0.947388,0.732422,-0.244141,0.000000
13264,0.050659,-0.045410,0.908691,0.061035,0.183105,0.244141
13273,0.056763,-0.071045,0.973145,-0.244141,0.183105,0.366211
13282,0.021973,-0.264160,0.843628,-0.915527,-0.244141,0.427246
13293,0.033447,-0.024048,0.939087,-1.770020,-0.305176,0.244141
13302,0.046631,-0.020874,0.976196,-2.136230,-0.488281,0.244141
13314,0.022705,-0.140137,0.928223,-3.051758,-0.366211,0.305176
13323,0.005737,0.109131,1.257690,-2.746582,-0.122070,0.427246
13333,-0.037964,0.014282,1.229248,-1.647949,0.000000,0.793457
13342,-0.045654,-0.032227,1.219604,-0.305176,0.732422,1.342773
13353,-0.032104,-0.070190,1.198364,1.037598,0.976562,1.708984
13363,-0.016235,-0.172974,1.113403,1.892090,0.976562,2.014160
13373,0.023437,-0.151489,1.082642,2.502441,0.549316,1.708984
13383,0.080200,-0.205688,0.977417,2.990723,0.061035,1.037598
13394,0.098267,-0.135498,0.922241,1.525879,-1.281738,-0.061035
13403,0.080078,-0.129395,0.850952,0.732422,-1.342773,-0.305176
13413,0.039551,-0.027954,0.940796,0.000000,-1.098633,-0.183105
13422,0.029297,0.086670,0.992187,0.305176,-1.159668,-0.244141
13432,-0.004761,-0.142578,0.939697,0.793457,-1.098633,-0.244141
13443,-0.054810,-0.195679,0.829468,1.525879,-0.976562,-0.122070
13452,-0.021729,-0.093628,0.883179,1.770020,-0.549316,-0.183105
13462,0.002197,-0.183472,0.936035,1.403809,-0.915527,-1.281738
13473,-0.037720,-0.184448,1.088257,1.098633,-0.915527,-1.892090
13482,-0.019165,-0.037720,1.037964,1.098633,-0.488281,-2.136230
13493,-0.033936,-0.243042,0.920898,1.037598,-0.061035,-1.892090
13502,-0.018311,-0.180176,0.837769,0.610352,0.183105,-2.258301
13513,0.045410,-0.012329,0.993530,-0.244141,0.366211,-1.831055
13523,0.073730,-0.115601,0.975098,-1.342773,0.244141,-1.464844
13532,0.053833,-0.055908,0.933716,-1.831055,0.061035,-0.793457
13543,0.115967,0.005371,0.887085,-1.831055,-0.061035,-0.183105
13552,0.037964,-0.036255,0.910889,-2.319336,-0.183105,0.244141
13563,0.013184,0.131714,1.012451,-2.502441,-0.366211,0.488281
13572,0.015259,-0.179932,0.811768,-2.258301,-0.305176,0.854492
13583,0.012329,0.020020,0.922485,-2.441406,-0.305176,1.098633
13595,0.006958,-0.264771,0.965698,-1.831055,-0.183105,1.770020
13605,-0.005615,-0.083984,1.025269,-1.647949,-0.183105,1.831055
13614,-0.004517,-0.009033,1.133301,-1.831055,0.000000,2.258301
13624,-0.088013,-0.224243,1.065796,-2.563477,0.183105,2.136230
13633,-0.082764,-0.207153,1.010986,-2.807617,0.305176,2.075195
13643,-0.065796,-0.136719,1.021240,-3.051758,0.427246,2.136230
13653,-0.046753,-0.188477,1.045288,-3.906250,0.000000,1.770020
13663,-0.008057,-0.078857,1.182739,-4.821777,-0.061035,2.441406
13673,0.049561,-0.057617,1.328979,-3.845215,0.305176,3.967285
13683,0.017822,-0.304443,1.093750,-2.502441,1.220703,5.737305
13693,-0.006348,-0.333496,1.021729,-1.342773,1.770020,6.530762
13702,0.073608,-0.650757,0.969238,-0.732422,1.464844,6.164551
13713,0.074341,-0.611572,0.816650,-1.464844,0.610352,4.455566
13723,0.070190,-0.497070,0.813110,-3.173828,-0.732422,2.014160
13735,-0.033691,-0.788452,-0.412598,-5.554199,-3.601074,-3.051758
13745,-0.021606,-0.026245,0.667114,-8.850098,-3.356934,-5.065918
13755,-0.108398,0.289673,0.826782,-15.075684,-3.479004,-6.225586
13764,-0.259399,0.096436,0.129395,-21.240234,-3.601074,-7.080078
13774,-0.047241,0.914185,0.316895,-26.977539,-1.770020,-7.568359
13784,-0.003296,1.234619,0.738647,-26.123047,-0.610352,-7.019043
13793,-0.125000,0.729614,0.829590,-21.179199,-0.671387,-6.225586
13803,-0.200073,0.409668,0.777954,-20.629883,0.976562,-5.859375
13812,-0.074951,0.727417,0.934937,-27.648926,3.112793,-3.845215
13823,0.068848,0.645752,0.770508,-27.343750,3.356934,-1.770020
13833,0.146484,0.676880,0.744141,-28.015137,1.892090,-1.220703
13843,0.120239,0.818359,0.983521,-28.564453,0.061035,-0.793457
13853,0.087891,0.500122,1.336060,-26.184082,-1.525879,0.305176
13863,0.113647,0.473633,1.876465,-23.925781,-2.624512,1.464844
13873,0.109985,0.831787,2.241211,-22.644043,-2.563477,4.943848
13884,0.122803,0.099854,0.579712,-12.023926,0.427246,6.713867
13894,0.210327,0.484619,1.792969,-8.422852,2.685547,7.751465
13903,0.029175,0.201050,2.152588,-6.774902,1.342773,7.385254
13913,-0.054077,0.005737,1.490356,-5.065918,-1.281738,4.821777
13923,0.028442,-0.076050,0.199707,-2.624512,-1.708984,2.075195
13933,0.137085,0.470215,0.834961,-1.892090,-0.183105,1.159668
13943,0.040649,0.854858,1.882446,-1.098633,-0.488281,0.854492
13954,-0.192993,-0.194092,0.440063,0.366211,-2.441406,-0.427246
13964,0.028076,0.489380,0.471191,-2.197266,-1.464844,-1.953125
13974,-0.023193,1.421021,1.471191,-5.187988,-0.793457,-1.770020
13983,-0.160889,1.017334,1.580566,-3.662109,-1.342773,-0.366211
13993,-0.243652,-0.346191,0.804932,-0.061035,-1.220703,-0.122070
14003,0.045898,0.145264,0.636963,-2.441406,-0.183105,-1.892090
14015,0.140137,1.310913,1.502686,-7.812500,0.427246,0.488281
14025,-0.029785,0.326660,0.939575,-3.906250,-0.976562,1.708984
14034,0.050171,0.008057,0.631104,-2.380371,-1.708984,0.671387
14044,0.271851,0.620728,1.071899,-5.432129,-2.197266,-0.488281
14053,0.158325,1.171265,1.675659,-9.033203,-2.624512,0.610352
14063,-0.091675,0.741699,1.259766,-8.666992,-3.234863,2.685547
14073,-0.119751,0.061768,0.345825,-5.004883,-2.990723,3.112793
14083,0.089600,0.404053,0.655884,-3.601074,-1.464844,1.342773
14094,-0.121460,0.569824,1.420776,-4.455566,-2.258301,1.708984
14104,-0.214111,0.159424,0.588257,-2.380371,-2.258301,1.708984
14114,-0.086548,0.357422,0.430176,-0.854492,-0.549316,1.220703
14123,0.005005,0.879272,0.980469,-1.220703,0.854492,1.464844
14132,-0.200562,0.756836,1.310913,-1.037598,0.549316,2.380371
14143,-0.321411,0.210815,1.054443,0.244141,0.183105,2.990723
14153,-0.239746,0.081543,0.699829,0.488281,2.868652,3.356934
14163,-0.093262,0.769653,0.797119,-4.699707,4.577637,5.920410
14173,-0.174561,0.850708,1.001221,-1.708984,5.737305,8.789063
14183,-0.138184,0.137329,0.815552,1.953125,5.676270,9.460449
14193,0.047974,0.095215,0.885132,1.647949,5.004883,8.850098
14203,0.144409,0.850220,1.359863,-2.563477,4.455566,8.789063
14212,0.055542,1.036865,1.058716,-5.493164,4.089355,10.620117
14225,0.014160,0.488647,0.560669,-0.549316,5.920410,12.573242
14235,0.106689,0.612915,1.232178,1.037598,6.347656,12.145996
14244,0.058838,0.510498,1.404053,0.366211,5.126953,11.535645
14253,0.028931,0.494507,1.214844,-0.854492,3.906250,10.681152
14263,0.075684,0.366943,0.682861,-1.892090,2.990723,9.521484
14273,0.201904,0.792969,0.777222,-2.441406,2.624512,8.666992
14283,0.093628,0.987427,1.211426,-1.892090,1.708984,8.483887
14293,-0.088989,0.452393,1.071167,0.793457,1.159668,8.483887
14304,0.069336,0.455811,0.892944,-0.244141,2.502441,8.056641
14313,0.072998,0.769043,0.899048,-1.831055,3.112793,8.239746
14324,-0.007324,0.856567,1.075928,-1.770020,3.295898,8.728027
14333,-0.063965,0.461792,1.016846,-0.183105,3.112793,8.544922
14343,-0.025146,0.262695,0.892578,0.366211,2.380371,7.629395
14353,0.033936,0.631836,1.051880,-1.525879,2.319336,6.774902
14363,0.004395,0.874878,1.143188,-2.685547,2.624512,8.239746
14374,-0.000122,0.390869,0.875854,-0.427246,3.173828,8.483887
14384,0.071777,0.555298,0.993530,-1.037598,2.685547,7.934570
14393,0.041260,0.750488,1.130493,-2.197266,2.258301,8.117676
14403,-0.010376,0.709106,1.073120,-2.197266,2.197266,8.789063
14414,-0.010620,0.403320,0.947632,-1.464844,2.319336,9.094238
14423,0.075073,0.533813,1.028809,-0.488281,2.502441,8.972168
14435,-0.009888,0.286255,0.996704,1.892090,2.868652,8.911133
14445,-0.042480,0.406738,1.039551,1.281738,2.929688,8.544922
14454,0.028198,-0.014282,1.049561,3.967285,3.051758,7.446289
14463,0.062866,0.167358,1.127686,4.882812,2.319336,5.676270
14473,0.061157,0.097656,1.052734,5.065918,1.892090,5.126953
14483,0.082031,-0.057983,0.985718,7.141113,1.953125,5.187988
14493,0.097290,0.163208,1.019531,7.080078,1.708984,5.126953
14505,-0.059326,0.044067,0.833984,7.751465,1.953125,6.896973
14515,-0.035645,0.329224,0.997070,6.164551,2.624512,7.751465
14524,-0.041016,-0.007324,1.041870,5.615234,3.417969,8.666992
14533,0.021729,-0.132446,1.097534,6.042480,3.417969,8.361816
14543,0.128296,-0.311646,1.066895,7.263184,3.234863,7.934570
14553,0.150391,-0.212158,1.019531,7.751465,2.624512,7.141113
14564,0.094360,-0.017212,0.973511,6.408691,2.136230,6.896973
14573,0.043091,-0.036499,0.999878,5.676270,2.807617,7.385254
14584,-0.046021,0.292969,1.650269,4.150391,3.356934,7.324219
14594,-0.098267,0.052979,1.724121,5.187988,2.685547,6.530762
14603,-0.116943,0.104248,1.576538,7.690430,2.380371,5.737305
14613,-0.116211,0.252441,1.700073,8.666992,2.685547,5.798340
14623,-0.124268,-0.070679,0.991333,10.864258,3.845215,7.568359
14633,0.055542,-0.275269,0.962280,12.329102,5.981445,8.911133
14645,0.085571,0.041504,0.979248,10.559082,4.089355,6.286621
14655,-0.024292,-0.005859,1.019897,9.399414,2.868652,4.821777
14664,-0.033691,-0.225708,0.778076,8.850098,2.929688,4.455566
14673,-0.016357,-0.193237,0.792480,7.995605,3.845215,4.821777
14683,0.054443,-0.156006,0.886475,7.751465,4.333496,5.004883
14693,-0.008667,-0.195679,0.868530,7.446289,5.004883,5.432129
14703,-0.016113,-0.267334,0.881836,7.263184,5.493164,5.859375
14715,0.010010,-0.258423,0.814087,6.713867,5.920410,6.286621
14725,0.078369,-0.267700,0.849731,6.164551,5.065918,5.615234
14734,0.098389,-0.446899,0.745361,5.615234,4.211426,4.760742
14743,0.101074,-0.314331,0.729126,5.065918,3.479004,4.089355
14753,0.109375,-0.236450,0.751587,4.272461,2.929688,3.784180
14763,0.132324,-0.322998,0.724121,3.417969,2.563477,3.479004
14773,0.124268,-0.336182,0.813477,2.624512,2.075195,3.051758
14786,0.063477,-0.191650,0.900879,1.525879,2.441406,2.258301
14795,-0.028809,-0.182495,0.862549,0.854492,2.441406,2.136230
14804,-0.003052,-0.151978,0.831909,0.183105,2.685547,1.953125
14813,-0.019653,-0.252930,0.833374,-0.122070,2.807617,1.647949
14823,-0.033447,-0.244019,0.993042,-0.427246,3.173828,1.037598
14833,-0.026978,-0.106567,0.946899,-1.098633,3.234863,0.915527
14843,0.005737,-0.193481,0.943237,-1.037598,3.601074,1.220703
14855,0.054199,-0.132324,1.084473,-1.464844,4.089355,2.380371
14865,0.105225,-0.233765,1.050781,-1.525879,3.967285,2.746582
14874,0.089844,-0.285645,0.985962,-1.098633,3.967285,3.173828
14883,0.106934,-0.183105,0.990479,-1.708984,3.906250,3.051758
14893,0.071289,-0.087646,0.992554,-2.319336,3.540039,2.990723
14903,0.066772,-0.075073,0.967163,-2.441406,3.173828,2.441406
14913,0.068115,-0.057617,1.014771,-2.868652,2.685547,1.525879
14926,0.045654,-0.091675,1.060913,-2.807617,2.685547,-0.244141
14935,0.053833,-0.100098,1.058105,-2.685547,2.746582,-1.159668
14944,0.060425,-0.092896,1.017944,-2.441406,2.868652,-1.953125
14953,0.077271,-0.105225,0.993042,-2.197266,2.990723,-2.624512
14963,0.096436,-0.098389,0.973877,-2.319336,2.868652,-3.662109
14973,0.107666,-0.104736,0.985107,-2.746582,2.319336,-5.004883
14984,0.119751,-0.132080,0.994385,-2.502441,1.586914,-6.530762
14993,0.119995,-0.137329,0.999023,-2.563477,0.549316,-9.460449
15004,0.121704,-0.130859,0.991577,-2.624512,-0.122070,-10.742188
15014,0.111084,-0.094971,0.978760,-2.563477,-0.427246,-12.023926
15023,0.096680,-0.057129,0.969727,-2.624512,-0.793457,-12.939453
15033,0.093750,-0.035156,0.961548,-2.319336,-0.671387,-13.244629
15043,0.097900,-0.007568,0.986816,-2.380371,-0.671387,-13.488770
15054,0.083252,-0.008423,0.987061,-2.258301,-0.793457,-13.061523
15063,0.072632,-0.033691,0.994385,-2.075195,-0.488281,-10.864258
15073,0.144287,-0.027832,1.015625,-1.892090,-0.854492,-9.643555
15083,0.136353,-0.043945,1.024170,-1.892090,-1.159668,-8.361816
15094,0.180054,-0.042847,1.016235,-1.586914,-1.586914,-7.446289
15103,0.167847,-0.066895,1.009521,-1.281738,-2.136230,-6.469727
15114,0.147461,-0.073608,1.011230,-1.403809,-2.868652,-5.615234
15123,0.142578,-0.082275,1.005127,-1.525879,-3.417969,-4.577637
15135,0.072266,-0.116821,0.990356,-1.525879,-3.234863,-2.380371
15144,0.028809,-0.114258,0.984619,-1.708984,-3.173828,-1.953125
15154,-0.009033,-0.106567,0.986328,-1.892090,-3.173828,-1.953125
15163,-0.038818,-0.082886,0.980103,-2.014160,-3.112793,-2.075195
15173,-0.067261,-0.069946,0.971069,-1.953125,-2.685547,-2.075195
15184,-0.093872,-0.064575,0.970825,-1.892090,-2.075195,-2.014160
15193,-0.102661,-0.051758,0.973145,-2.136230,-1.525879,-1.281738
15203,-0.098999,-0.047363,0.977905,-1.953125,0.244141,0.793457
15214,-0.087280,-0.056763,0.966553,-1.831055,0.976562,2.075195
15224,-0.066895,-0.060669,0.967041,-1.708984,1.770020,3.662109
15234,-0.052490,-0.063110,0.973755,-1.770020,2.258301,5.004883
15243,-0.041748,-0.054932,0.968506,-1.708984,2.746582,6.286621
15253,-0.021362,-0.061279,0.968018,-1.647949,3.173828,7.141113
15265,0.026733,-0.067749,0.982056,-1.647949,2.868652,7.995605
15274,0.063354,-0.067993,0.998901,-1.464844,2.746582,8.239746
15285,0.127075,-0.071777,1.002930,-1.403809,2.746582,8.422852
15294,0.152222,-0.070435,1.009277,-1.464844,2.624512,8.728027
15304,0.162354,-0.070190,1.005249,-1.403809,2.258301,8.789063
15313,0.158936,-0.067993,1.000000,-1.159668,1.708984,8.789063
15323,0.140869,-0.068481,0.996216,-1.098633,1.892090,9.094238
15335,0.137573,-0.077271,1.000366,-1.342773,1.098633,9.338379
15344,0.134888,-0.091431,1.015747,-1.403809,0.732422,8.850098
15355,0.103394,-0.111206,1.004272,-1.220703,0.244141,8.117676
15364,0.092773,-0.129761,1.000000,-1.220703,-0.183105,6.835937
15373,0.087158,-0.118042,0.998535,-1.159668,-0.610352,5.310059
15384,0.092407,-0.109253,0.996704,-1.159668,-1.098633,3.845215
15393,0.091309,-0.104248,0.994629,-1.281738,-1.464844,2.197266
15404,0.080933,-0.091064,0.996338,-1.159668,-1.831055,0.915527
15413,0.078003,-0.089844,0.997437,-1.281738,-2.014160,-1.342773
15425,0.068115,-0.083374,0.997803,-1.342773,-2.380371,-2.319336
15434,0.051025,-0.083618,0.997314,-1.281738,-2.319336,-3.112793
15444,0.039795,-0.056763,0.955322,-1.220703,-2.258301,-3.540039
15453,0.032715,-0.039307,1.018188,-1.220703,-2.441406,-3.784180
15464,0.014404,-0.045532,1.015015,-1.342773,-2.197266,-3.906250
15473,0.013550,-0.091797,0.983032,-1.037598,-2.136230,-3.845215
15485,0.005615,-0.046265,1.003296,-0.915527,-2.014160,-3.662109
15494,0.004150,-0.019653,0.977661,-0.976562,-2.014160,-3.540039
15504,0.012451,-0.042603,0.943848,-0.732422,-1.892090,-3.295898
15518,0.018799,-0.062134,0.977661,-0.854492,-2.746582,-2.929688
15528,-0.008423,-0.065186,1.005005,-1.037598,-1.708984,-2.258301
15537,0.044678,-0.115723,0.993286,-0.976562,-1.220703,-1.281738
15547,0.070312,-0.103271,1.020386,-0.976562,-0.854492,-0.488281
15556,0.100342,-0.109863,1.051147,-0.976562,-1.220703,-0.061035
15565,0.093018,-0.170532,0.998291,-0.976562,-1.586914,0.366211
15575,0.082275,-0.123169,0.999756,-1.098633,-1.831055,0.793457
15584,0.087646,-0.089355,1.018433,-0.976562,-1.831055,1.037598
15593,0.081421,-0.113159,0.997803,-0.854492,-1.647949,1.220703
15604,0.055542,-0.130615,0.984741,-1.098633,-1.770020,1.342773
15613,0.041260,-0.106812,0.987915,-1.098633,-1.831055,1.342773
15625,0.006836,-0.067749,0.985962,-1.281738,-2.014160,1.220703
15634,0.003540,-0.072876,0.997070,-1.342773,-1.831055,1.159668
15644,0.004761,-0.104248,0.958130,-1.281738,-1.647949,1.403809
15654,-0.003662,-0.028931,0.988892,-1.586914,-1.586914,1.525879
15664,0.003052,0.042603,1.001343,-1.586914,-1.098633,1.892090
15674,0.020264,-0.103760,1.000610,-1.525879,-0.732422,2.319336
15684,0.010986,-0.123047,1.003906,-1.342773,-0.793457,1.953125
15695,0.029541,-0.074341,0.945435,-1.464844,-0.671387,1.403809
15704,0.025635,-0.122559,1.039063,-1.342773,-0.793457,1.037598
15714,0.016357,-0.083984,0.983765,-1.098633,-0.732422,0.976562
15724,0.014038,-0.108765,0.994873,-1.342773,-0.732422,0.854492
15734,0.016113,-0.120117,0.988037,-1.220703,-0.915527,1.098633
15744,0.001343,-0.104248,0.981812,-1.342773,-0.488281,1.159668
15755,0.017700,-0.057129,0.990356,-1.403809,-0.549316,1.770020
15765,0.013794,-0.121216,0.999268,-1.464844,-0.671387,2.014160
15774,0.010864,-0.138306,0.989380,-1.220703,0.000000,2.380371
15783,0.016479,-0.122314,0.991455,-1.342773,0.183105,2.563477
15794,0.019287,-0.084839,0.981323,-1.403809,0.061035,2.746582
15804,0.024414,-0.081421,0.984253,-1.403809,0.061035,2.746582
15813,0.035889,-0.083618,0.997559,-1.464844,0.122070,2.929688
15825,0.030884,-0.074341,1.002808,-1.586914,0.183105,3.112793
15834,0.030640,-0.087280,0.991333,-1.464844,0.244141,3.295898
15844,0.043579,-0.083130,0.994873,-1.586914,0.427246,3.417969
15854,0.044678,-0.087402,0.998535,-1.525879,0.488281,3.723145
15863,0.056152,-0.094971,0.997437,-1.586914,0.549316,3.601074
15874,0.061768,-0.098877,0.997437,-1.770020,0.122070,3.356934
15884,0.061768,-0.102539,0.997437,-1.770020,-0.122070,3.173828
15893,0.056519,-0.096313,0.998779,-1.586914,0.000000,2.563477
15905,0.042480,-0.090698,0.995728,-1.586914,-0.183105,1.770020
15914,0.037354,-0.092896,0.994751,-1.647949,-0.427246,1.770020
15924,0.037720,-0.086914,0.994141,-1.708984,-0.427246,1.647949
15934,0.039063,-0.086792,0.993652,-1.708984,0.000000,1.708984
15943,0.036865,-0.090942,0.991211,-1.770020,-0.061035,1.708984
15954,0.037598,-0.092407,0.989502,-1.403809,0.000000,1.953125
15965,0.037476,-0.090820,0.988525,-1.708984,0.061035,2.502441
15974,0.042236,-0.075317,0.991333,-1.647949,-0.183105,2.502441
15985,0.026001,-0.079346,0.994385,-1.403809,0.244141,2.563477
15994,0.027710,-0.076660,0.997437,-1.831055,0.305176,2.319336
16004,0.035645,-0.074951,0.997192,-1.770020,0.122070,2.380371
16014,0.044312,-0.081421,0.996826,-1.525879,0.183105,2.319336
16024,0.049805,-0.082520,0.994507,-1.586914,0.061035,2.258301
16036,0.072388,-0.102051,0.985107,-1.525879,-0.061035,2.197266
16046,0.073975,-0.095947,0.999023,-1.342773,-0.183105,1.953125
16055,0.068237,-0.073853,1.001465,-1.525879,0.000000,1.831055
16064,0.050049,-0.081421,0.991577,-1.586914,-0.366211,1.464844
16073,0.043823,-0.089844,0.992187,-1.525879,-0.610352,1.159668
16084,0.039063,-0.080566,0.997437,-1.586914,-0.488281,1.098633
16094,0.036621,-0.089844,0.997070,-1.403809,-0.610352,0.976562
16103,0.042114,-0.092407,1.000366,-1.525879,-0.915527,0.854492
16115,0.053711,-0.084229,1.000610,-1.525879,-1.037598,0.793457
16124,0.052124,-0.079590,0.994019,-1.342773,-1.220703,0.671387
16134,0.039185,-0.064697,0.990967,-1.159668,-0.976562,0.427246
16144,0.033569,-0.066040,0.996094,-1.281738,-0.854492,0.549316
16154,0.029419,-0.071167,1.000854,-1.342773,-0.854492,0.549316
16164,0.021118,-0.074707,1.002197,-1.464844,-0.915527,0.549316
16175,0.025146,-0.086426,1.005005,-1.220703,-0.854492,0.671387
16185,0.046875,-0.035767,0.967529,-1.342773,-0.854492,0.854492
16194,0.054077,-0.018677,0.982056,-1.464844,-0.854492,1.037598
16205,0.025879,-0.052124,0.996948,-1.525879,-0.976562,0.732422
16214,0.029297,-0.104248,0.994385,-1.403809,-0.793457,0.976562
16224,0.044800,-0.050781,1.013062,-1.220703,-1.037598,0.976562
16234,0.027466,-0.061646,1.014160,-1.342773,-0.854492,1.037598
16246,0.031738,-0.118530,0.975220,-0.854492,-0.671387,1.403809
16256,0.039429,-0.108887,0.980469,-0.915527,-0.671387,1.647949
16265,0.035645,-0.123169,1.003174,-1.281738,-0.854492,1.770020
16275,0.027222,-0.058716,0.977661,-1.220703,-0.854492,2.075195
16284,0.039917,-0.096436,0.994019,-1.281738,-0.793457,2.319336
16295,0.025879,-0.092529,0.968750,-1.403809,-0.305176,2.868652
16304,0.044556,-0.102417,1.025391,-1.281738,-0.244141,3.112793
16317,0.041382,-0.087769,1.047241,-1.403809,-0.366211,3.234863
16326,0.036255,-0.097900,1.009644,-1.220703,-0.549316,3.417969
16336,0.029785,-0.088135,0.960571,-1.098633,-0.671387,3.356934
16345,0.030273,-0.073730,0.989258,-1.220703,-0.549316,3.479004
16354,0.019531,-0.073730,1.009644,-1.464844,-0.610352,3.662109
16364,0.020264,-0.083130,0.931030,-1.098633,-0.366211,4.089355
16374,0.036011,-0.082153,1.012939,-1.281738,-0.366211,4.028320
16384,0.033813,-0.063477,0.980713,-1.525879,-0.549316,3.906250
16395,0.056274,-0.088379,0.964966,-1.098633,-0.305176,3.601074
16405,0.063110,-0.091919,1.033936,-1.220703,-0.549316,3.234863
16414,0.058960,-0.108643,1.013916,-1.159668,-0.915527,2.990723
16424,0.068604,-0.128662,0.988037,-1.037598,-0.732422,2.685547
16434,0.068848,-0.125977,0.981689,-1.281738,-0.671387,2.685547
16444,0.061401,-0.103149,0.981079,-1.464844,-0.793457,2.624512
16457,0.051758,-0.090454,0.985596,-1.586914,-1.098633,2.380371
16466,0.050415,-0.081299,0.994141,-1.647949,-1.159668,2.380371
16476,0.045288,-0.083130,1.001221,-1.464844,-1.281738,2.319336
16485,0.045166,-0.088135,1.005859,-1.403809,-1.403809,2.441406
16495,0.038574,-0.088867,1.002319,-1.464844,-1.525879,2.380371
16504,0.034424,-0.089966,0.997803,-1.464844,-1.281738,2.563477
16515,0.034302,-0.088623,0.995972,-1.464844,-1.342773,2.746582
16524,0.025391,-0.081421,0.993408,-1.342773,-1.037598,2.746582
16535,0.024292,-0.085449,0.992310,-1.342773,-1.281738,2.868652
16545,0.029419,-0.090820,0.997681,-1.586914,-1.525879,2.624512
16555,0.037598,-0.094971,1.003296,-1.708984,-1.586914,2.441406
16564,0.034424,-0.098022,0.999756,-1.281738,-1.403809,2.441406
16575,0.030273,-0.089722,0.994141,-1.525879,-1.525879,2.136230
16584,0.032715,-0.079102,0.993286,-1.525879,-1.586914,2.319336
16596,0.020996,-0.068848,0.979492,-1.464844,-1.037598,2.258301
16606,0.007324,-0.069702,0.992310,-1.403809,-0.854492,2.197266
16615,0.008057,-0.077515,1.005127,-1.159668,-0.915527,2.441406
16624,0.006470,-0.087891,1.001099,-1.281738,-0.976562,2.441406
16635,0.001465,-0.098389,0.998169,-1.159668,-0.854492,2.441406
16644,0.004150,-0.098877,0.997681,-1.159668,-0.976562,2.441406
16655,0.006836,-0.091675,1.000854,-1.098633,-0.915527,2.319336
16664,0.005127,-0.086304,0.996338,-1.281738,-0.854492,2.380371
16675,-0.017944,-0.066284,0.981812,-1.220703,-0.305176,2.502441
16685,-0.022461,-0.055176,0.990967,-1.037598,0.122070,2.746582
16694,-0.020142,-0.056030,0.996826,-1.037598,0.610352,3.356934
16705,-0.018066,-0.060303,1.004639,-0.976562,1.159668,3.967285
16714,-0.016968,-0.062866,1.012939,-0.976562,1.342773,4.516602
16725,-0.016968,-0.068359,1.010620,-1.098633,1.342773,4.882812
16734,-0.011475,-0.076172,1.001709,-0.671387,1.464844,5.920410
16746,0.011230,-0.072266,0.995239,-0.671387,1.708984,6.652832
16755,0.034912,-0.063843,0.996216,-0.732422,2.075195,7.812500
16765,0.060181,-0.060791,1.000610,-0.610352,2.197266,9.033203
16775,0.063965,-0.077148,1.000854,-0.732422,2.136230,10.131836
16784,0.086304,-0.093750,1.003906,-0.671387,2.136230,10.986328
16795,0.105103,-0.115356,0.994019,-0.549316,1.831055,12.145996
16804,0.091797,-0.126343,0.977539,-0.793457,1.037598,13.061523
16816,0.037231,-0.019775,0.848389,-1.281738,1.037598,13.061523
16825,-0.003784,0.185913,0.928223,-2.014160,1.464844,13.061523
16834,0.005493,0.208374,0.896973,-0.854492,1.892090,13.061523
16845,0.042480,0.011963,0.970703,1.342773,2.136230,11.718750
16855,0.085205,-0.183472,1.053101,1.708984,1.708984,10.314941
16866,-0.057617,-0.185181,1.225220,-0.122070,1.281738,5.798340
16876,0.083862,-0.229370,1.168823,0.122070,1.586914,4.211426
16886,0.067383,-0.343262,0.969727,0.488281,1.159668,3.112793
16895,0.053589,-0.410400,0.866699,0.732422,0.732422,2.197266
16904,0.047363,-0.391846,0.885010,0.610352,0.488281,1.525879
16915,0.000122,-0.336792,0.959595,-0.061035,0.549316,2.014160
16925,0.002197,-0.316895,0.974487,-0.549316,0.854492,2.685547
16934,-0.010864,-0.298706,0.923340,-0.854492,1.586914,3.112793
16946,-0.008301,-0.265137,0.934204,-0.671387,2.441406,4.638672
16955,0.022583,-0.096802,1.080688,-1.159668,2.258301,4.089355
16965,-0.048218,-0.262573,0.989746,-0.732422,1.586914,3.845215
16975,-0.055908,-0.229980,1.022827,-0.793457,1.831055,2.990723
16984,-0.032104,-0.168213,1.007935,-0.671387,2.075195,2.685547
16995,-0.037964,-0.167603,0.969971,-0.610352,2.868652,2.990723
17005,-0.011963,-0.133423,0.967529,-0.732422,3.173828,3.173828
17014,0.001709,-0.122314,0.975586,-0.732422,3.967285,4.394531
17026,0.021362,-0.130737,0.984009,-0.915527,4.455566,5.615234
17035,0.021240,-0.091431,0.995483,-1.220703,4.516602,6.958008
17044,0.007813,-0.076294,0.988647,-1.342773,4.760742,8.666992
17054,0.014282,-0.089722,0.980347,-1.159668,5.065918,10.742188
17065,0.029419,-0.115234,0.973389,-1.220703,5.371094,13.000488
17076,0.032715,-0.122681,0.983643,-1.403809,6.042480,17.639160
17086,0.052246,-0.145264,0.999146,-1.342773,6.286621,19.958496
17095,0.072144,-0.157837,0.993042,-1.342773,6.530762,22.033691
17104,0.084839,-0.159180,0.977661,-1.220703,6.896973,24.047852
17115,0.091431,-0.159546,0.970947,-1.281738,7.141113,26.062012
17125,0.074585,-0.173950,0.950073,-1.342773,7.080078,28.198242
17135,0.075684,-0.178589,0.981445,-1.281738,7.751465,30.273437
17146,0.065796,-0.167847,0.988525,-1.586914,7.751465,32.287598
17155,0.034180,-0.119263,0.999023,-1.647949,7.629395,33.203125
17166,0.026001,-0.147827,1.000488,-1.342773,8.056641,34.057617
17175,0.038208,-0.199707,0.991211,-1.220703,8.300781,35.034180
17184,0.055664,-0.224731,0.973877,-1.159668,8.483887,35.644531
17195,0.075439,-0.205688,0.966797,-1.342773,8.422852,36.621094
17204,0.069580,-0.179199,0.962280,-1.647949,8.056641,37.475586
17215,0.043945,-0.158081,0.970703,-1.647949,7.995605,38.330078
17226,0.043457,-0.213135,0.991577,-1.525879,9.155273,39.428711
17235,0.062500,-0.251953,0.972778,-1.037598,9.460449,39.672852
17245,0.081299,-0.244629,0.965454,-1.281738,9.521484,40.344238
17255,0.107666,-0.227295,0.957275,-1.708984,9.338379,41.198730
17264,0.118774,-0.204834,0.967773,-1.831055,8.850098,42.297363
17275,0.107910,-0.183838,1.017822,-1.586914,8.544922,43.640137
17286,0.093384,-0.226807,1.024292,-0.549316,8.789063,45.349121
17296,0.087280,-0.360107,0.932861,-0.366211,8.850098,45.410156
17305,0.096924,-0.309082,0.983032,-0.854492,8.911133,44.799805
17314,0.122314,-0.270386,1.023560,-1.403809,8.483887,43.579102
17325,0.135742,-0.324707,0.980225,-0.915527,7.507324,41.687012
17335,0.137939,-0.382935,0.923340,-0.793457,6.835937,38.757324
17344,0.157104,-0.357544,0.953369,-1.037598,6.408691,36.193848
17356,0.231567,-0.279541,1.042114,-1.220703,5.065918,32.287598
17366,0.326782,-0.375244,1.006226,-0.305176,3.662109,29.602051
17375,0.351929,-0.365601,1.002686,0.061035,2.258301,26.428223
17385,0.310669,-0.316406,1.000854,-0.183105,1.159668,23.193359
17395,0.254272,-0.314087,0.960693,0.122070,-0.427246,19.287109
17405,0.197510,-0.327271,0.958862,0.305176,-2.197266,14.343262
17415,0.163696,-0.333496,0.975586,0.427246,-3.845215,9.094238
17425,0.195679,-0.374390,1.008789,0.488281,-5.187988,4.089355
17436,0.173950,-0.248413,1.046997,0.244141,-5.920410,-3.479004
17445,0.179565,-0.183838,0.975464,-0.366211,-7.263184,-6.164551
17455,0.199097,-0.147583,0.986694,0.061035,-8.117676,-7.995605
17465,0.203735,-0.129150,0.976318,0.549316,-8.483887,-10.314941
17475,0.249268,-0.198608,0.961060,0.915527,-8.728027,-11.718750
17485,0.190918,-0.179199,1.011597,0.549316,-9.521484,-13.061523
17495,0.185425,-0.097290,0.996826,-0.122070,-10.437012,-16.784668
17506,0.146484,-0.013062,1.017456,-0.427246,-11.474609,-18.371582
17516,0.193970,-0.094604,0.975586,0.000000,-11.596680,-20.324707
17525,0.211792,-0.155640,1.036255,0.000000,-11.901855,-22.460937
17535,0.217407,-0.129395,1.072266,-0.366211,-12.817383,-25.390625
17545,0.250366,-0.114624,1.014038,-0.549316,-13.427734,-28.930664
17555,0.269653,-0.083130,1.044556,-0.549316,-14.648438,-32.836914
17566,0.293335,-0.079468,0.992798,-0.183105,-17.395020,-41.259766
17576,0.371582,-0.059204,0.991211,-0.183105,-18.554687,-44.921875
17585,0.352783,-0.034180,1.008423,-0.244141,-19.653320,-47.668457
17595,0.304199,-0.107056,0.894043,-0.183105,-20.324707,-49.316406
17605,0.277344,-0.095703,0.927734,-0.305176,-20.935059,-51.086426
17616,0.274536,-0.082520,0.952759,-0.488281,-21.423340,-53.100586
17625,0.311646,-0.146240,0.994019,-0.671387,-21.484375,-54.321289
17638,0.182373,-0.062988,1.040649,-1.464844,-23.742676,-57.006836
17647,0.163330,-0.026245,1.068970,-1.342773,-24.597168,-58.593750
17657,0.153564,-0.041626,1.021118,-1.098633,-25.207520,-58.959961
17666,0.174683,-0.091675,0.944946,-0.854492,-25.756836,-59.265137
17675,0.227661,-0.056641,0.943359,-0.915527,-26.062012,-58.715820
17685,0.150024,-0.004395,0.957275,-0.915527,-26.184082,-57.067871
17695,0.128418,-0.050781,0.954712,-0.671387,-25.512695,-55.358887
17707,0.062744,-0.137207,0.977051,-0.854492,-22.766113,-49.621582
17717,0.073730,-0.138916,0.956055,-0.854492,-22.155762,-48.034668
17727,0.015625,-0.048462,1.003784,-1.281738,-22.033691,-46.813965
17736,-0.059326,-0.035156,0.966797,-1.281738,-21.972656,-45.593262
17746,0.001709,-0.000488,0.920044,-0.793457,-22.155762,-44.921875
17755,-0.030396,0.013794,0.967651,-0.976562,-22.216797,-43.457031
17765,-0.132568,-0.031982,0.962158,-0.854492,-22.216797,-41.137695
17775,-0.114990,0.037842,1.034668,-1.342773,-21.362305,-38.085937
17786,-0.248047,0.132812,1.042236,-1.708984,-17.944336,-31.799316
17796,-0.252319,0.033325,0.984985,-1.342773,-15.563965,-29.235840
17806,-0.294800,-0.051758,0.942383,-1.220703,-14.160156,-27.770996
17815,-0.286499,-0.009399,0.975220,-1.464844,-13.549805,-27.587891
17825,-0.270630,0.015625,1.030762,-1.708984,-12.878418,-27.038574
17835,-0.272461,-0.022827,1.032104,-1.770020,-11.840820,-26.000977
17845,-0.210571,-0.051636,1.007935,-1.892090,-11.596680,-25.146484
17855,-0.180298,-0.056641,0.967407,-1.586914,-9.338379,-23.864746
17865,-0.095947,-0.110229,0.959106,-1.281738,-8.422852,-23.010254
17875,0.005493,-0.155029,1.035034,-1.220703,-7.568359,-21.850586
17885,-0.052734,-0.210205,0.989502,-1.098633,-7.385254,-20.996094
17895,0.014160,-0.181641,0.928955,-1.342773,-7.751465,-21.179199
17905,-0.055908,-0.178467,0.923706,-1.525879,-8.605957,-22.033691
17917,0.051514,-0.023193,0.987549,-1.770020,-9.704590,-25.146484
17927,0.053955,0.010376,1.074585,-1.892090,-9.643555,-26.611328
17936,0.069458,-0.033569,1.137329,-2.014160,-9.277344,-27.954102
17946,0.047485,-0.012695,1.088013,-2.014160,-8.972168,-29.235840
17956,0.014771,-0.027832,0.999634,-1.953125,-9.582520,-31.250000
17965,0.001099,-0.031372,0.993042,-1.342773,-10.498047,-33.447266
17975,0.012085,-0.130249,1.005981,-0.854492,-11.413574,-35.583496
17985,-0.001709,-0.226440,1.010986,-0.488281,-11.901855,-37.109375
17996,-0.025024,-0.169800,1.003052,-1.525879,-12.695313,-39.245605
18006,-0.071777,-0.132935,0.973267,-1.647949,-12.695313,-39.733887
18016,-0.035400,-0.150024,0.955200,-1.220703,-12.573242,-40.832520
18026,-0.026123,-0.179932,0.958740,-0.854492,-12.695313,-41.870117
18035,0.007080,-0.208862,1.001587,-0.549316,-13.366699,-43.701172
18045,0.072266,-0.175171,1.002441,-0.854492,-14.160156,-45.837402
18058,0.098511,-0.111206,0.971924,-1.220703,-15.563965,-49.804687
18067,0.129150,-0.117920,0.970093,-1.098633,-16.235352,-51.391602
18077,0.116455,-0.094849,1.000854,-1.037598,-16.784668,-52.795410
18087,0.106567,-0.115967,1.013794,-0.915527,-17.272949,-54.992676
18097,0.061768,-0.091553,1.007080,-1.220703,-17.883301,-57.495117
18106,0.040283,-0.052002,1.037842,-1.159668,-18.493652,-60.119629
18116,0.011719,-0.081177,0.995483,-0.793457,-18.981934,-62.438965
18125,0.002197,-0.072388,1.013672,-0.732422,-20.874023,-67.687988
18135,0.010254,-0.109863,1.012085,-0.671387,-21.484375,-70.678711
18146,0.010376,-0.042725,1.028442,-0.915527,-22.033691,-73.242187
18155,0.019775,-0.087646,0.945190,-1.098633,-22.888184,-75.927734
18165,0.056030,-0.068726,0.990723,-1.037598,-23.559570,-78.674316
18176,0.106445,-0.054077,1.011475,-1.159668,-24.719238,-81.420898
18185,0.100220,-0.081665,1.032959,-1.159668,-25.817871,-84.228516
18195,0.083496,-0.017700,0.993774,-1.281738,-27.099609,-86.853027
18206,-0.116089,-0.124512,0.959473,-1.342773,-27.282715,-91.186523
18216,-0.108154,-0.035034,0.934692,-0.244141,-26.794434,-92.773437
18226,-0.151001,-0.226562,1.098022,1.525879,-26.489258,-94.604492
18236,-0.027832,-0.104126,1.007690,0.976562,-27.770996,-97.473145
18246,0.045776,-0.046509,0.983154,-0.427246,-29.174805,-99.426270
18255,0.066040,0.017334,0.877686,-1.159668,-29.846191,-100.097656
18265,0.043091,0.115112,0.875977,-2.136230,-30.639648,-100.524902
18276,-0.116577,0.020264,1.017090,-1.831055,-30.639648,-100.524902
18286,-0.122192,0.019165,1.127930,-1.220703,-30.334473,-100.830078
18296,-0.096924,0.033081,1.069336,-0.183105,-29.785156,-101.440430
18306,-0.129272,0.032959,1.067627,0.549316,-29.418945,-102.050781
18315,-0.216187,0.003784,1.005005,1.525879,-29.296875,-102.722168
18325,-0.278687,0.030029,0.976318,2.258301,-29.357910,-103.149414
18337,-0.221436,-0.063965,0.953979,3.234863,-29.357910,-104.797363
18347,-0.117310,-0.090576,0.926636,3.234863,-29.357910,-105.285645
18357,-0.156860,-0.037720,1.013794,2.563477,-29.113770,-104.370117
18366,-0.146362,0.014404,0.959717,2.136230,-28.808594,-103.149414
18376,-0.077026,0.021851,0.966187,2.075195,-28.259277,-101.623535
18385,-0.072998,-0.000122,0.937256,2.563477,-27.526855,-99.426270
18395,-0.007324,-0.034058,1.005615,2.868652,-26.489258,-97.167969
18408,-0.145264,0.019775,1.027588,3.601074,-25.878906,-92.407227
18417,-0.181396,0.094360,1.092041,4.028320,-25.939941,-90.637207
18427,-0.201294,0.108398,1.087524,4.577637,-25.024414,-88.989258
18436,-0.205933,0.159058,1.052246,5.737305,-24.108887,-87.951660
18446,-0.272705,0.143677,0.970825,7.080078,-23.376465,-87.158203
18456,-0.351440,0.109985,0.953857,8.117676,-22.888184,-86.853027
18465,-0.374512,0.102295,0.968506,9.033203,-22.216797,-86.303711
18475,-0.315674,0.106445,0.989136,9.582520,-21.057129,-83.435059
18485,-0.282715,0.108765,0.992065,9.155273,-20.568848,-81.115723
18495,-0.299194,0.069580,0.949219,9.216309,-19.897461,-78.369141
18505,-0.326416,0.079224,0.964355,8.972168,-19.042969,-75.378418
18515,-0.258057,0.134521,0.992798,9.521484,-18.127441,-72.509766
18525,-0.220947,0.133423,1.001953,10.498047,-16.662598,-69.519043
18535,-0.203491,0.074463,1.003296,11.840820,-15.747070,-66.467285
18547,-0.221313,-0.015991,0.946289,13.427734,-13.183594,-60.546875
18557,-0.208862,-0.009277,1.018921,13.549805,-12.390137,-58.166504
18566,-0.161743,-0.004517,0.973877,13.732910,-11.779785,-55.969238
18576,-0.140991,-0.006714,0.988159,13.732910,-11.291504,-53.955078
18585,-0.195679,0.010376,1.000244,13.671875,-11.047363,-52.551270
18595,-0.195312,-0.011353,0.997559,13.671875,-11.108398,-51.940918
18605,-0.206421,0.079834,0.990967,13.854980,-10.803223,-51.330566
18615,-0.195435,0.110840,0.975708,13.916016,-10.314941,-50.415039
18626,-0.246948,0.097534,0.974731,15.136719,-10.009766,-49.133301
18636,-0.286987,0.066406,0.963379,15.563965,-9.582520,-49.072266
18645,-0.289551,0.098877,0.961548,15.747070,-9.094238,-49.438477
18655,-0.265137,0.132568,0.970947,15.869141,-9.155273,-50.476074
18665,-0.222900,0.084717,0.942383,16.418457,-9.765625,-52.062988
18675,-0.239746,-0.023804,0.938599,16.540527,-10.925293,-54.016113
18687,-0.231079,-0.010742,0.967529,15.930176,-11.962891,-57.006836
18697,-0.179443,0.012085,0.973511,15.563965,-11.840820,-57.983398
18706,-0.162354,0.060547,1.001953,15.686035,-11.962891,-58.105469
18716,-0.201538,-0.002075,0.982422,16.113281,-11.779785,-57.434082
18726,-0.201172,-0.073120,0.980835,16.235352,-11.657715,-57.128906
18735,-0.162720,-0.006592,1.007813,16.235352,-11.291504,-57.189941
18745,-0.125000,0.003662,1.026855,16.540527,-11.474609,-57.006836
18758,-0.229980,-0.082642,1.005371,17.883301,-11.596680,-56.945801
18767,-0.233398,-0.019287,1.036987,18.066406,-11.352539,-57.128906
18777,-0.177612,0.017090,1.030273,18.249512,-10.925293,-56.762695
18786,-0.180298,0.014282,1.012329,18.615723,-10.375977,-56.213379
18796,-0.229126,-0.036865,0.975830,19.165039,-10.314941,-55.114746
18805,-0.225464,-0.000610,0.996338,18.920898,-9.887695,-54.016113
18815,-0.150146,0.024658,1.024658,18.737793,-9.338379,-52.978516
18828,-0.186523,-0.000977,1.005981,19.042969,-9.094238,-51.513672
18837,-0.244019,0.038940,0.993286,19.104004,-9.094238,-51.574707
18847,-0.235107,0.127563,0.993530,19.226074,-8.728027,-51.940918
18856,-0.215088,0.123413,1.000977,19.592285,-8.483887,-51.940918
18866,-0.261963,0.059814,0.961182,20.446777,-8.300781,-52.124023
18875,-0.277710,0.015625,0.962402,20.935059,-8.728027,-52.307129
18885,-0.230957,0.097534,0.974243,20.812988,-8.789063,-52.856445
18897,-0.246704,0.051880,0.959351,21.423340,-8.422852,-53.344727
18907,-0.278931,0.059570,0.952637,21.423340,-8.605957,-54.016113
18917,-0.197266,0.132812,0.972656,21.362305,-8.117676,-54.321289
18926,-0.159912,0.108887,0.979004,21.545410,-7.568359,-53.894043
18936,-0.215576,0.051636,0.957153,21.911621,-7.385254,-53.405762
18945,-0.245117,0.087891,0.994141,21.545410,-7.385254,-53.344727
18955,-0.216553,0.155273,0.986938,21.240234,-6.896973,-52.551270
18968,-0.257446,0.068481,0.931885,21.667480,-6.164551,-50.781250
18977,-0.275757,0.112183,0.968018,21.606445,-5.493164,-49.804687
18987,-0.216309,0.171997,1.012085,21.606445,-4.760742,-48.645020
18996,-0.229492,0.103760,0.986572,21.911621,-4.150391,-46.936035
19006,-0.261841,0.062744,0.958008,22.216797,-3.784180,-44.982910
19015,-0.260620,0.093872,0.937866,21.911621,-2.868652,-42.846680
19025,-0.258911,0.148682,0.941162,21.606445,-1.892090,-40.344238
19037,-0.353516,0.106079,0.953613,21.789551,0.427246,-34.179687
19047,-0.342163,0.168579,0.963623,21.728516,1.464844,-31.738281
19056,-0.333496,0.186279,0.981812,21.911621,2.502441,-29.052734
