timestamp,accX,accY,accZ,gyrX,gyrY,gyrZ
12,-0.045166,0.041748,1.074463,-3.784180,3.173828,15.930176
21,-0.065186,-0.082886,1.014038,-3.784180,2.685547,15.930176
31,-0.071899,-0.055908,1.037598,-3.662109,2.624512,15.502930
40,-0.066895,0.042969,1.024170,-3.356934,2.319336,15.075684
51,-0.078735,-0.059082,0.953247,-2.563477,2.258301,14.343262
60,-0.037964,-0.028931,0.972778,-1.892090,2.502441,13.977051
70,-0.075806,-0.161865,0.835571,-1.281738,2.197266,13.427734
83,-0.035645,-0.214233,0.912720,-0.854492,1.464844,12.939453
92,-0.015869,-0.042603,1.008911,0.610352,1.342773,13.244629
102,-0.025635,-0.209839,0.950562,-0.427246,2.075195,13.305664
111,-0.029785,-0.169434,0.925659,-0.244141,2.502441,12.939453
121,-0.065308,-0.242798,0.964233,-0.305176,2.502441,12.817383
130,-0.046631,-0.221680,0.884521,-0.183105,2.319336,12.756348
141,-0.014893,-0.194580,0.887329,-0.976562,2.197266,12.878418
151,-0.028931,-0.118530,0.893799,-1.770020,1.831055,13.305664
160,0.014771,-0.116089,0.935059,-1.953125,1.586914,14.099121
171,0.052246,0.042236,1.092896,-2.441406,2.258301,14.160156
180,-0.005981,-0.044189,1.035889,-2.319336,1.770020,14.343262
190,0.013916,-0.043091,1.103638,-1.708984,2.441406,14.038086
200,0.018555,-0.107788,1.097534,-1.403809,2.319336,13.427734
211,0.047852,-0.038086,1.013428,-1.464844,1.281738,11.840820
220,0.054077,-0.028809,1.083252,-1.586914,-0.366211,9.094238
230,0.024658,-0.077026,1.019409,-1.220703,0.122070,8.178711
240,0.110229,-0.115356,1.107544,-1.159668,-0.122070,7.141113
250,0.068848,-0.029785,1.043701,-1.037598,-0.671387,5.859375
261,0.093140,-0.054687,1.066406,-0.732422,-1.220703,4.577637
270,0.061035,-0.060669,1.028809,-0.976562,-2.502441,2.807617
281,0.026855,-0.018188,1.058228,-0.610352,-2.258301,0.854492
290,0.004272,-0.141479,1.031982,-0.427246,-2.868652,-3.601074
300,-0.034302,-0.026611,0.986084,-0.427246,-2.441406,-5.615234
311,-0.036255,0.002075,1.033691,-0.671387,-2.685547,-7.690430
321,-0.056030,-0.075928,0.987915,-0.671387,-1.831055,-9.643555
330,-0.105347,0.021118,1.114624,-0.732422,-1.220703,-11.718750
340,-0.169800,-0.084351,1.006958,-0.244141,-0.976562,-14.526367
350,-0.101807,0.114136,0.895264,0.183105,-0.183105,-17.639160
363,0.544556,-0.440063,0.903687,-1.159668,-2.502441,-19.165039
372,0.008545,-0.398682,0.846436,-1.708984,-6.286621,-17.211914
382,-0.131958,0.168823,0.950317,-1.037598,-6.652832,-12.756348
392,-0.275635,0.032227,0.783813,0.549316,-0.427246,-4.638672
401,0.379761,-0.040894,0.662842,1.281738,7.202148,4.638672
411,0.463745,-0.368774,0.964722,0.854492,10.253906,9.155273
420,-0.005127,-0.232544,0.939941,-1.770020,6.652832,9.399414
433,-0.349609,0.076050,1.144653,-2.258301,3.295898,6.713867
442,-0.183472,-0.247681,1.195923,0.305176,4.272461,4.760742
452,-0.057373,-0.449829,0.887939,0.915527,2.868652,3.356934
461,0.158203,-0.253540,0.867676,-1.159668,1.708984,3.723145
471,0.073608,-0.020386,0.842773,-2.868652,2.624512,6.958008
480,0.239502,0.185059,0.958618,-2.685547,5.310059,13.000488
491,0.122192,-0.093750,1.077026,-0.732422,7.568359,19.348145
500,-0.012939,-0.231689,1.038086,0.732422,7.202148,24.291992
512,-0.147827,-0.146606,1.024048,0.000000,7.202148,24.169922
522,-0.173706,-0.023193,1.011230,-0.427246,7.263184,23.193359
531,-0.158081,-0.109375,0.970215,0.000000,6.164551,21.789551
541,-0.154907,-0.217407,0.901001,0.671387,5.371094,20.874023
550,-0.086426,-0.256470,1.008057,0.183105,5.065918,20.263672
560,-0.007324,-0.195312,0.876587,-0.732422,5.004883,20.507812
571,0.085327,-0.177490,1.022705,-1.892090,5.432129,21.789551
581,0.095825,-0.106445,1.012085,-1.647949,4.760742,21.362305
590,0.084961,-0.201538,1.043823,-1.220703,4.272461,20.202637
600,-0.006714,-0.441284,0.971558,-1.159668,2.929688,18.127441
611,0.023682,-0.161011,1.028931,-2.014160,2.136230,15.014648
620,0.063354,-0.253662,0.874023,-2.807617,1.281738,13.000488
631,0.154297,-0.147827,0.914185,-3.356934,0.549316,10.864258
640,0.166016,-0.321655,0.838989,-2.990723,-0.549316,9.155273
650,0.165405,-0.305420,0.804443,-4.638672,-2.136230,8.605957
661,0.208984,-0.020264,0.988403,-6.042480,-2.258301,8.300781
670,0.187256,0.021484,1.187988,-6.164551,-2.319336,7.934570
680,0.169067,-0.069336,0.945435,-5.676270,-2.502441,6.469727
692,0.185913,0.067139,1.099609,-5.310059,-3.234863,4.089355
703,0.130127,-0.179321,0.924316,-5.249023,-6.469727,-2.136230
712,0.146973,0.084229,0.963379,-5.920410,-7.080078,-4.455566
722,0.123901,0.049194,0.889160,-6.042480,-7.324219,-5.737305
732,0.141968,0.108765,0.955322,-5.920410,-6.652832,-6.042480
742,0.107666,-0.085937,0.915161,-5.371094,-5.615234,-6.042480
751,0.081787,0.049683,1.060547,-5.493164,-5.737305,-6.103516
761,0.099243,0.020142,1.205322,-5.065918,-6.042480,-6.042480
770,0.072510,-0.016235,1.171265,-4.150391,-5.615234,-5.981445
780,0.075439,0.065308,1.166626,-2.807617,-5.493164,-5.615234
791,0.091919,-0.318237,0.924072,-1.220703,-5.859375,-4.089355
801,0.077515,-0.137329,0.964233,-0.244141,-5.981445,-2.258301
811,0.041748,-0.254395,0.917114,-0.793457,-4.821777,0.366211
820,0.014282,-0.106079,0.940186,-1.708984,-3.784180,2.807617
831,0.014038,-0.193848,0.924316,-2.441406,-2.624512,5.126953
840,-0.031006,-0.129272,0.933838,-3.356934,-2.197266,6.958008
850,-0.028931,0.004761,1.080078,-3.540039,-2.563477,7.873535
862,-0.004761,0.018188,1.007080,-3.479004,-2.807617,8.728027
871,0.010132,-0.058228,0.983154,-3.295898,-2.563477,9.338379
881,-0.006836,-0.181396,0.910645,-3.356934,-2.746582,9.643555
890,-0.041260,0.024170,1.029663,-3.723145,-2.624512,9.704590
900,-0.028320,-0.101929,0.961060,-3.906250,-2.746582,9.887695
910,-0.008667,0.019043,1.020264,-3.906250,-2.197266,10.192871
923,-0.036865,-0.012207,0.948242,-4.272461,-1.892090,10.681152
932,-0.039185,0.051025,1.019287,-4.455566,-1.464844,10.681152
942,-0.110596,-0.122192,0.940430,-3.906250,-1.770020,10.131836
951,-0.075073,0.020508,1.048096,-3.479004,-1.586914,8.972168
961,-0.088501,-0.141357,0.944458,-2.807617,-1.953125,8.117676
971,-0.025269,-0.082397,0.956665,-1.831055,-1.708984,7.019043
981,-0.034546,-0.073242,1.001953,-1.037598,-2.014160,5.859375
990,0.030029,-0.241211,0.963013,15.258789,-2.075195,4.760742
1000,0.032349,-0.062988,1.079346,0.732422,-1.892090,4.821777
1010,0.031616,-0.286133,0.915405,1.586914,-1.708984,4.699707
1020,0.077026,-0.121216,0.968872,2.014160,-1.525879,5.187988
1030,0.083374,-0.217041,0.968018,2.075195,-1.403809,5.493164
1040,0.073975,-0.233398,0.900269,2.441406,-1.281738,6.286621
1050,0.064331,-0.085327,1.016724,2.624512,-1.586914,7.141113
1061,0.054321,-0.291260,0.946289,2.319336,-2.075195,8.361816
1071,0.022339,-0.122437,0.979370,1.342773,-2.014160,8.483887
1081,-0.002319,-0.213989,0.979858,0.244141,-1.892090,8.605957
1090,0.010986,-0.079712,1.035767,-0.610352,-1.586914,8.056641
1100,0.001953,-0.038696,1.045410,-1.281738,-2.075195,7.263184
1110,-0.031616,-0.199585,0.932861,-1.464844,-2.075195,7.019043
1120,0.000854,-0.038574,1.028198,-1.892090,-2.197266,6.896973
1131,-0.007446,-0.068726,1.013184,-2.624512,-2.197266,7.202148
1141,-0.039917,0.008423,1.113159,-2.868652,-1.831055,7.812500
1151,0.017578,-0.100464,1.092041,-2.319336,-1.464844,9.033203
1160,0.009644,-0.114746,1.060913,-2.319336,-1.159668,9.826660
1170,0.027100,0.024048,1.095459,-2.380371,-1.342773,10.437012
1180,-0.034302,0.025513,1.095215,-2.197266,-1.525879,11.230469
1190,0.001587,-0.088379,1.071289,-1.770020,-1.708984,11.352539
1202,-0.009277,-0.091064,0.954224,-0.610352,-1.953125,11.657715
1212,-0.078979,-0.189087,0.905884,0.000000,-1.586914,11.718750
1222,-0.015625,-0.140259,0.950317,0.305176,-1.892090,11.108398
1232,-0.076538,-0.225220,0.931641,0.183105,-1.953125,10.192871
1241,-0.012573,-0.088989,0.988525,0.000000,-2.075195,8.483887
1251,-0.021362,-0.052734,1.084106,0.122070,-2.441406,6.774902
1260,-0.002563,-0.256470,0.903198,0.366211,-2.685547,5.310059
1270,-0.012939,-0.117310,0.956177,0.366211,-2.868652,3.601074
1282,0.011475,-0.238281,0.958130,0.488281,-2.990723,2.014160
1291,0.030518,-0.067139,0.994141,0.610352,-3.051758,1.464844
1301,0.044434,-0.011230,1.022583,0.732422,-2.685547,1.220703
1310,0.037598,-0.187256,0.979492,0.793457,-2.441406,0.854492
1320,0.005493,-0.033203,1.010864,0.488281,-2.868652,0.244141
1330,0.054565,0.034424,1.120850,0.427246,-2.807617,-0.427246
1343,0.054199,-0.107544,0.981567,0.854492,-3.356934,-2.197266
1352,0.070190,0.028198,1.015747,0.976562,-3.601074,-2.929688
1361,0.046509,-0.120972,0.963867,0.915527,-3.540039,-3.479004
1371,0.080444,-0.050903,0.966553,0.610352,-3.967285,-3.845215
1380,0.093140,-0.038330,1.007080,0.305176,-4.028320,-3.784180
1390,0.065552,-0.104736,0.926270,-0.061035,-3.417969,-3.295898
1401,0.060669,0.024292,1.054565,-0.061035,-2.929688,-2.990723
1410,0.049438,-0.013550,1.017822,0.305176,-2.746582,-2.929688
1422,-0.031616,0.073364,1.107910,1.098633,-2.502441,-3.234863
1431,-0.022095,-0.038696,1.131104,1.831055,-2.563477,-3.234863
1441,0.027222,-0.293091,1.050659,2.807617,-1.708984,-2.990723
1450,0.099731,-0.242187,1.069580,2.563477,-1.159668,-2.685547
1460,-0.015869,-0.276245,1.008545,2.441406,-2.136230,-2.319336
1470,-0.028687,-0.251831,0.889893,2.502441,-2.868652,-1.892090
1480,0.080566,0.019897,0.901733,2.197266,-2.502441,-0.793457
1491,0.062744,-0.264282,0.902588,1.586914,-0.549316,2.075195
1501,0.020996,-0.025269,1.036499,0.976562,-0.244141,2.563477
1511,-0.057983,-0.161011,1.001221,0.732422,-0.610352,2.197266
1520,-0.094482,-0.224121,0.953979,0.549316,-0.854492,1.159668
1530,-0.081787,0.028809,1.061768,0.793457,-0.366211,0.427246
1540,-0.034912,-0.050537,1.109253,1.037598,-0.671387,0.061035
1550,-0.042358,-0.186523,0.974121,1.220703,-0.854492,-0.183105
1560,0.002319,-0.066162,1.043091,1.647949,0.183105,2.136230
1570,-0.009521,-0.234375,0.811523,0.854492,0.549316,3.479004
1580,0.033569,-0.127197,0.896729,-0.061035,1.098633,4.516602
1590,-0.038940,-0.165771,0.846313,-0.549316,2.136230,4.882812
1600,-0.042969,0.011963,0.942383,-1.525879,1.892090,4.394531
1610,-0.084229,-0.118896,0.953491,-1.647949,1.770020,3.662109
1620,-0.123291,-0.240479,0.912720,-1.770020,1.342773,0.122070
1630,-0.126831,0.011841,1.175659,-2.197266,1.708984,-1.342773
1640,-0.051514,-0.238159,1.088867,-1.220703,2.197266,-2.197266
1650,-0.029907,-0.122437,1.027344,-0.122070,2.319336,-2.929688
1660,0.054932,-0.087646,1.048950,0.305176,2.685547,-2.807617
1670,0.067139,-0.252686,0.959595,0.000000,3.051758,-2.197266
1680,0.092529,-0.084717,0.978638,-0.183105,3.417969,-1.403809
1693,0.088867,-0.317261,0.916382,0.305176,3.723145,0.671387
1702,0.107422,-0.251587,0.916260,-0.244141,3.112793,1.098633
1712,0.144165,-0.132690,1.022461,-0.305176,3.356934,1.342773
1721,0.113892,-0.264526,0.883911,-0.732422,2.563477,1.647949
1730,0.112671,-0.079102,0.951172,-1.586914,2.136230,2.258301
1740,0.107788,-0.025635,0.985352,-2.441406,1.647949,2.685547
1750,0.067261,-0.187866,0.859985,-2.807617,1.708984,3.356934
1760,0.052979,-0.002319,0.959473,-3.112793,1.586914,4.028320
1771,0.062500,-0.103638,0.951782,-4.150391,1.708984,5.249023
1781,0.024414,0.187500,1.086426,-4.516602,2.136230,6.103516
1790,0.000244,0.078735,1.162964,-4.699707,1.892090,6.896973
1800,0.003662,0.032471,1.157349,-4.150391,1.770020,6.835937
1810,0.008911,0.115356,1.153198,-3.479004,1.647949,7.080078
1820,-0.002686,0.040771,1.127930,-2.258301,2.380371,7.995605
1831,-0.021973,-0.194092,0.986938,-1.281738,2.685547,9.704590
1841,-0.007935,-0.117554,0.918579,-1.281738,2.685547,11.108398
1850,0.004272,-0.130737,0.854858,-1.708984,2.685547,12.268066
1860,-0.001587,-0.178955,0.808716,-2.075195,2.929688,13.732910
1870,-0.037354,-0.160278,0.783081,-3.112793,2.868652,13.977051
1880,-0.015015,0.046997,1.011719,-4.028320,2.014160,13.305664
1890,-0.021484,-0.161011,0.975586,-3.540039,1.770020,12.573242
1901,-0.020996,-0.145020,1.024902,-2.197266,1.037598,10.498047
1911,0.008057,-0.206299,1.052490,-1.281738,1.037598,9.460449
1920,0.012817,-0.240479,1.018555,-0.732422,0.549316,8.911133
1930,0.016357,-0.123779,1.018555,-0.183105,0.305176,9.216309
1940,0.000732,-0.358643,0.769165,-0.122070,0.610352,9.765625
1950,0.061401,-0.217773,0.790283,-0.671387,1.403809,9.704590
1960,0.101074,-0.100830,0.788696,-1.770020,1.342773,10.192871
1971,0.060791,-0.079956,0.776123,-4.455566,-0.061035,10.131836
1981,0.029907,-0.010376,1.067871,-4.394531,-0.854492,9.643555
1990,0.095337,-0.091919,1.091187,-4.333496,-0.976562,8.972168
2000,0.084961,0.046753,1.189697,-4.455566,-1.037598,9.033203
2010,0.059937,-0.035400,1.132324,-4.089355,-1.037598,9.338379
2020,0.017456,-0.046753,1.115601,-3.173828,-1.159668,10.192871
2029,0.041138,0.046875,1.128784,-2.563477,-1.098633,11.291504
2041,0.005127,-0.159180,1.044312,-1.037598,-1.159668,13.061523
2051,-0.020752,-0.079956,1.015747,-0.732422,-1.098633,13.732910
2061,-0.056519,-0.206909,0.850342,-0.732422,-1.647949,14.221191
2070,-0.048462,-0.078003,0.926880,-1.220703,-1.403809,14.343262
2080,-0.069336,-0.178223,0.910400,-1.770020,-1.525879,14.099121
2089,-0.056274,-0.276978,0.853271,-2.258301,-1.098633,13.549805
2100,0.012085,-0.076538,1.012573,-2.929688,-1.464844,12.817383
2110,0.010498,-0.245483,0.916504,-3.723145,-2.502441,10.314941
2120,0.005615,-0.293457,0.925293,-5.249023,-3.173828,9.094238
2130,0.011719,-0.057251,1.083252,-5.126953,-3.051758,8.483887
2140,0.021362,-0.047974,1.074463,-4.760742,-3.540039,7.629395
2150,0.035645,-0.005371,1.122681,-3.906250,-3.234863,7.690430
2160,0.002563,-0.162231,1.073486,-3.051758,-3.173828,8.361816
2170,0.042603,-0.161987,1.052002,-1.953125,-2.136230,8.605957
2179,0.032104,-0.092773,1.111450,-0.793457,-2.441406,9.277344
2191,-0.008667,-0.257324,0.971558,0.305176,-2.746582,9.948730
2201,0.018677,-0.174194,0.973267,0.915527,-3.234863,10.070801
2210,-0.005127,-0.244629,0.933594,0.915527,-3.479004,10.131836
2220,-0.027710,-0.341919,0.808594,-0.122070,-3.356934,9.948730
2230,0.047607,-0.089355,0.943604,-1.525879,-3.845215,9.216309
2240,0.036011,-0.079590,0.963379,-2.014160,-4.394531,8.789063
2251,0.021851,-0.113037,0.810059,-1.525879,-4.638672,8.239746
2260,0.048462,-0.080688,0.977539,-1.159668,-4.577637,7.812500
2271,-0.018555,-0.169678,0.934814,-1.098633,-4.882812,7.629395
2281,-0.043457,0.022339,1.104370,-0.549316,-4.882812,7.385254
2290,-0.030518,-0.099976,1.081299,0.244141,-4.821777,6.958008
2300,-0.086426,-0.323120,0.933228,0.427246,-4.638672,6.225586
2310,-0.057739,-0.157715,0.982544,0.366211,-4.333496,5.249023
2319,-0.048340,0.103516,1.093384,0.244141,-3.967285,4.577637
2331,-0.031860,-0.171875,0.930176,-0.244141,-4.272461,1.892090
2341,0.020386,0.064819,1.014893,-1.342773,-5.065918,0.183105
2350,0.068359,0.093872,1.108887,-1.586914,-5.310059,-1.159668
2360,0.091309,-0.099854,0.989380,-1.281738,-5.187988,-2.075195
2370,0.114258,-0.062988,1.009033,-1.281738,-5.676270,-2.441406
2380,0.100952,0.039673,1.031982,-1.098633,-5.676270,-2.441406
2390,0.131958,-0.116577,0.951050,-0.732422,-5.493164,-2.441406
2401,0.087646,-0.105835,0.945190,-0.610352,-5.981445,-3.234863
2411,0.023926,-0.147217,0.930298,-0.854492,-6.225586,-3.845215
2420,0.038452,-0.040405,1.024414,-0.671387,-6.225586,-4.943848
2430,0.025269,-0.157715,1.050415,-0.671387,-6.530762,-5.432129
2439,-0.017578,-0.275391,0.998169,-1.037598,-6.896973,-5.981445
2450,0.011841,-0.044189,1.035278,-1.464844,-6.774902,-5.859375
2460,0.020264,0.012573,1.106079,-1.525879,-6.286621,-5.310059
2471,-0.014893,-0.147583,0.897095,-0.976562,-4.821777,-3.906250
2481,0.068848,0.034546,1.052490,-1.098633,-4.943848,-3.173828
2490,0.026367,-0.226807,0.898071,-1.098633,-4.455566,-2.563477
2500,0.019653,-0.180786,0.858521,-1.342773,-4.516602,-2.502441
2510,-0.017212,0.068604,1.003662,-1.708984,-3.906250,-2.380371
2520,-0.015747,-0.026367,0.993652,-1.586914,-4.211426,-2.807617
2530,-0.122559,-0.148071,0.927734,-1.403809,-3.540039,-3.234863
2540,-0.043579,0.015259,1.061157,-1.159668,-2.990723,-4.699707
2549,-0.005981,-0.122314,1.055664,-0.915527,-2.807617,-5.676270
2560,-0.016479,-0.056763,1.070435,-0.244141,-3.112793,-6.591797
2570,0.057007,-0.088257,1.033325,0.671387,-3.601074,-7.019043
2580,0.041260,-0.181641,0.942505,0.976562,-3.051758,-7.446289
2589,0.116455,-0.073242,0.970703,0.549316,-3.051758,-7.568359
2601,0.113770,-0.088379,0.998901,-0.122070,-2.502441,-6.225586
2611,0.044800,-0.012329,0.949463,-0.549316,-2.258301,-5.249023
2620,0.061035,-0.123901,1.025635,-0.183105,-1.464844,-4.089355
2630,0.042236,-0.241699,0.907471,-0.366211,-1.464844,-3.295898
2640,0.023926,-0.001221,1.041260,-1.159668,-2.075195,-2.136230
2650,0.015625,0.060181,1.056763,-1.403809,-1.892090,-1.159668
2660,-0.023926,-0.099976,0.970093,-1.342773,-1.831055,-0.244141
2669,-0.045654,0.019775,0.995483,-0.854492,-0.854492,0.610352
2681,-0.031372,-0.199585,0.987183,-0.366211,-0.793457,2.563477
2691,-0.070312,-0.106567,0.985596,0.305176,0.183105,3.051758
2700,-0.019043,-0.007690,1.061768,0.061035,-0.061035,3.234863
2710,-0.031494,-0.194580,0.976440,0.122070,0.366211,3.112793
2719,-0.070190,-0.141113,0.902588,-0.183105,0.061035,2.746582
2730,-0.015381,-0.043823,1.009277,-0.366211,0.000000,1.892090
2739,-0.047363,-0.175659,0.927368,-0.732422,-0.427246,1.037598
2751,-0.013672,-0.083862,1.023071,-1.220703,-0.244141,-0.854492
2761,-0.035645,-0.178589,0.906250,-1.525879,0.122070,-1.342773
2770,-0.002930,0.008301,1.016235,-1.831055,0.061035,-1.586914
2780,0.029663,-0.085693,0.986328,-1.892090,0.122070,-1.647949
2789,0.015747,-0.224365,0.877563,-2.136230,0.305176,-1.525879
2800,0.041016,0.005859,0.998413,-2.197266,0.732422,-1.281738
2811,0.058350,-0.114868,0.999390,-2.319336,0.183105,-0.549316
2821,0.020020,0.073364,1.020142,-2.441406,0.366211,-0.427246
2830,0.031494,-0.110718,1.028687,-2.197266,0.244141,-0.061035
2840,-0.026001,-0.156616,0.911499,-2.197266,0.244141,0.183105
2849,0.010986,0.036621,1.057983,-2.624512,0.488281,0.366211
2860,-0.007446,0.008301,1.076904,-2.563477,1.098633,0.915527
2869,-0.025269,-0.169312,0.923462,-2.563477,0.671387,1.342773
2881,0.013794,-0.032227,0.985229,-2.563477,0.976562,2.380371
2890,0.022705,-0.046265,0.946777,-2.929688,0.610352,2.746582
2901,0.049194,0.061523,1.019653,-2.990723,0.915527,2.929688
2910,0.051025,-0.117432,1.002808,-3.295898,0.854492,3.417969
2920,-0.030151,-0.020630,0.993042,-2.929688,1.037598,3.479004
2929,0.008179,-0.106567,1.046387,-2.624512,0.671387,3.356934
2940,0.008423,-0.192993,0.981079,-2.441406,0.854492,3.479004
2949,-0.002686,0.006470,1.066650,-2.624512,0.915527,3.906250
2959,-0.008423,-0.041870,1.014893,-2.807617,1.037598,5.554199
2970,-0.024536,0.013794,1.059204,-2.685547,1.770020,6.652832
2980,-0.018677,-0.058594,1.146484,-2.746582,1.037598,7.507324
2989,-0.014893,-0.119507,1.160400,-2.014160,1.831055,7.873535
2999,-0.039307,-0.102539,1.090820,-1.281738,1.770020,7.995605
3010,-0.044922,-0.105103,1.048218,-0.549316,1.586914,7.995605
3020,-0.025024,-0.167480,0.922241,-0.244141,1.159668,7.507324
3031,0.016846,-0.203003,0.826538,-0.427246,0.244141,5.981445
3040,-0.003418,-0.184204,0.838867,-1.586914,0.122070,5.126953
3050,0.029785,0.014038,0.930908,-2.502441,-0.122070,4.211426
3059,-0.017944,-0.118774,0.907349,-3.051758,-0.305176,3.234863
3070,-0.024414,0.032593,0.988647,-3.479004,-0.488281,1.953125
3080,-0.015991,-0.057617,1.020752,-3.417969,-0.610352,0.671387
3091,-0.001465,-0.115112,0.972534,-2.685547,-0.671387,-1.281738
3101,0.041016,-0.206787,0.975830,-1.953125,-0.793457,-1.831055
3111,0.055420,-0.012207,0.970703,-1.464844,-0.732422,-1.953125
3120,0.070557,0.002197,0.995117,-1.037598,-0.305176,-1.831055
3130,0.077881,-0.280029,0.856934,-0.549316,-0.061035,-1.953125
3140,0.071411,-0.098389,0.960815,-0.854492,-0.366211,-2.258301
3149,0.077393,-0.099854,1.054443,-0.732422,-1.098633,-2.685547
3160,0.041626,-0.228760,0.980103,-0.854492,-1.342773,-3.479004
3169,0.030640,-0.060181,1.052002,-0.854492,-1.525879,-4.760742
3181,0.018066,-0.153564,0.925293,-0.915527,-1.708984,-4.699707
3191,0.009888,0.038330,1.056763,-0.793457,-1.281738,-4.150391
3200,0.023071,-0.132446,1.012207,-0.366211,-0.976562,-3.662109
3210,-0.008667,-0.077515,0.938721,-0.061035,-1.037598,-2.685547
3220,-0.015747,0.013184,1.042236,0.488281,-0.854492,-2.197266
3229,-0.008057,-0.199341,0.960571,0.488281,-0.427246,-1.953125
3241,-0.033936,0.053345,1.078369,0.183105,-0.305176,-1.281738
3251,-0.028687,-0.110718,1.046631,-0.183105,0.122070,-0.915527
3261,-0.054932,-0.170166,0.932495,0.061035,0.000000,-0.549316
3270,-0.023682,-0.005249,1.002563,0.366211,1.281738,0.122070
3280,-0.019043,-0.087158,1.048584,0.061035,1.281738,1.037598
3290,-0.012573,-0.108154,0.986206,-0.549316,0.793457,1.464844
3300,-0.020752,-0.078491,1.017456,-0.976562,1.220703,2.258301
3309,0.007813,-0.094482,0.955078,-2.502441,0.915527,3.295898
3320,-0.016724,0.015015,0.991699,-2.258301,1.586914,3.723145
3330,-0.047363,-0.041016,0.965332,-2.258301,1.831055,3.662109
3339,-0.006836,0.043457,1.051392,-2.136230,1.586914,3.906250
3350,-0.043091,-0.177979,0.970215,-1.892090,1.281738,3.845215
3360,-0.006714,-0.035156,0.996948,-1.892090,1.525879,3.784180
3369,-0.015747,-0.070190,0.985718,-1.708984,1.953125,3.784180
3381,-0.021362,-0.012695,0.930542,-1.586914,1.220703,3.356934
3391,-0.012207,-0.150635,0.879761,-1.953125,1.831055,3.540039
3401,-0.004761,-0.065674,0.888062,-2.319336,2.075195,3.906250
3410,-0.019409,0.016602,0.982544,-2.624512,1.953125,4.455566
3420,0.002563,-0.143677,0.925293,-2.319336,1.892090,5.004883
3430,-0.027466,-0.047729,1.024780,-2.319336,2.990723,5.554199
3439,0.014648,-0.149780,0.996094,-1.892090,2.807617,6.164551
3451,0.040283,0.000244,1.074707,-1.892090,2.441406,6.958008
3460,0.016235,-0.141968,1.017212,-1.586914,2.258301,7.202148
3470,-0.005371,-0.131104,0.929321,-1.525879,1.647949,7.446289
3479,0.030640,-0.139282,0.982544,-1.281738,2.075195,7.995605
3490,0.001953,-0.243530,0.863159,-1.342773,2.197266,8.422852
3499,0.030029,-0.032227,0.969482,-2.136230,2.014160,8.605957
3511,0.010376,-0.114258,0.939453,-3.051758,0.915527,7.995605
3521,0.000854,-0.067627,1.024414,-2.929688,0.976562,7.568359
3530,-0.000610,-0.213867,0.995972,-2.868652,0.610352,7.080078
3540,-0.014038,-0.009521,1.065552,-3.234863,0.244141,6.652832
3549,-0.019043,-0.020508,1.086670,-3.479004,0.305176,6.347656
3560,-0.007324,-0.084717,0.984985,-3.601074,0.549316,6.408691
3570,-0.024902,-0.000732,1.062622,-3.479004,0.488281,6.103516
3581,-0.020996,-0.163696,0.948853,-3.540039,0.000000,5.310059
3591,0.043213,-0.021729,1.054077,-3.845215,0.183105,5.371094
3600,-0.003174,-0.066528,1.030762,-3.967285,0.671387,4.943848
3609,-0.002808,-0.007568,1.034302,-4.150391,0.305176,4.455566
3620,0.050415,-0.058594,1.059448,-3.967285,-0.244141,4.150391
3630,0.020142,-0.066772,1.053833,-3.356934,0.122070,3.540039
3640,0.058838,-0.106201,1.069092,-2.746582,-0.854492,2.746582
3650,0.053833,-0.190308,0.993652,-2.258301,-1.403809,2.136230
3659,0.037720,-0.106079,0.959595,-2.380371,-1.403809,1.342773
3670,0.053955,-0.305786,0.822266,-2.502441,-1.525879,0.854492
3680,0.085693,-0.231445,1.043823,-2.685547,-1.647949,0.427246
3690,-0.082397,-0.209595,0.988159,-3.784180,-1.892090,0.122070
3700,0.032349,0.056152,1.053711,-7.873535,-1.159668,0.732422
3709,0.007935,0.103638,1.010742,-7.568359,-1.220703,0.488281
3720,0.036499,-0.039917,0.921387,-5.187988,-2.075195,-0.244141
3729,-0.075928,-0.072632,0.821777,-3.723145,-2.197266,-1.342773
3739,0.037598,-0.511475,0.027954,-5.126953,-1.342773,-0.488281
3750,-0.021606,-0.018555,0.696533,-9.887695,-1.586914,0.122070
3759,0.070801,0.156982,0.425781,-16.784668,-2.441406,0.061035
3770,0.028687,0.273804,0.075562,-21.850586,-2.502441,-1.098633
3780,-0.050781,0.791016,0.487427,-23.925781,-1.403809,-0.488281
3790,-0.102051,0.848877,0.906006,-21.667480,-1.037598,1.342773
3799,-0.031616,0.205811,1.084595,-18.615723,-0.366211,-0.427246
3809,-0.109253,0.472534,1.190186,-22.949219,-1.159668,-2.868652
3820,-0.011963,0.784424,1.001221,-25.024414,-0.671387,-3.540039
3829,0.007202,0.833862,0.824585,-23.010254,-0.244141,-2.624512
3839,-0.031616,0.726929,0.967773,-19.897461,-0.122070,-1.342773
3849,0.057983,0.459717,1.320557,-16.479492,0.000000,-0.183105
3860,0.046997,0.189209,1.483765,-13.916016,0.915527,0.976562
3869,0.105347,0.221558,1.466553,-13.977051,0.732422,2.746582
3881,0.105713,0.594238,1.093872,-12.817383,0.427246,2.807617
3890,0.018433,0.489624,1.137451,-10.498047,0.244141,2.990723
3899,0.036499,0.123535,1.265259,-7.873535,-0.244141,3.356934
3910,0.029663,0.024414,1.375488,-6.347656,-0.610352,3.479004
3919,0.030762,0.162598,1.262451,-7.690430,-0.549316,3.356934
3929,0.018188,0.326904,1.196167,-8.422852,-0.366211,2.746582
3942,-0.027344,0.198486,1.376099,-3.540039,-1.159668,0.549316
3951,-0.024170,0.060181,1.393555,-1.037598,-2.014160,-1.098633
3961,-0.042236,0.188965,1.111572,-1.159668,-2.136230,-1.953125
3971,0.029175,0.436768,1.008545,-1.892090,-1.464844,-1.953125
3980,0.040283,0.583984,0.908813,-1.464844,-0.854492,-1.342773
3990,0.063965,0.433472,1.029175,-0.854492,-1.220703,-0.976562
3999,0.033203,0.265015,1.106445,-0.732422,-1.525879,-0.976562
4011,0.007324,0.388672,0.879517,-1.403809,-2.075195,-1.586914
4020,0.064941,0.430542,0.842041,-1.647949,-1.403809,-1.464844
4029,0.094360,0.598877,1.109863,-1.770020,-1.098633,-1.159668
4039,0.012939,0.500610,0.976807,-1.220703,-1.770020,-0.427246
4050,0.028809,0.305298,0.758911,-0.549316,-1.647949,0.122070
4059,0.077148,0.323120,0.857788,-0.793457,-0.854492,0.610352
4071,0.070923,0.574585,1.086182,-1.770020,-0.976562,1.464844
4080,-0.053223,0.409790,0.874634,-0.915527,-1.098633,1.647949
4090,-0.020874,0.379395,0.784668,-0.671387,-0.549316,1.647949
4099,0.021606,0.552368,1.116821,-1.281738,-0.183105,1.708984
4110,-0.044067,0.602783,1.162720,-1.708984,-0.610352,1.831055
4120,-0.097046,0.355347,0.750000,-1.770020,-0.610352,2.258301
4129,-0.044067,0.416870,0.658813,-2.685547,-0.488281,2.624512
4140,-0.020630,0.764404,1.072754,-3.662109,0.549316,2.929688
4149,-0.041260,0.640381,1.163086,-2.075195,-0.183105,3.234863
4159,-0.068848,0.368408,1.012207,-1.953125,0.366211,3.662109
4170,-0.002808,0.534790,1.039795,-2.258301,1.892090,4.943848
4179,0.031006,0.553223,1.126343,-2.075195,2.807617,6.103516
4190,-0.023071,0.307739,0.969238,-1.464844,1.342773,6.958008
4199,-0.007568,0.214355,0.926758,-0.610352,1.525879,7.263184
4210,0.048218,0.327515,1.029419,-1.647949,1.953125,7.324219
4219,0.042358,0.463867,1.204956,-3.845215,0.976562,6.225586
4231,-0.032715,0.392456,0.929687,-2.197266,0.793457,5.859375
4240,-0.000244,0.193359,0.804565,-0.915527,1.403809,5.737305
4250,0.052368,0.456543,1.145752,-1.892090,2.563477,5.737305
4259,0.019775,0.634033,1.205933,-2.807617,1.708984,5.676270
4269,-0.035645,0.340332,0.840942,-2.685547,0.915527,5.249023
4281,0.001343,0.249512,0.738892,-1.953125,2.258301,4.272461
4290,-0.001343,0.624023,1.283936,-2.441406,0.854492,3.417969
4300,-0.068115,0.444946,1.043945,-1.342773,0.976562,2.624512
4309,-0.018433,0.162720,0.713135,-0.427246,1.220703,2.136230
4319,0.080688,0.532959,0.957520,-1.342773,1.953125,2.258301
4329,0.033569,0.736572,1.147583,-2.441406,1.098633,2.380371
4339,-0.024536,0.492432,1.024780,-0.732422,0.671387,2.136230
4349,-0.045166,0.102539,0.739258,0.671387,0.793457,1.770020
4361,0.070679,0.846802,1.287231,-3.295898,1.647949,2.014160
4371,-0.015747,0.649536,1.021362,-3.173828,0.854492,1.831055
4381,-0.063110,0.346558,0.746216,-1.037598,0.549316,1.220703
4390,0.055420,0.384644,0.837646,-0.366211,1.586914,0.732422
4400,0.093506,0.731079,1.225098,-1.953125,1.464844,0.671387
4409,0.018677,0.832397,1.319336,-3.356934,1.098633,0.427246
4419,-0.095093,0.445435,0.827271,-1.953125,0.732422,0.244141
4429,0.005371,0.210693,0.602539,-0.244141,1.586914,-0.122070
4440,0.026611,0.770264,1.385498,-3.417969,0.915527,-0.976562
4450,-0.093018,0.377441,1.016968,-2.319336,0.488281,-1.403809
4460,-0.017944,0.120117,0.723633,-0.915527,1.098633,-1.770020
4469,0.116577,0.551147,1.009033,-1.281738,1.586914,-1.403809
4480,0.074341,0.774170,1.366577,-2.624512,1.647949,-0.793457
4489,-0.032593,0.526367,1.041138,-2.075195,0.976562,-0.915527
4499,0.092529,-0.036621,0.781494,-0.976562,0.305176,-1.525879
4511,-0.004761,0.515137,0.961060,-0.976562,-2.380371,-2.990723
4520,-0.096680,0.160400,0.793579,-0.305176,-4.333496,-4.699707
4530,-0.038452,0.828491,1.102661,-2.075195,-2.868652,-5.493164
4540,0.264648,0.735596,1.007935,-2.624512,0.976562,-3.540039
4549,0.287842,0.074341,1.042603,1.525879,3.295898,-1.586914
4559,0.109009,0.208984,1.250977,2.868652,2.929688,-2.563477
4569,0.027466,0.111328,1.127075,2.746582,0.305176,-6.896973
4580,0.071045,0.023682,1.001343,5.187988,-4.150391,-9.826660
4589,-0.132935,0.049438,0.915039,4.699707,-5.004883,-10.314941
4599,-0.121460,-0.051636,0.836304,4.882812,-4.211426,-9.399414
4609,-0.112549,0.118408,0.945557,4.028320,-2.136230,-7.873535
4619,0.044678,0.033936,1.027466,4.394531,-0.122070,-6.286621
4629,0.031860,-0.028442,1.030884,4.943848,-0.122070,-5.920410
4639,0.070557,0.024902,1.030151,4.821777,-1.464844,-6.347656
4649,0.021973,0.096191,0.964966,5.432129,-1.647949,-6.530762
4659,0.053223,0.060669,0.954224,4.333496,-2.380371,-6.774902
4670,0.070068,-0.033813,0.970825,4.943848,-2.197266,-5.981445
4679,0.073242,-0.035522,1.213013,4.943848,-2.624512,-4.394531
4689,0.192261,0.302734,1.660156,3.906250,-2.136230,-2.807617
4699,0.065430,0.042114,1.614746,5.371094,-1.464844,-2.441406
4711,-0.103882,0.106445,1.560913,7.751465,-2.990723,-4.272461
4721,-0.160278,-0.001831,1.117432,10.742188,-2.929688,-4.333496
4730,-0.075806,0.205688,0.955200,11.474609,-1.708984,-3.906250
4739,-0.071289,0.067017,0.819824,11.352539,-0.976562,-3.356934
4749,0.018066,0.128296,0.789062,10.498047,-1.037598,-4.760742
4759,-0.130859,0.266968,0.841064,9.033203,-1.464844,-5.859375
4769,-0.109619,0.057495,1.070679,8.483887,-1.220703,-6.591797
4781,-0.042358,-0.023437,0.903931,7.324219,0.000000,-6.347656
4791,0.041016,-0.144043,1.126587,7.995605,1.098633,-6.469727
4800,0.039551,-0.154541,1.013184,8.483887,1.525879,-6.530762
4810,0.040161,-0.135864,0.961548,8.422852,1.586914,-6.042480
4819,0.032593,-0.292358,1.032837,8.789063,-0.488281,-5.371094
4829,0.024902,-0.383179,0.852783,8.789063,-0.244141,-4.333496
4839,-0.009399,-0.273193,0.757202,8.483887,-0.061035,-2.746582
4849,-0.034790,-0.129761,0.739624,7.141113,0.976562,2.319336
4861,-0.075073,-0.166504,0.878296,6.225586,2.075195,5.432129
4870,-0.054321,-0.201782,0.885010,5.432129,2.868652,8.483887
4880,-0.122437,-0.216553,0.886963,5.004883,3.479004,10.742188
4889,-0.123047,-0.216797,0.853638,4.333496,4.028320,12.145996
4899,-0.125000,-0.192505,0.783203,4.089355,3.723145,12.817383
4909,-0.134766,-0.135254,0.790161,3.845215,4.211426,13.183594
4919,-0.119873,-0.093384,0.848755,3.723145,4.882812,13.549805
4930,-0.062500,-0.047974,0.931396,3.112793,5.004883,13.671875
4940,-0.029297,-0.174927,0.959106,3.112793,5.615234,13.977051
4949,0.023315,-0.222412,0.995728,2.990723,6.225586,14.099121
4958,0.051025,-0.244019,1.000854,2.624512,6.469727,14.099121
4969,0.051025,-0.231445,0.985352,2.075195,6.530762,13.732910
4978,0.040161,-0.305664,0.943115,1.770020,6.469727,13.183594
4990,0.050537,-0.293335,0.876465,1.159668,6.591797,11.474609
4999,0.070190,-0.212646,1.001465,1.220703,6.225586,10.803223
5008,0.106689,-0.234619,0.978516,0.793457,6.103516,9.521484
5019,0.103760,-0.249146,1.067139,0.549316,5.371094,8.056641
5028,0.108643,-0.272095,1.008911,0.488281,4.699707,6.591797
5039,0.108521,-0.278809,0.985474,0.305176,3.906250,5.065918
5049,0.108887,-0.219482,0.965332,-0.244141,3.356934,3.723145
5059,0.113770,-0.252197,0.916016,-0.305176,2.380371,1.464844
5070,0.142700,-0.184082,0.935547,-1.647949,1.770020,0.427246
5079,0.139893,-0.164062,0.941528,-2.014160,1.586914,-0.427246
5089,0.147461,-0.178223,0.967041,-2.197266,0.854492,-1.403809
5099,0.128174,-0.152100,0.982056,-2.624512,0.732422,-1.831055
5109,0.130615,-0.132935,1.004761,-2.807617,0.305176,-2.380371
5119,0.113159,-0.126587,0.991943,-2.502441,-0.122070,-3.051758
5129,0.099243,-0.115479,0.994995,-2.563477,-0.427246,-4.089355
5140,0.066162,-0.086426,0.991821,-2.685547,-0.976562,-4.699707
5150,0.050171,-0.081909,0.978394,-2.746582,-1.281738,-5.493164
5159,0.021362,-0.081421,0.980225,-2.685547,-1.098633,-5.920410
5169,0.005737,-0.098999,0.973389,-2.624512,-1.525879,-6.225586
5179,-0.003296,-0.111206,0.976074,-2.624512,-1.342773,-6.347656
5188,-0.007324,-0.108521,0.979126,-2.746582,-1.220703,-6.591797
5201,0.005127,-0.099609,0.991455,-2.746582,-0.915527,-6.469727
5211,0.005737,-0.092773,0.985718,-2.868652,-0.671387,-6.042480
5220,0.003540,-0.081177,0.989014,-2.990723,-0.671387,-5.432129
5230,0.000610,-0.065186,0.994507,-2.868652,-0.976562,-4.577637
5240,0.003174,-0.055176,0.997070,-2.685547,-0.305176,-3.479004
5249,0.001709,-0.056885,0.989502,-2.746582,-0.061035,-2.258301
5259,0.000488,-0.051025,0.991455,-2.563477,0.732422,-1.220703
5271,-0.003906,-0.044189,1.018433,-2.563477,0.244141,1.342773
5280,-0.014893,-0.046387,1.016724,-2.258301,0.976562,2.319336
5290,-0.014526,-0.046631,1.010132,-2.502441,0.793457,3.540039
5299,-0.008545,-0.046021,1.004883,-2.197266,1.159668,4.577637
5309,-0.001221,-0.053711,1.003540,-2.136230,1.159668,5.493164
5319,-0.000366,-0.056885,0.997681,-1.831055,1.892090,6.286621
5328,0.006714,-0.063110,0.995605,-1.953125,1.953125,6.774902
5340,0.015259,-0.072510,0.997681,-1.525879,2.380371,7.812500
5349,0.039307,-0.077759,0.996582,-1.647949,2.014160,7.873535
5359,0.037476,-0.074463,0.996704,-1.586914,2.258301,7.873535
5368,0.037476,-0.073975,0.991455,-1.708984,1.647949,7.812500
5379,0.043701,-0.070801,0.992187,-1.708984,2.136230,7.812500
5388,0.050537,-0.072144,0.995117,-1.586914,2.258301,7.690430
5399,0.046631,-0.074219,0.993774,-1.403809,2.258301,7.507324
5408,0.045776,-0.076538,0.993652,-1.525879,2.014160,6.958008
5420,0.063965,-0.081177,0.994995,-1.403809,1.586914,6.286621
5429,0.077881,-0.084839,0.997314,-1.281738,1.342773,5.859375
5439,0.087402,-0.085449,0.991333,-1.037598,1.220703,5.798340
5449,0.086914,-0.088257,0.999146,-1.098633,1.220703,5.432129
5458,0.087036,-0.094727,0.997314,-1.220703,0.854492,5.004883
5469,0.090454,-0.101563,0.996582,-1.159668,0.610352,4.394531
5478,0.086304,-0.102295,0.990723,-1.098633,0.427246,2.929688
5490,0.085571,-0.089233,0.991577,-1.037598,-0.366211,2.319336
5500,0.080688,-0.087891,0.998779,-0.976562,-0.366211,1.708984
5509,0.075806,-0.086548,1.006348,-0.976562,-0.244141,1.464844
5518,0.067383,-0.087280,1.006104,-0.976562,-0.549316,1.037598
5529,0.059082,-0.093750,1.009155,-0.854492,-0.915527,0.610352
5539,0.051880,-0.104492,1.005127,-0.915527,-1.159668,0.244141
5548,0.045410,-0.067993,0.991211,-0.915527,-1.281738,-0.122070
5560,0.033936,-0.078857,0.980469,-1.220703,-1.403809,-0.671387
5570,0.031250,-0.053223,0.988159,-1.281738,-1.647949,-0.976562
5579,0.035889,-0.090332,0.968994,-1.098633,-1.708984,-1.037598
5589,0.024536,-0.072510,0.972534,-1.281738,-1.403809,-0.854492
5598,0.027100,-0.014526,0.998657,-1.159668,-1.770020,-0.610352
5609,0.029297,-0.031128,1.015259,-1.220703,-1.281738,-0.122070
5619,0.026855,-0.072632,1.015503,-1.159668,-0.915527,0.854492
5629,0.034302,-0.113525,1.006470,-1.098633,-1.037598,1.098633
5638,0.036621,-0.145142,0.986206,-0.976562,-0.671387,1.464844
5649,0.031738,-0.144287,0.975586,-1.037598,-0.793457,1.647949
5659,0.031006,-0.120972,0.970581,-0.976562,-0.854492,1.708984
5669,0.023437,-0.086060,0.973633,-1.098633,-1.037598,1.831055
5679,0.011963,-0.056641,0.993164,-1.281738,-1.220703,2.197266
5689,0.001343,-0.040894,1.001221,-1.098633,-0.244141,2.990723
5700,0.019653,-0.133667,0.998901,-1.098633,-0.305176,3.356934
5714,0.007935,-0.177490,0.960449,-1.098633,-0.427246,3.356934
5724,0.006104,-0.083862,0.991821,-1.220703,-0.793457,3.356934
5733,0.024048,-0.046509,1.025635,-1.159668,-0.793457,3.295898
5743,0.025879,-0.150269,0.973389,-1.098633,-0.976562,3.295898
5753,0.030884,-0.057617,1.022095,-1.220703,-0.671387,3.295898
5763,0.031128,-0.102905,0.999146,-1.220703,-0.244141,3.540039
5772,0.033691,-0.134766,1.005127,-1.342773,-0.305176,3.417969
5781,0.033813,-0.147583,1.006348,-1.220703,-0.366211,3.234863
5791,0.035034,-0.124268,1.004028,-1.037598,-0.244141,3.173828
5800,0.038208,-0.114868,0.991577,-1.159668,-0.549316,3.173828
5810,0.039063,-0.116333,0.980713,-0.976562,-0.366211,3.051758
5820,0.033447,-0.104126,0.977173,-1.403809,-0.244141,2.868652
5829,0.027832,-0.098755,0.988892,-1.464844,-0.183105,2.624512
5838,0.035034,-0.102539,0.993530,-1.464844,-0.305176,2.441406
5849,0.046631,-0.103149,1.001709,-1.464844,-0.488281,2.441406
5859,0.041992,-0.099609,0.995972,-1.647949,-0.671387,2.258301
5869,0.041992,-0.097656,0.994141,-1.525879,-0.427246,2.075195
5879,0.043091,-0.092773,0.996582,-1.586914,-1.037598,1.770020
5889,0.042480,-0.079956,0.994141,-1.647949,-0.976562,1.342773
5898,0.038696,-0.076538,0.992920,-1.586914,-0.488281,1.281738
5910,0.050781,-0.092651,0.971313,-1.525879,-0.915527,1.159668
5919,0.054565,-0.032471,0.980103,-1.708984,-0.915527,1.098633
5929,0.048462,-0.011841,0.994629,-1.770020,-1.159668,0.793457
5938,0.049438,-0.060791,0.992065,-1.525879,-1.159668,0.793457
5949,0.064087,-0.092773,1.008057,-1.586914,-1.281738,0.732422
5958,0.053223,-0.081421,1.015991,-1.464844,-1.220703,0.793457
5971,0.037354,-0.080322,1.001221,-1.159668,-1.037598,0.732422
5981,0.045776,-0.082886,1.002686,-1.098633,-1.403809,0.610352
5990,0.053711,-0.093018,0.994873,-1.159668,-1.586914,0.488281
6000,0.041992,-0.098511,0.982300,-1.281738,-2.563477,0.366211
6009,0.032715,-0.098511,0.981323,-1.281738,-2.014160,0.488281
6019,0.032349,-0.101074,0.997559,-1.342773,-1.403809,0.732422
6029,0.021729,-0.097656,0.997925,-1.281738,-1.647949,1.159668
6038,0.023682,-0.089722,1.003052,-1.403809,-1.831055,1.525879
6048,0.010254,-0.078003,1.012085,-1.281738,-1.892090,2.136230
6059,-0.005005,-0.069336,1.012939,-1.281738,-1.525879,2.746582
6069,-0.020020,-0.088501,1.009033,-1.037598,-1.464844,3.723145
6079,-0.012207,-0.107300,1.000244,-0.793457,-1.098633,4.516602
6088,0.011597,-0.130859,0.995850,-0.610352,-0.305176,5.187988
6098,-0.009521,-0.115723,0.964844,-0.915527,-0.305176,5.981445
6110,-0.032227,-0.122192,0.965332,-0.549316,0.610352,6.591797
6120,-0.030273,-0.219116,0.992798,-0.549316,0.305176,6.347656
6129,-0.001953,-0.220947,1.017944,-0.854492,0.183105,6.103516
6138,0.021973,-0.178223,1.022827,-1.403809,0.244141,5.737305
6149,0.033569,-0.163940,0.994751,-1.647949,0.305176,5.371094
6158,0.020874,-0.172485,0.964233,-1.403809,0.122070,4.943848
6168,0.008179,-0.193481,0.951782,-1.342773,0.061035,4.333496
6180,-0.003052,-0.196045,0.982910,-1.220703,-0.122070,2.746582
6189,-0.022095,-0.179932,1.006226,-1.220703,0.366211,1.892090
6199,-0.031006,-0.171875,0.991333,-1.159668,0.793457,1.403809
6208,-0.047241,-0.169189,0.973999,-1.281738,1.342773,0.854492
6218,-0.039185,-0.186401,0.971802,-1.220703,1.220703,0.000000
6228,-0.013062,-0.207153,0.988892,-1.159668,1.220703,-0.549316
6238,0.002319,-0.185059,0.979370,-1.464844,1.037598,-1.708984
6248,0.065674,-0.215210,1.011353,-1.525879,1.342773,-1.281738
6260,0.107178,-0.187012,0.980591,-1.403809,1.098633,-1.037598
6269,0.110962,-0.195190,0.956299,-1.403809,0.793457,-0.488281
6279,0.068970,-0.198120,0.955200,-1.403809,0.183105,0.244141
6288,0.090576,-0.177246,1.004395,-1.403809,0.488281,1.403809
6299,0.049561,-0.178467,1.015503,-1.586914,0.488281,2.807617
6308,0.037842,-0.189087,1.025879,-1.342773,0.793457,4.211426
6319,-0.009033,-0.189453,1.003540,-1.159668,0.549316,5.187988
6329,0.000732,-0.204346,0.971924,-1.159668,0.122070,4.577637
6339,0.004761,-0.198853,0.984619,-1.220703,0.244141,4.028320
6349,0.005859,-0.202271,0.990601,-1.098633,0.671387,3.295898
6358,0.024658,-0.193237,0.993042,-1.403809,0.549316,2.990723
6369,0.041626,-0.190063,0.990967,-1.281738,0.793457,2.929688
6378,0.050537,-0.192261,0.976685,-1.159668,0.732422,2.990723
6389,0.044067,-0.178955,0.980713,-1.159668,0.732422,3.906250
6399,0.047974,-0.173096,0.973389,-1.159668,0.244141,5.004883
6408,0.036133,-0.186523,0.962280,-1.037598,0.854492,5.920410
6418,0.031616,-0.187866,0.953857,-1.220703,0.549316,6.713867
6429,0.035767,-0.195923,0.960449,-1.220703,1.220703,7.873535
6438,0.035645,-0.182373,0.991577,-1.220703,1.708984,8.605957
6449,0.014526,-0.172607,1.019287,-1.464844,0.915527,9.033203
6458,-0.012207,-0.172974,1.034668,-1.281738,1.037598,8.361816
6470,0.000977,-0.224243,0.953247,-1.037598,1.281738,7.629395
6480,0.019043,-0.221436,0.926147,-0.976562,1.770020,6.896973
6489,0.031616,-0.197998,0.934692,-1.586914,1.403809,6.835937
6499,0.029907,-0.157471,0.996460,-1.892090,1.647949,7.263184
6508,0.042603,-0.153931,1.034180,-1.770020,2.075195,7.934570
6518,0.049072,-0.174805,1.051880,-1.525879,1.831055,8.728027
6529,0.039185,-0.200562,1.017456,-0.854492,2.075195,9.338379
6539,0.035400,-0.252808,0.935913,-1.281738,1.464844,9.155273
6548,0.053833,-0.204834,0.968384,-1.831055,1.403809,8.911133
6558,0.057129,-0.145386,1.036621,-1.708984,1.831055,8.544922
6568,0.048584,-0.174927,1.049805,-1.403809,1.220703,8.605957
6578,0.042969,-0.242065,0.987915,-0.976562,1.098633,8.361816
6588,0.075195,-0.269531,0.922363,-0.976562,1.098633,8.605957
6598,0.101440,-0.229248,0.932007,-1.647949,1.037598,9.094238
6609,0.074219,-0.161133,1.014526,-2.075195,0.671387,10.803223
6619,0.046875,-0.259033,0.985474,-0.854492,0.427246,11.169434
6629,0.032959,-0.308960,0.939453,-0.793457,0.244141,11.108398
6638,0.024536,-0.237915,0.965698,-1.281738,1.098633,10.864258
6648,0.016113,-0.171021,1.001221,-1.525879,0.671387,10.864258
6658,0.003662,-0.192383,0.983765,-1.220703,0.671387,10.498047
6668,-0.009399,-0.290161,0.937378,-0.366211,0.671387,9.826660
6678,0.005737,-0.282104,0.957031,-1.037598,0.793457,8.605957
6689,0.017334,-0.233276,0.999878,-1.098633,1.220703,7.995605
6699,0.024536,-0.252319,0.965942,-0.854492,0.732422,6.958008
6708,0.029785,-0.225586,0.962158,-1.159668,0.488281,6.103516
6718,0.021729,-0.173828,0.986084,-1.098633,0.732422,5.432129
6729,0.010864,-0.220825,0.969849,-0.793457,1.098633,5.004883
6738,0.009399,-0.225586,0.972534,-0.610352,0.732422,4.272461
6749,0.036133,-0.217407,0.996460,-0.793457,1.464844,4.577637
6759,-0.000122,-0.224487,0.966797,-0.244141,2.014160,4.638672
6769,-0.034790,-0.149658,0.989502,-0.732422,1.770020,4.638672
6778,-0.049805,-0.131714,1.019897,-0.488281,1.953125,4.821777
6788,-0.035034,-0.173462,1.048950,0.061035,2.319336,5.187988
6799,-0.025757,-0.192749,1.009399,0.244141,2.136230,5.371094
6808,-0.014771,-0.176758,0.981567,-0.061035,2.807617,5.798340
6820,-0.000366,-0.142090,0.963379,-0.488281,3.112793,7.568359
6829,0.001709,-0.170532,0.943726,-0.427246,3.784180,8.728027
6839,-0.015381,-0.173218,0.960937,-0.305176,4.516602,10.009766
6848,-0.016357,-0.157959,0.983887,-0.427246,4.821777,11.413574
6858,-0.007324,-0.184326,0.977051,-0.488281,5.432129,12.695313
6869,-0.038330,-0.179932,1.007202,-0.183105,5.737305,14.038086
6878,-0.032593,-0.173706,1.001831,-0.061035,5.554199,15.014648
6888,-0.040161,-0.195435,1.000000,0.244141,6.347656,18.310547
6899,-0.078613,-0.177734,0.998901,0.366211,6.835937,19.836426
6908,-0.084961,-0.220825,0.957275,0.610352,7.995605,21.789551
6918,-0.092407,-0.213135,0.971558,0.244141,9.216309,23.681641
6928,-0.047119,-0.205933,0.987427,0.122070,10.131836,25.451660
6939,-0.055176,-0.218018,0.969482,-0.244141,10.681152,27.770996
6948,-0.027466,-0.158447,0.985840,-0.488281,10.742188,29.663086
6960,-0.013062,-0.243896,0.976074,-0.305176,11.413574,32.653809
6969,0.023193,-0.211060,1.019897,-0.366211,11.535645,33.142090
6979,0.066895,-0.214844,0.989746,-0.183105,11.779785,33.874512
6988,0.103882,-0.149292,0.989746,-0.427246,11.718750,34.484863
6999,0.119263,-0.175293,0.948364,-0.183105,11.352539,35.766602
7008,0.155640,-0.228882,0.927002,-0.061035,10.742188,36.926270
7018,0.162354,-0.219482,0.993896,-0.183105,10.559082,37.902832
7030,0.122070,-0.152466,0.990845,-0.427246,9.216309,38.452148
7039,0.101318,-0.231812,0.966064,-0.488281,8.911133,38.452148
7048,0.101807,-0.209106,1.029297,-0.610352,8.972168,38.269043
7058,0.074463,-0.216797,0.992798,-0.549316,8.850098,38.452148
7068,0.071533,-0.166870,1.014526,-0.244141,9.033203,38.330078
7078,0.064819,-0.274780,0.977661,-0.366211,8.666992,37.841797
7090,0.089355,-0.259155,0.994141,-0.793457,7.934570,36.437988
7099,0.076538,-0.209106,0.973267,-0.610352,7.202148,35.278320
7109,0.063843,-0.270264,0.973511,-0.488281,6.958008,34.179687
7118,0.078003,-0.269897,0.981812,-0.366211,6.713867,33.386230
7129,0.107666,-0.278076,1.000732,-0.427246,6.958008,32.653809
7138,0.108032,-0.281860,0.972412,-0.488281,6.225586,31.372070
7148,0.129395,-0.331299,0.987915,-0.305176,5.676270,29.235840
7158,0.150391,-0.318604,0.981201,-0.366211,4.333496,27.221680
7169,0.185303,-0.259888,1.050659,-0.671387,2.624512,23.315430
7179,0.208252,-0.354980,1.009644,0.122070,2.197266,21.606445
7188,0.194702,-0.362671,1.030273,0.488281,1.586914,20.080566
7199,0.207397,-0.370972,0.954346,0.366211,0.732422,18.066406
7208,0.223633,-0.329712,0.994141,0.183105,0.366211,16.296387
7218,0.218750,-0.343872,0.952515,0.366211,-0.244141,14.099121
7228,0.211060,-0.335205,0.931641,0.183105,-1.098633,12.268066
7240,0.183594,-0.331299,0.990234,0.305176,-2.563477,8.911133
7250,0.171997,-0.306763,1.008301,0.183105,-2.990723,7.507324
7259,0.155151,-0.320557,0.963501,0.366211,-3.356934,5.798340
7269,0.137085,-0.343506,0.953247,0.427246,-3.967285,4.089355
7278,0.161011,-0.313354,0.985474,0.366211,-4.394531,2.624512
7288,0.166016,-0.314087,0.958740,0.366211,-4.943848,0.976562
7298,0.142212,-0.349365,0.947876,0.549316,-5.310059,-0.305176
7310,0.159302,-0.293945,0.944336,0.488281,-5.615234,-2.502441
7319,0.165283,-0.270752,0.953979,0.000000,-5.615234,-3.234863
7329,0.136597,-0.251465,0.966797,0.122070,-5.737305,-3.967285
7338,0.169312,-0.237549,0.979248,-0.061035,-5.737305,-4.638672
7348,0.166992,-0.240234,1.001831,0.183105,-6.164551,-5.187988
7359,0.163696,-0.242310,1.002930,0.305176,-6.958008,-5.859375
7368,0.169922,-0.281006,0.994507,0.549316,-6.652832,-6.530762
7380,0.189453,-0.235229,0.961914,0.305176,-7.568359,-6.774902
7390,0.192383,-0.279053,0.926147,0.427246,-7.080078,-7.080078
7399,0.197754,-0.272339,0.935913,0.305176,-7.446289,-7.141113
7409,0.057251,-0.110962,0.746216,0.122070,-7.934570,-7.202148
7419,0.106201,-0.195312,0.980713,0.061035,-8.178711,-7.202148
7428,0.209351,-0.209717,1.190430,-0.305176,-6.896973,-6.286621
7438,0.205078,-0.212402,1.244263,-1.281738,-6.042480,-5.126953
7449,-0.001587,-0.179321,0.864502,-1.708984,-6.713867,-5.187988
7459,0.036499,-0.241943,0.770142,0.000000,-7.507324,-6.286621
7469,0.090576,-0.293945,0.879883,0.305176,-6.652832,-6.286621
7478,0.126709,-0.317505,1.043213,-0.122070,-6.652832,-6.286621
7488,0.034546,-0.267212,1.077271,-1.098633,-7.751465,-6.469727
7498,-0.000244,-0.206543,1.045776,-2.136230,-7.995605,-6.530762
7508,0.037598,-0.172485,0.930908,-2.319336,-6.164551,-5.615234
7520,0.131348,-0.351563,0.953247,-2.014160,-5.126953,-4.577637
7529,0.130127,-0.368896,0.952393,-1.586914,-5.920410,-5.310059
7539,0.085449,-0.364624,0.915039,-1.708984,-6.469727,-6.225586
7548,0.105713,-0.287598,0.969604,-2.563477,-6.408691,-7.324219
7558,0.093506,-0.315430,0.888428,-2.807617,-6.896973,-9.338379
7568,0.173706,-0.356323,1.021118,-2.746582,-7.263184,-12.512207
7578,0.194702,-0.387573,1.036255,-2.807617,-8.544922,-15.502930
7588,0.140503,-0.229980,0.722900,-2.563477,-9.582520,-20.996094
7599,0.243896,-0.183960,0.766724,-1.892090,-9.887695,-23.193359
7609,0.203491,-0.140869,0.996582,-1.770020,-10.131836,-24.230957
7619,0.314575,-0.206909,1.077271,-1.708984,-9.826660,-24.780273
7628,0.334961,-0.173706,1.130127,-2.929688,-10.375977,-25.268555
7638,0.286255,-0.094849,1.124512,-3.662109,-11.657715,-26.062012
7649,0.236816,-0.046509,1.046143,-3.601074,-12.268066,-25.512695
7659,0.273682,-0.036987,0.975220,-3.479004,-12.268066,-25.085449
7669,0.248535,-0.074341,0.947021,-2.807617,-12.207031,-24.108887
7678,0.222168,-0.158447,0.892090,-2.258301,-12.084961,-23.071289
7688,0.156372,-0.179932,0.937622,-2.136230,-11.840820,-22.277832
7699,0.090454,-0.217407,0.973145,-2.563477,-12.390137,-21.911621
7708,0.075562,-0.199951,1.038574,-3.112793,-11.962891,-21.423340
7718,0.053345,-0.231201,1.009277,-3.479004,-11.169434,-20.568848
7728,0.088379,-0.244751,0.979004,-3.173828,-10.314941,-18.554687
7738,-0.031494,-0.270142,1.010864,-3.234863,-10.192871,-17.883301
7748,-0.090942,-0.230957,1.022461,-3.112793,-9.948730,-17.211914
7758,-0.126587,-0.183228,0.991699,-2.929688,-9.582520,-17.333984
7768,-0.142334,-0.193726,0.900513,-2.746582,-8.483887,-17.517090
7778,-0.123901,-0.230835,0.848511,-2.624512,-7.629395,-17.578125
7790,-0.034424,-0.216431,0.870117,-3.234863,-6.225586,-17.150879
7799,0.050171,-0.178223,0.981689,-3.417969,-5.981445,-16.357422
7809,0.047729,-0.166504,0.996216,-3.417969,-5.126953,-14.892578
7818,0.107056,-0.132568,1.014648,-3.234863,-4.211426,-13.061523
7829,0.111328,-0.136597,1.038574,-3.112793,-3.967285,-11.169434
7838,0.105347,-0.115723,1.020874,-2.624512,-4.394531,-9.887695
7848,0.099121,-0.135498,1.017822,-1.831055,-3.967285,-8.544922
7860,0.109131,-0.177246,1.001953,-1.708984,-4.821777,-6.164551
7870,0.080933,-0.066406,1.019409,-2.136230,-4.699707,-4.028320
7879,0.042725,-0.037354,1.033936,-2.197266,-4.333496,-1.098633
7889,0.042725,-0.004150,1.029785,-2.197266,-3.845215,1.342773
7898,-0.025269,-0.074829,1.004639,-1.831055,-2.746582,3.540039
7908,-0.064697,0.003662,1.004639,-1.953125,-1.708984,5.187988
7918,-0.059082,0.052368,1.023804,-2.014160,-1.220703,5.859375
7931,-0.044434,-0.068115,0.956543,0.061035,-2.075195,4.821777
7940,-0.032104,-0.076660,0.910400,-0.061035,-2.746582,3.906250
7950,-0.053711,-0.031494,0.972900,-0.671387,-3.540039,3.723145
7959,-0.042725,0.069214,1.032104,-1.647949,-3.967285,4.150391
7969,-0.070068,-0.024292,1.062256,-1.342773,-2.502441,4.394531
7978,-0.043823,-0.030151,1.030151,-1.159668,-1.403809,4.699707
7988,-0.055054,-0.105713,1.012817,-1.159668,-0.732422,4.333496
8000,-0.051636,-0.078247,0.992798,-1.525879,-0.732422,1.831055
8009,-0.094360,-0.072632,0.951294,-1.342773,-0.793457,0.427246
8019,-0.070190,-0.128540,0.939453,-1.403809,-1.647949,-0.915527
8028,-0.023926,-0.134277,0.989014,-1.464844,-1.159668,-1.464844
8038,0.019043,-0.053711,1.062378,-2.258301,-1.159668,-1.342773
8049,0.048706,-0.113037,1.097290,-2.380371,-1.037598,-0.671387
8058,0.038696,-0.173828,1.060059,-2.319336,-0.122070,0.488281
8070,0.026611,-0.200928,0.999023,-1.708984,0.671387,2.746582
8079,0.048584,-0.253052,0.932007,-1.342773,0.976562,3.906250
8089,0.049438,-0.250488,0.901367,-1.586914,0.427246,4.516602
8099,0.056885,-0.264526,0.907349,-1.708984,-0.427246,4.455566
8108,0.039551,-0.226562,0.933472,-1.647949,-0.732422,4.394531
8119,0.062256,-0.212036,0.966675,-1.525879,-1.403809,4.211426
8128,0.070801,-0.216553,0.967163,-1.464844,-1.464844,4.333496
8141,0.070557,-0.170532,0.987549,-0.976562,-1.586914,5.187988
8150,0.029663,-0.175781,0.954834,-0.305176,-1.892090,5.310059
8160,0.019531,-0.167969,0.937988,-0.061035,-1.953125,5.249023
8169,0.007446,-0.207275,0.952271,0.000000,-1.892090,5.249023
8179,0.026733,-0.189209,0.991943,-0.183105,-1.708984,5.187988
8188,-0.025024,-0.192383,1.002686,-0.244141,-2.014160,4.577637
8198,-0.026367,-0.161133,0.997314,-0.610352,-2.746582,3.601074
8210,-0.044678,-0.143555,1.025879,-0.061035,-2.502441,2.258301
8219,-0.016602,-0.158813,1.021484,0.244141,-2.563477,1.586914
8229,0.019043,-0.161255,0.953979,0.305176,-2.563477,0.854492
8238,-0.031860,-0.164673,0.914551,0.000000,-2.868652,0.305176
8249,0.000488,-0.097412,0.927490,-0.488281,-2.746582,-0.610352
8258,-0.034668,-0.132080,0.926392,-0.671387,-2.624512,-1.464844
8268,0.008301,-0.135742,0.968506,-0.671387,-2.624512,-2.136230
8281,0.050659,-0.108643,1.074707,-0.976562,-2.746582,-2.441406
8291,0.027588,-0.108521,1.057373,-0.976562,-3.051758,-2.014160
8300,-0.000732,-0.096802,1.022949,-0.915527,-3.540039,-0.732422
8310,-0.009888,-0.124512,0.967896,-0.915527,-2.990723,1.281738
8320,-0.023560,-0.074463,0.982666,-1.220703,-1.831055,4.211426
8329,-0.015747,-0.069458,1.009644,-1.220703,-0.915527,7.324219
8339,-0.021240,-0.143921,0.983765,-1.342773,-0.305176,10.314941
8348,-0.054077,-0.135254,0.949219,-1.770020,0.244141,15.502930
8360,-0.113403,-0.154663,0.985962,-2.258301,0.427246,18.005371
8369,-0.118042,-0.165771,1.055664,-2.075195,1.220703,20.263672
8379,-0.142822,-0.182251,1.062866,-1.953125,2.197266,21.972656
8389,-0.131226,-0.239014,1.010620,-1.892090,2.441406,23.315430
8398,-0.135376,-0.280029,0.989380,-1.647949,2.746582,24.291992
8408,-0.107666,-0.222412,1.017456,-1.464844,3.662109,24.841309
8418,-0.123169,-0.319214,0.978271,-1.281738,2.990723,24.475098
8430,-0.113647,-0.297852,0.982788,-1.464844,2.502441,22.583008
8439,-0.094849,-0.261475,0.977417,-1.953125,1.953125,21.789551
8449,-0.101929,-0.289063,0.959595,-2.441406,1.586914,20.996094
8459,-0.092651,-0.337402,0.967896,-2.258301,1.708984,20.202637
8468,-0.056152,-0.318481,0.999390,-2.441406,1.831055,19.714355
8478,-0.080444,-0.200439,1.026611,-2.807617,1.403809,18.737793
8490,-0.046143,-0.185669,1.051025,-2.746582,1.770020,16.357422
8499,-0.077026,-0.297852,0.963013,-2.075195,0.854492,14.770508
8509,-0.102417,-0.290039,0.985352,-2.014160,0.976562,13.305664
8518,-0.081421,-0.188232,1.040649,-1.892090,0.732422,11.596680
8528,-0.067261,-0.154175,1.059692,-2.136230,0.488281,10.253906
8539,-0.023315,-0.165771,1.004028,-1.708984,0.244141,9.460449
8548,-0.007813,-0.298828,0.971436,-1.403809,0.549316,8.972168
8558,0.000610,-0.292480,0.940552,-1.220703,0.427246,8.728027
8569,-0.049683,-0.241211,1.016846,-0.976562,0.976562,8.789063
8579,-0.062622,-0.279175,0.988647,-1.220703,1.708984,9.033203
8588,-0.067505,-0.308105,0.976807,-1.220703,1.892090,8.911133
8598,-0.077515,-0.354614,0.914185,-1.159668,1.770020,8.361816
8608,-0.047974,-0.324585,0.927734,-1.037598,2.014160,7.873535
8619,-0.031250,-0.228516,0.999634,-0.976562,1.403809,7.202148
8629,0.022705,-0.202515,0.958862,-0.366211,-0.061035,5.737305
8639,0.116699,-0.197754,0.922974,-0.122070,-0.671387,6.103516
8649,0.137329,-0.195923,1.044556,-0.244141,-1.342773,6.713867
8659,0.100220,-0.166870,0.973877,-0.427246,-0.366211,7.690430
8668,0.061523,-0.174072,0.995361,-0.793457,-0.671387,7.995605
8679,0.002930,-0.195312,0.967896,-0.793457,-1.281738,8.056641
8688,0.010254,-0.125366,1.063721,-0.305176,-1.098633,7.385254
8698,-0.004761,-0.126587,1.013062,0.488281,-1.770020,6.530762
8710,-0.010620,-0.152954,1.026245,1.708984,-2.319336,3.356934
8719,-0.011841,-0.029175,1.065186,1.892090,-2.746582,1.708984
8729,0.002197,-0.049561,1.059814,2.380371,-2.258301,0.061035
8738,0.007446,-0.064453,1.025513,2.624512,-1.770020,-2.014160
8749,0.027832,-0.050171,1.105957,2.441406,-2.746582,-4.577637
8758,0.039917,0.013184,1.048828,2.258301,-3.417969,-7.019043
8770,0.049805,0.047241,0.973755,3.112793,-5.737305,-10.498047
8779,-0.088013,0.058228,1.096680,2.746582,-5.310059,-10.498047
8788,-0.028809,-0.030396,1.033569,2.868652,-2.258301,-8.850098
8798,0.064941,-0.009644,0.909790,2.258301,0.976562,-7.202148
8809,0.021729,0.098389,1.214111,0.976562,0.610352,-7.751465
8818,-0.156494,-0.079590,0.921631,1.708984,-1.464844,-10.437012
8828,-0.155762,-0.255249,0.691528,1.953125,-1.647949,-12.329102
8841,0.041748,-0.033081,0.945190,-2.380371,-0.427246,-13.305664
8851,0.019287,0.045410,1.022339,-3.295898,-1.464844,-14.221191
8860,0.043945,-0.148804,0.948364,-2.685547,-1.647949,-13.671875
8870,0.146118,-0.246460,0.942627,-2.319336,-0.427246,-13.183594
8880,0.246704,-0.241211,0.867310,-2.685547,-0.244141,-13.244629
8889,0.194458,-0.235718,0.842651,-3.601074,-0.305176,-13.305664
8899,0.158813,-0.058350,0.923950,-4.272461,-1.220703,-13.732910
8909,0.091309,-0.036499,0.980469,-4.272461,-0.732422,-12.512207
8919,0.047729,-0.179443,1.049438,-3.967285,-0.793457,-12.390137
8929,-0.030518,-0.226562,1.043579,-3.967285,-0.976562,-12.084961
8939,-0.056641,-0.138184,1.045898,-4.211426,-0.793457,-11.474609
8949,-0.013428,-0.109985,0.975220,-4.028320,0.305176,-9.948730
8959,0.107056,-0.141357,0.982910,-3.540039,1.342773,-8.117676
8969,0.123779,-0.146851,0.999023,-2.868652,1.831055,-6.835937
8979,0.109253,-0.210205,1.057007,-2.502441,0.732422,-5.920410
8988,0.007690,-0.202393,1.031006,-2.441406,0.793457,-5.493164
8999,-0.004761,-0.115967,0.970215,-1.892090,0.793457,-4.821777
9008,0.023193,-0.196777,0.913452,-1.464844,1.342773,-4.638672
9018,0.002197,-0.193115,0.904785,-1.892090,2.014160,-3.417969
9029,-0.034058,-0.171021,0.978027,-2.380371,1.831055,-2.319336
9039,-0.084595,-0.145264,0.988403,-2.685547,2.075195,-1.342773
9048,-0.082397,-0.153442,0.990967,-2.380371,3.540039,0.610352
9060,-0.045288,-0.139038,0.975342,-2.380371,4.089355,1.342773
9070,-0.087524,-0.123291,0.988892,-2.380371,4.150391,1.647949
9079,-0.104492,-0.115967,1.066895,-2.624512,4.333496,1.586914
9089,-0.109253,-0.087769,0.969360,-2.502441,4.699707,1.586914
9099,-0.096191,-0.098633,1.026733,-2.624512,5.371094,2.258301
9108,-0.065430,-0.077515,1.086792,-2.563477,5.859375,2.807617
9121,-0.040039,-0.140869,0.980347,-2.136230,6.896973,4.333496
9131,-0.026733,-0.197876,0.950806,-2.563477,6.408691,4.699707
9140,0.006226,-0.120850,0.985718,-2.990723,6.591797,5.004883
9150,0.052246,-0.095825,0.997803,-3.295898,6.103516,5.187988
9159,0.028564,-0.163818,1.037598,-3.479004,5.920410,5.371094
9169,0.068604,-0.094116,1.040405,-3.356934,6.164551,5.554199
9178,0.055908,-0.065796,0.998169,-3.051758,5.798340,5.859375
9191,0.106934,-0.354370,0.932373,-3.417969,5.187988,5.859375
9201,0.115601,-0.063721,1.044189,-4.638672,4.455566,5.737305
9211,0.078003,-0.001465,1.065308,-4.760742,4.150391,5.554199
9220,0.108032,-0.289917,1.029907,-3.601074,4.028320,6.042480
9230,0.177002,-0.395874,0.909180,-3.234863,3.845215,5.737305
9239,0.162720,-0.179321,0.957397,-4.455566,2.685547,5.249023
9249,0.165039,-0.119873,1.006226,-3.906250,1.770020,4.638672
9261,0.173584,-0.338135,1.022827,-1.037598,0.244141,2.929688
9271,0.118042,-0.366577,1.017578,-0.549316,0.427246,2.441406
9281,0.135132,-0.291504,1.013672,-0.610352,-0.061035,2.075195
9291,0.102783,-0.205566,1.022217,0.000000,-0.549316,1.464844
9300,0.150879,-0.249756,0.908691,1.159668,-1.586914,0.976562
9310,0.113770,-0.349976,0.799805,1.831055,-2.380371,0.427246
9319,0.194946,-0.360474,0.893188,1.342773,-3.051758,0.183105
9329,0.139771,-0.324097,0.919067,-0.671387,-3.601074,-0.122070
9339,0.050781,-0.085327,1.029663,-0.366211,-3.417969,-0.244141
9349,0.037476,-0.163818,1.002075,-0.183105,-2.685547,-0.427246
9359,-0.012817,-0.167114,1.064331,0.000000,-2.563477,-1.220703
9368,-0.020386,-0.118896,1.052490,-0.244141,-2.929688,-1.953125
9379,-0.016724,-0.066650,1.092041,-0.427246,-3.479004,-2.685547
9389,-0.028320,-0.056763,1.075928,-0.061035,-3.356934,-2.319336
9399,-0.037598,-0.044312,1.024780,1.464844,-3.051758,0.183105
9409,-0.059082,-0.089722,0.926636,1.403809,-2.258301,2.197266
9418,0.008911,-0.111450,0.916138,0.793457,-1.403809,4.394531
9429,-0.034668,0.073975,0.953491,0.183105,-0.305176,6.591797
9438,-0.053223,-0.061401,0.919556,0.305176,0.854492,8.605957
9449,-0.017578,-0.161133,0.942627,0.549316,1.403809,9.643555
9458,-0.012939,-0.088013,1.046631,0.854492,0.976562,9.277344
9471,0.042114,-0.040161,1.033936,0.244141,-1.159668,8.239746
9480,0.087402,0.038818,0.998047,-0.732422,-1.708984,8.605957
9490,0.072144,0.020264,1.035889,-1.464844,-2.258301,9.765625
9499,0.111694,0.099976,1.025024,-1.953125,-2.258301,11.718750
9508,0.126587,-0.017456,1.067139,-1.647949,-1.770020,13.854980
9519,0.120605,0.036987,1.042236,-1.586914,-1.159668,15.747070
9528,0.057373,-0.035156,1.105225,-1.586914,-1.403809,16.357422
9541,-0.100830,-0.032837,1.032104,-1.770020,-2.929688,14.831543
9551,-0.158325,-0.035889,1.014282,-1.953125,-2.807617,14.099121
9561,-0.178589,-0.078613,0.947388,-1.586914,-2.319336,13.061523
9571,-0.188477,-0.125122,0.983521,-1.586914,-2.075195,11.962891
9580,-0.148804,-0.134766,1.016479,-1.708984,-2.075195,11.230469
9590,-0.129395,-0.166382,1.014771,-1.708984,-1.831055,10.925293
9599,-0.098511,-0.176147,1.025391,-1.770020,-1.403809,10.803223
9609,-0.024902,-0.206543,0.981201,-1.220703,-1.403809,9.338379
9619,0.007202,-0.351196,0.935669,-1.098633,-2.136230,7.934570
9629,0.034302,-0.380615,0.827881,-0.915527,-3.112793,5.920410
9638,0.002563,-0.379639,0.756226,-1.464844,-2.929688,4.882812
9649,0.050171,-0.386475,0.893311,-2.319336,-3.173828,4.089355
9659,0.084717,-0.254028,0.956055,-2.441406,-3.356934,3.234863
9669,0.083618,-0.188721,0.976807,-2.502441,-3.784180,2.807617
9679,0.047241,-0.170166,1.059082,-1.708984,-4.028320,2.014160
9690,0.066040,-0.212280,0.978760,-1.220703,-4.333496,1.464844
9700,0.041626,-0.239014,0.980713,-1.342773,-4.150391,0.732422
9709,0.025269,-0.179932,0.937622,-1.403809,-4.699707,0.122070
9719,-0.032227,-0.068604,0.955811,-1.403809,-4.821777,0.061035
9728,-0.018677,-0.196899,0.939331,-1.281738,-4.638672,0.183105
9739,-0.010986,-0.228516,0.971313,-1.708984,-4.516602,0.122070
9749,-0.006226,-0.141479,0.981689,-2.563477,-3.417969,0.671387
9759,-0.013306,-0.040039,0.974731,-2.563477,-3.051758,1.159668
9768,0.012451,-0.147339,1.019165,-2.624512,-3.234863,1.342773
9779,0.038330,-0.114624,1.027466,-2.746582,-3.417969,1.342773
9789,0.037476,-0.124512,0.993042,-2.624512,-3.784180,1.708984
9799,0.019287,-0.184692,0.961304,-2.685547,-3.295898,1.831055
9809,0.048340,-0.161133,0.985962,-3.051758,-3.662109,2.075195
9818,-0.004150,-0.167969,0.942871,-3.234863,-3.723145,2.746582
9830,-0.084717,-0.168457,1.003662,-3.417969,-3.723145,2.807617
9840,-0.075195,-0.170166,1.015747,-3.417969,-2.990723,2.746582
9850,-0.062744,-0.083252,1.052002,-3.356934,-2.624512,2.868652
9859,-0.031128,-0.151123,0.983398,-3.234863,-2.746582,2.685547
9869,-0.034424,-0.136353,1.018555,-3.356934,-2.685547,2.746582
9879,-0.076660,-0.201172,0.962280,-3.601074,-2.197266,2.990723
9889,-0.094360,-0.105347,1.004028,-3.601074,-0.854492,2.502441
9899,-0.059204,-0.146240,1.045776,-3.479004,-0.976562,1.708984
9909,-0.110229,-0.157593,1.025391,-3.112793,-0.488281,0.183105
9919,-0.081299,-0.142334,0.985718,-3.051758,-1.342773,-1.953125
9929,-0.063110,-0.105103,1.019897,-2.746582,-1.708984,-4.089355
9939,-0.015381,-0.149658,1.011841,-2.380371,-1.586914,-5.493164
9949,-0.015991,-0.117554,1.028809,-2.014160,-1.647949,-5.859375
9958,0.000122,-0.178711,0.872437,-2.258301,-1.098633,-4.699707
9970,0.004761,-0.048950,1.001587,-3.784180,0.305176,-4.211426
9980,-0.008423,-0.005127,1.015503,-4.211426,0.671387,-4.272461
9989,-0.001709,0.060425,0.995239,-4.089355,1.403809,-4.760742
9999,0.020264,-0.107788,0.968018,-3.234863,0.671387,-5.859375
10009,0.035278,-0.059204,1.017212,-2.807617,0.183105,-7.202148
10019,0.074097,-0.069214,0.938843,-2.563477,-0.366211,-7.751465
10031,0.135498,-0.160034,0.909790,-2.258301,-0.122070,-7.568359
10041,0.091309,-0.230835,0.867065,-2.441406,-0.488281,-7.263184
10050,0.080811,-0.130371,0.980713,-2.502441,0.000000,-7.263184
10060,0.031128,-0.192505,0.946655,-2.441406,-0.549316,-7.202148
10070,0.000977,-0.204468,0.959839,-2.563477,-1.037598,-7.324219
10079,-0.015015,-0.181885,0.972534,-2.807617,-0.183105,-7.873535
10089,-0.065796,-0.174316,0.956299,-2.868652,-0.549316,-8.605957
10099,-0.063721,-0.078613,0.983398,-2.685547,0.061035,-10.681152
10108,-0.090210,-0.058472,1.043213,-2.807617,0.671387,-10.864258
10119,-0.047729,-0.138428,0.926392,-2.380371,1.037598,-10.986328
10129,-0.020264,-0.015381,1.011108,-2.380371,1.220703,-11.047363
10138,0.048950,0.011597,1.236572,-2.319336,2.380371,-10.009766
10149,0.019653,0.147583,1.258667,-1.342773,3.601074,-8.728027
10158,0.009033,-0.112671,1.110962,0.305176,4.150391,-7.751465
10171,0.044800,-0.162109,1.005493,1.403809,4.150391,-6.958008
10181,0.015625,-0.265991,0.874268,1.892090,3.417969,-6.774902
10190,0.075806,-0.266846,0.806885,1.342773,3.479004,-5.493164
10199,0.054321,-0.210693,0.881348,-0.305176,3.417969,-3.662109
10209,0.040039,-0.091553,0.977417,-1.281738,4.211426,-2.563477
10219,0.047119,-0.053467,1.139038,-0.915527,4.333496,-1.708984
10229,-0.000977,-0.182129,1.075684,0.061035,4.455566,-1.281738
10239,-0.018555,-0.284058,0.951294,-0.366211,4.882812,-3.173828
10248,-0.032715,-0.195923,0.913818,-1.647949,4.516602,-4.211426
10259,-0.009644,-0.073608,0.881714,-1.892090,4.882812,-4.577637
10269,-0.011353,-0.135620,0.884399,-1.953125,5.065918,-3.601074
10279,-0.070435,-0.159546,0.968872,-1.708984,5.920410,-1.892090
10288,-0.012939,-0.158813,0.962646,-1.953125,6.042480,-0.122070
10299,-0.024292,-0.084351,0.988770,-2.319336,6.713867,2.136230
10310,-0.059204,-0.071899,0.983887,-2.014160,7.446289,6.896973
10320,-0.055054,-0.203613,0.922852,-1.281738,8.483887,8.117676
10329,-0.060425,-0.214111,0.993286,-1.403809,9.033203,9.399414
10338,-0.086426,-0.210083,0.944702,-1.525879,9.155273,10.314941
10349,-0.104004,-0.081787,1.016235,-1.708984,9.033203,10.070801
10359,-0.097290,-0.156616,0.948975,-1.647949,8.911133,10.070801
10369,-0.031982,-0.054443,1.010132,-1.342773,8.728027,9.887695
10381,-0.037720,-0.107666,1.018921,-0.427246,9.399414,10.375977
10391,-0.006836,-0.163086,0.936646,-0.244141,9.521484,10.620117
10400,0.056519,-0.131958,0.968628,-0.366211,9.216309,10.681152
10410,0.098389,-0.202148,0.996582,-0.061035,8.850098,11.169434
10419,0.078857,-0.220215,0.965210,0.244141,8.300781,11.291504
10429,0.065186,-0.159912,1.022217,0.000000,7.690430,11.108398
10439,0.079712,-0.232422,1.005493,0.122070,6.652832,10.986328
10449,0.038452,-0.148804,1.084961,0.183105,6.164551,10.742188
10460,0.065918,-0.147949,1.032959,0.488281,6.225586,10.559082
10469,0.069458,-0.329468,0.905273,0.671387,6.042480,10.375977
10479,0.130615,-0.230713,0.955688,-0.183105,5.554199,10.314941
10489,0.070068,-0.124756,1.067017,-1.037598,4.638672,10.559082
10499,0.097656,-0.147095,1.056763,-1.647949,4.272461,10.192871
10508,0.059937,-0.139404,1.150635,-1.831055,4.333496,10.070801
10521,0.050781,0.075073,1.033203,-1.831055,3.906250,9.643555
10530,0.079834,-0.116211,0.963745,-0.854492,3.784180,9.277344
10540,0.102051,-0.151733,0.857910,-0.732422,3.295898,9.765625
10549,0.139038,-0.221558,0.925781,-1.403809,2.746582,10.986328
10559,0.113403,-0.106567,0.892090,-1.953125,2.136230,12.207031
10569,0.050781,-0.026367,0.903320,-2.563477,2.441406,13.244629
10579,0.055054,-0.005249,0.923584,-3.295898,2.136230,14.221191
10591,-0.008911,-0.104980,0.971436,-3.234863,2.136230,14.404297
10601,-0.060303,0.059570,1.088501,-2.929688,1.464844,13.671875
10610,-0.057007,-0.098389,0.990479,-2.136230,0.976562,12.939453
10620,-0.062378,-0.024292,1.012817,-1.342773,0.488281,12.390137
10629,-0.009155,-0.100342,1.063965,-0.610352,0.610352,12.573242
10638,-0.003540,-0.145386,1.044800,0.000000,0.732422,13.061523
10649,0.016113,-0.067993,1.120483,0.671387,0.854492,13.488770
10660,0.050171,-0.145020,0.953613,1.708984,0.732422,13.732910
10669,0.094849,-0.220825,0.923096,1.647949,-0.488281,13.732910
10679,0.083618,-0.232666,0.902832,0.915527,-0.732422,13.366699
10689,0.089478,-0.085937,0.947021,0.366211,-0.915527,13.671875
10699,0.043335,-0.124023,0.940674,-0.061035,-0.671387,14.526367
10709,0.078857,0.093262,1.025391,-0.732422,-0.610352,15.197754
10719,0.011108,-0.121460,1.031006,-0.854492,-0.793457,15.686035
10729,0.036377,0.012573,1.079834,-0.915527,-1.281738,15.869141
10740,0.001953,-0.033325,1.026855,-1.098633,-1.770020,15.380859
10750,-0.020630,-0.055298,1.057129,-1.220703,-2.136230,14.587402
10760,-0.025513,-0.150513,0.932495,-1.220703,-2.746582,13.671875
10769,-0.021118,-0.099243,1.067505,-1.525879,-2.624512,12.878418
10779,-0.012695,-0.232666,0.962769,-1.831055,-2.441406,11.901855
10789,-0.014282,-0.048096,1.025513,-2.319336,-2.380371,11.291504
10799,-0.023560,-0.068481,1.024292,-2.258301,-2.563477,10.253906
10810,-0.001099,-0.137817,1.074585,-2.136230,-3.417969,9.887695
10820,0.031982,-0.190430,0.956787,-1.647949,-3.234863,9.399414
10829,0.034912,-0.180176,0.999878,-1.403809,-3.479004,9.155273
10839,0.047852,-0.247070,0.895142,-1.159668,-3.173828,8.483887
10849,0.046387,-0.245728,0.959473,-1.708984,-3.723145,7.751465
10859,0.050781,-0.207886,0.896362,-2.319336,-3.723145,6.713867
10869,0.023682,-0.104736,0.974976,-2.014160,-3.967285,4.333496
10880,0.029297,-0.198975,0.899902,-1.159668,-4.455566,3.234863
10890,0.022095,-0.079590,0.970459,-1.647949,-4.882812,2.502441
10900,0.010010,-0.206909,0.941528,-0.854492,-5.065918,2.075195
10909,0.073120,-0.139771,1.090576,-0.244141,-4.333496,2.136230
10919,0.080078,-0.270020,1.011597,-0.244141,-4.455566,2.258301
10929,0.099731,-0.201904,0.948486,-0.244141,-4.577637,2.380371
10939,0.083496,0.007935,1.082397,0.183105,-4.882812,2.990723
10949,0.004639,-0.097046,0.992920,-0.183105,-4.943848,3.112793
10959,-0.016235,-0.089722,0.982056,-0.488281,-4.882812,2.990723
10969,-0.068726,-0.236328,0.934570,-0.793457,-4.272461,2.746582
10978,-0.027954,-0.050903,1.019043,-1.220703,-4.150391,2.685547
10989,0.000732,-0.087036,1.023438,-1.464844,-3.784180,2.807617
10999,-0.039551,-0.026611,0.985107,-1.647949,-3.234863,3.540039
11008,-0.010986,-0.076660,1.075562,-1.220703,-2.868652,4.394531
11020,-0.009888,-0.103760,1.082764,-1.281738,-2.136230,4.089355
11030,-0.022217,-0.077148,1.046875,-1.098633,-2.136230,3.356934
11039,-0.025879,-0.099121,1.066406,-0.793457,-2.746582,2.685547
11049,-0.015259,-0.111206,1.030762,-0.610352,-2.990723,1.892090
11059,-0.025879,-0.162842,1.030151,-0.244141,-2.685547,0.976562
11068,0.001465,-0.076416,0.994507,-0.061035,-2.990723,0.610352
11081,0.000366,-0.213867,0.932495,0.183105,-1.892090,0.915527
11090,-0.027344,-0.036011,0.936035,0.061035,-1.770020,0.915527
11100,-0.031372,-0.105225,0.913086,-0.488281,-2.014160,0.854492
11110,-0.036621,-0.164307,0.819092,-0.915527,-1.647949,1.342773
11119,0.025146,-0.060669,0.971802,-1.464844,-1.525879,1.586914
11129,0.026489,-0.200928,0.854736,-1.892090,-1.098633,1.403809
11139,0.034912,-0.010986,0.943970,-2.502441,-0.915527,1.464844
11150,0.016113,-0.080322,1.019409,-2.380371,-0.610352,1.708984
11160,0.031250,0.045654,1.109497,-1.831055,-0.427246,1.342773
11169,-0.012085,-0.155640,1.075806,-1.220703,-1.159668,0.732422
11179,-0.016846,-0.136597,1.032837,-0.366211,-0.976562,0.610352
11188,0.028198,-0.072632,1.069702,0.305176,-0.366211,0.671387
11199,-0.030762,-0.244385,0.913940,0.732422,-0.610352,0.793457
11208,-0.046143,-0.074341,0.976440,0.671387,-0.427246,0.793457
11221,-0.018066,-0.262207,0.900757,0.732422,0.122070,0.854492
11230,0.040894,-0.133789,1.041016,0.427246,0.854492,0.793457
11240,0.009766,-0.156006,0.967163,-0.122070,0.854492,0.915527
11249,0.014771,-0.061035,1.028931,-0.488281,1.098633,0.793457
11258,0.005615,-0.005859,1.119263,-0.427246,0.488281,0.366211
11269,0.041138,-0.110596,1.035400,-0.183105,0.610352,-0.305176
11279,0.009766,-0.067383,1.028198,0.183105,0.854492,-0.915527
11289,0.046875,-0.120361,1.071655,0.976562,0.183105,-1.770020
11300,0.063354,0.030273,1.068359,0.854492,0.305176,-1.464844
11309,0.058838,-0.161865,0.957153,0.732422,0.671387,-0.488281
11319,-0.011230,-0.291870,0.777222,0.366211,1.159668,0.427246
11328,0.007690,-0.041992,0.980347,-0.610352,1.586914,1.892090
11339,-0.008667,-0.121216,0.941162,-1.220703,2.197266,3.540039
11349,-0.081909,-0.199585,1.000366,-1.647949,2.563477,4.394531
11359,-0.084351,-0.034424,1.105835,-1.464844,3.173828,5.737305
11370,-0.036743,-0.051758,1.058594,-1.831055,3.662109,5.126953
11380,0.006836,-0.089111,1.043457,-1.525879,3.479004,5.004883
11389,-0.012207,-0.253540,0.985474,-0.976562,3.662109,4.943848
11399,0.024414,-0.080566,1.012939,-0.793457,3.540039,5.065918
11409,0.069702,-0.289551,0.893921,-0.488281,2.990723,5.249023
11419,0.045898,-0.254517,0.828247,-0.488281,3.173828,5.737305
11430,0.024414,-0.306763,0.813232,-0.976562,3.234863,7.202148
11440,0.063354,-0.069214,0.922241,-1.892090,3.417969,7.324219
11449,0.040283,-0.067749,1.044922,-1.831055,2.990723,7.568359
11458,-0.012329,-0.322998,0.988403,-1.220703,3.295898,7.568359
11469,-0.036621,-0.085571,0.993164,-1.281738,3.417969,6.835937
11479,-0.021118,-0.102417,0.977905,-1.342773,2.990723,6.469727
11489,-0.047363,-0.226807,0.861694,-1.831055,3.051758,6.347656
11499,-0.039063,-0.096680,0.919800,-2.319336,3.784180,7.019043
11510,-0.003540,-0.123047,0.947632,-2.380371,4.333496,7.934570
11520,-0.028564,-0.189087,1.045654,-2.258301,4.394531,8.605957
11529,-0.030151,-0.291870,0.936890,-2.563477,4.394531,8.789063
11539,-0.014038,-0.024048,1.016479,-3.295898,4.516602,8.544922
11549,0.042480,-0.041138,1.114380,-3.295898,4.150391,8.056641
11559,0.009277,-0.249878,1.007324,-3.234863,3.845215,7.324219
11571,0.095703,-0.043213,1.048096,-3.173828,3.784180,6.408691
11581,0.091431,-0.191040,1.002563,-3.601074,3.173828,6.408691
11590,0.130005,-0.083252,1.119263,-3.540039,2.929688,6.469727
11599,0.151245,0.041260,1.075562,-3.295898,2.563477,7.080078
11609,0.151123,-0.111328,1.018188,-2.868652,2.563477,7.995605
11619,0.086060,-0.144653,1.008545,-2.441406,2.319336,8.911133
11629,0.125122,-0.102173,1.096680,-2.197266,2.136230,9.704590
11639,0.058228,-0.036987,1.033813,-2.075195,1.647949,10.559082
11650,0.055542,-0.094482,0.999023,-1.342773,1.464844,11.230469
11659,0.048340,-0.123169,0.972656,-1.159668,1.281738,11.840820
11669,0.011353,-0.152832,0.926270,-1.525879,0.305176,12.023926
11678,0.028442,-0.015503,0.988647,-2.014160,0.427246,12.329102
11689,-0.011230,-0.098755,0.941162,-2.319336,0.366211,13.000488
11699,-0.043701,-0.117676,0.900757,-2.380371,0.488281,13.671875
11710,-0.068359,-0.137573,0.994385,-2.380371,0.854492,14.404297
11720,-0.071899,-0.231812,0.950073,-1.525879,1.770020,14.892578
11729,-0.025757,-0.018677,1.079346,-1.220703,1.708984,15.014648
11739,-0.032227,-0.142334,1.058716,-1.098633,1.647949,14.953613
11749,-0.013550,-0.178345,0.952881,-0.793457,1.464844,14.953613
11759,-0.051880,0.015381,1.079712,-0.061035,1.281738,14.831543
11769,0.006226,-0.205933,0.950195,0.427246,0.915527,14.404297
11779,-0.013672,-0.329590,0.732422,-0.427246,0.366211,12.573242
11790,0.007202,-0.125122,0.947876,-0.854492,-0.122070,12.084961
11800,0.065186,-0.110474,0.869385,-1.647949,-0.549316,11.535645
11809,0.121460,0.100464,0.988525,-1.464844,-0.122070,11.718750
11819,0.145630,-0.071777,0.991699,-1.220703,-0.244141,12.695313
11829,0.156494,-0.241943,0.918579,-1.281738,-0.793457,13.000488
11839,0.153931,-0.032593,1.047241,-1.647949,-1.098633,12.634277
11850,0.094604,-0.218262,0.940186,-1.586914,-2.258301,11.474609
11860,0.112427,-0.029663,0.994507,-0.793457,-3.662109,10.925293
11869,0.086548,-0.151611,1.040039,-0.488281,-4.028320,10.437012
11879,0.014038,-0.202759,0.927246,-0.671387,-3.967285,9.765625
11889,0.047119,-0.124512,1.050293,-1.159668,-4.028320,9.216309
11899,-0.004639,-0.044434,1.075684,-1.342773,-4.089355,8.911133
11910,-0.019653,-0.170044,0.990601,-0.549316,-3.723145,8.361816
11920,-0.034302,-0.064209,1.129639,-0.427246,-4.089355,7.751465
11930,0.000488,-0.139771,1.111328,-0.366211,-4.028320,7.446289
11939,0.020264,-0.172241,1.085327,-0.427246,-3.723145,7.263184
11949,0.018799,-0.080078,1.023071,-0.244141,-4.272461,7.507324
11959,0.022339,-0.247681,0.945190,-0.610352,-4.394531,7.507324
11969,0.045044,-0.276245,0.869873,-1.159668,-4.272461,7.446289
11980,0.012939,0.020020,1.066162,-2.441406,-3.234863,8.605957
11990,-0.007446,-0.118530,1.107056,-2.075195,-3.173828,8.789063
12000,-0.047607,-0.120605,1.092041,-1.342773,-3.295898,8.789063
12010,-0.032837,-0.168091,1.109375,-0.244141,-3.173828,8.850098
12020,0.004517,-0.207520,1.115723,0.488281,-2.624512,8.789063
12030,0.031372,-0.278564,0.982788,0.732422,-2.929688,8.605957
12039,-0.004395,-0.281982,0.916748,0.488281,-3.356934,8.178711
12049,-0.010010,-0.208252,0.869995,-0.305176,-3.784180,7.995605
12059,-0.072266,-0.212402,0.795776,-1.525879,-2.990723,7.751465
12070,-0.046265,-0.098511,0.922119,-1.831055,-2.807617,7.263184
12080,-0.046997,-0.219360,0.930664,-1.831055,-2.258301,6.530762
12090,-0.036255,0.048706,1.058716,-2.014160,-2.380371,6.103516
12099,-0.027344,0.078491,1.094116,-0.671387,-2.502441,5.126953
12109,-0.060791,-0.231323,1.003662,0.854492,-2.563477,4.150391
12119,-0.062622,-0.339111,0.961304,1.770020,-2.807617,3.662109
12130,-0.018433,-0.072388,0.948364,2.319336,-2.075195,2.502441
12140,0.005737,-0.264648,0.816284,2.075195,-1.525879,2.136230
12150,-0.031006,-0.076050,0.839478,1.403809,-1.220703,1.892090
12159,0.048340,-0.023315,0.906738,1.098633,-0.976562,1.953125
12169,0.047607,-0.190552,0.893921,0.610352,-1.403809,1.708984
12179,0.068604,-0.159546,0.982910,-0.183105,-1.464844,1.403809
12189,0.089111,0.012573,1.089966,-0.366211,-1.708984,1.098633
12201,0.084595,-0.090454,1.005005,-0.671387,-1.647949,1.586914
12211,0.102783,-0.027100,1.059326,-0.244141,-1.403809,2.197266
12220,0.093750,-0.075562,1.037842,0.000000,-1.586914,2.319336
12230,0.061035,-0.128052,0.985474,-0.549316,-2.136230,2.258301
12239,0.034180,0.006470,1.022095,-1.098633,-2.380371,1.892090
12249,0.054687,0.003052,1.027100,-1.037598,-2.136230,1.708984
12260,0.032837,-0.209106,1.034912,-2.014160,-2.136230,1.953125
12270,0.015015,0.061646,1.092041,-1.403809,-1.831055,2.136230
12280,0.032593,-0.199463,1.041382,-0.305176,-1.770020,2.502441
12289,0.002197,-0.285522,1.025024,-0.732422,-1.892090,2.136230
12299,0.015869,-0.064819,1.079102,-1.647949,-1.831055,1.586914
12309,-0.010498,0.074829,1.087646,-1.831055,-1.892090,1.281738
12319,-0.024536,-0.125244,0.998291,-1.647949,-2.319336,1.403809
12330,-0.042480,-0.192627,0.947021,-1.708984,-0.732422,1.708984
12340,-0.043945,-0.063965,0.987549,-0.854492,-0.244141,2.319336
12349,-0.015137,-0.239258,0.902588,-0.488281,0.366211,2.929688
12359,0.015259,-0.055664,0.929077,-0.915527,0.183105,2.929688
12369,0.038940,-0.041626,0.967529,-0.793457,-0.061035,2.746582
12379,-0.035522,-0.258423,0.908325,-0.488281,-0.305176,2.746582
12389,0.008545,-0.120850,0.930542,-0.671387,0.427246,2.441406
12400,-0.013672,-0.143311,0.945068,-1.525879,0.610352,2.258301
12410,-0.006470,-0.013306,0.873657,-2.075195,1.098633,2.502441
12420,-0.003662,-0.068970,0.939697,-2.319336,1.281738,3.173828
12430,0.014038,-0.207520,0.841675,-2.441406,1.831055,3.356934
12439,0.045410,0.033081,0.964233,-2.502441,2.136230,3.906250
12449,0.020386,-0.086426,1.031250,-2.258301,2.075195,4.577637
12459,0.034790,-0.278442,0.898315,-1.770020,2.197266,4.821777
12470,0.030029,-0.069336,1.019287,-1.770020,1.953125,5.187988
12480,0.017456,-0.215576,0.966431,-1.770020,1.403809,5.371094
12489,0.056519,-0.173950,0.960205,-1.586914,1.892090,5.920410
12499,0.033936,-0.007568,1.050049,-1.220703,1.953125,6.652832
12509,0.043823,-0.115723,1.044800,-1.281738,2.075195,7.080078
12519,-0.029297,-0.217041,1.034424,-1.281738,1.647949,7.507324
12530,0.026245,-0.135986,1.063721,-1.037598,2.075195,7.629395
12539,-0.010864,-0.084961,1.020264,-0.488281,2.685547,7.812500
12549,-0.000366,-0.104126,1.014282,-0.427246,2.075195,8.544922
12560,0.056519,-0.168091,0.999756,-0.427246,1.708984,8.544922
12570,0.032715,-0.200684,1.011108,-0.732422,1.892090,8.972168
12579,0.036133,-0.163574,0.958618,-1.647949,1.159668,8.850098
12589,0.093506,-0.058960,1.041504,-2.502441,0.793457,9.094238
12599,0.053589,-0.071289,1.033569,-2.868652,0.915527,9.460449
12609,0.078613,-0.177612,1.006958,-2.868652,1.220703,9.887695
12620,0.079590,-0.001709,1.061157,-2.868652,1.159668,9.521484
12630,0.060303,0.016602,1.104980,-3.173828,0.122070,8.911133
12639,0.072021,-0.109985,1.084839,-2.563477,0.183105,8.361816
12648,0.056763,-0.121460,0.973511,-2.197266,-0.488281,7.751465
12659,0.091797,-0.036621,1.007568,-2.075195,-1.037598,7.141113
12669,0.043945,-0.101929,0.985474,-1.892090,-1.220703,7.019043
12680,0.031738,-0.201050,0.900757,-2.807617,-1.098633,6.469727
12690,0.047729,-0.042480,0.922729,-3.234863,-1.586914,6.286621
12700,-0.005249,-0.026367,0.976929,-2.868652,-1.403809,5.615234
12709,0.011108,0.123169,1.066650,-2.319336,-1.037598,5.310059
12719,-0.047729,0.050049,1.027832,-1.525879,-0.732422,4.821777
12729,-0.010254,-0.193237,0.975098,-0.366211,-1.220703,4.272461
12739,-0.020752,-0.111450,0.976807,0.610352,-0.610352,4.333496
12750,0.033813,-0.059448,0.954224,1.159668,-1.098633,4.394531
12760,0.024048,-0.126221,0.833862,0.976562,-0.671387,4.882812
12770,0.038086,-0.032349,0.976562,0.610352,-0.305176,5.798340
12779,0.010010,-0.170776,0.945190,0.183105,0.061035,6.286621
12788,-0.000854,-0.151733,0.978394,-0.427246,0.244141,6.713867
12799,-0.002808,0.029297,1.110596,-0.427246,0.549316,7.507324
12809,-0.000244,-0.099854,1.122314,-0.488281,0.854492,8.239746
12820,0.008423,-0.318359,0.976440,-0.244141,0.427246,9.521484
12829,0.016479,-0.078857,1.103638,-0.183105,0.610352,10.314941
12840,0.038208,-0.147827,1.028809,-0.061035,0.549316,10.986328
12850,0.003784,-0.115601,0.935181,-0.183105,0.061035,11.230469
12859,0.014648,0.023926,1.012573,0.061035,-0.183105,11.474609
12869,0.027100,-0.150146,0.991211,0.061035,0.061035,12.084961
12879,0.007202,-0.207886,0.887329,-0.488281,-0.122070,12.634277
12890,0.049683,-0.018921,1.006348,-0.976562,-0.488281,13.427734
12900,0.031860,-0.238770,0.869873,-1.159668,-0.671387,13.916016
12910,0.048218,-0.120850,0.937500,-1.708984,-1.037598,13.549805
12920,0.042725,-0.162109,0.890381,-2.502441,-1.831055,13.122559
12929,-0.016113,-0.141968,0.911865,-3.295898,-1.586914,12.756348
12939,-0.013306,0.105957,1.027222,-3.417969,-1.647949,12.695313
12949,-0.062378,-0.127563,0.978394,-3.051758,-1.708984,13.000488
12960,-0.044922,-0.268799,0.899536,-3.051758,-0.732422,14.282227
12970,-0.052490,-0.034058,1.102295,-2.807617,-0.610352,15.075684
12980,-0.073730,-0.272583,0.973389,-2.380371,-0.732422,15.258789
12989,-0.072144,-0.130859,1.026489,-1.892090,-0.671387,15.014648
12999,-0.016968,0.041260,1.094604,-1.647949,-0.244141,14.953613
13009,-0.035645,-0.261353,0.981567,-1.403809,-1.037598,14.526367
13019,-0.058716,-0.379272,0.896973,-1.220703,-0.732422,13.916016
13029,-0.021240,-0.089966,1.015259,-1.708984,-0.793457,13.854980
13039,-0.007568,-0.009521,0.985596,-2.075195,-1.098633,13.977051
13049,0.013550,-0.223755,0.995361,-1.770020,-1.098633,13.732910
13059,0.042236,-0.048950,1.052002,-1.403809,-1.098633,14.221191
13069,0.007324,-0.191406,1.013184,-1.281738,-1.159668,14.099121
13079,0.017090,-0.194458,0.988525,-1.708984,-1.647949,13.549805
13089,-0.044678,-0.089233,1.050781,-1.708984,-1.708984,13.061523
13100,0.014526,-0.163574,1.046265,-1.831055,-2.258301,12.207031
13110,0.041138,-0.012695,0.961670,-1.708984,-2.319336,11.962891
13120,0.054199,-0.108276,1.008667,-1.770020,-2.807617,11.840820
13129,0.035034,-0.327148,0.854614,-2.075195,-2.807617,10.986328
13139,0.016235,-0.099365,0.914673,-2.929688,-3.356934,10.131836
13149,0.041992,0.094360,1.058105,-3.173828,-3.540039,8.972168
13159,0.073975,-0.176636,0.965698,-2.990723,-4.211426,7.995605
13170,0.057739,-0.215576,0.983765,-3.173828,-4.760742,6.774902
13180,0.091187,0.033203,1.139648,-2.685547,-4.394531,6.713867
13190,0.067749,-0.102417,1.069092,-2.075195,-4.760742,5.798340
13200,0.036621,-0.157349,0.904419,-1.586914,-5.798340,4.516602
13209,0.102051,-0.028076,0.922974,-1.831055,-6.408691,3.173828
13219,0.061401,-0.150513,0.862061,-2.075195,-6.774902,1.953125
13229,0.058838,-0.153809,0.879761,-1.953125,-6.713867,0.549316
13240,0.041748,-0.013062,0.942139,-2.075195,-6.591797,-1.586914
13250,0.048706,-0.216431,0.952515,-2.075195,-6.713867,-2.990723
13259,0.048950,-0.044678,1.052002,-1.525879,-6.652832,-4.699707
13269,0.055786,-0.153564,1.034058,-1.525879,-6.774902,-6.225586
13279,0.026123,-0.207642,0.963989,-1.831055,-6.591797,-7.324219
13289,0.022705,-0.015137,0.989868,-2.014160,-6.469727,-8.056641
13299,0.008179,-0.060059,1.018799,-2.136230,-6.469727,-8.483887
13309,0.007568,-0.243530,0.939209,-2.197266,-6.225586,-9.033203
13320,0.026489,0.065186,1.147217,-2.868652,-5.798340,-9.399414
13330,0.044312,0.025513,1.111084,-2.380371,-5.371094,-9.277344
13339,0.012207,-0.093140,1.079834,-1.647949,-4.577637,-8.850098
13349,0.033569,-0.129639,1.047485,-0.671387,-3.479004,-8.239746
13359,0.063110,-0.066650,1.059570,-0.183105,-2.990723,-7.446289
13369,0.072144,-0.057617,1.028564,-0.061035,-3.295898,-6.713867
13379,0.043823,-0.196899,0.920654,-0.061035,-2.929688,-5.981445
13389,0.056885,-0.151367,0.945923,-0.793457,-2.319336,-4.516602
13399,0.017334,-0.075928,0.882080,-1.159668,-1.831055,-3.662109
13409,-0.002808,-0.067993,0.982056,-1.647949,-1.586914,-2.502441
13419,-0.060425,0.042114,1.053101,-1.831055,-1.220703,-1.892090
13429,-0.053345,-0.110229,0.997437,-1.892090,-0.732422,-0.793457
13439,-0.067505,-0.118530,0.944214,-1.281738,0.183105,0.305176
13451,-0.014404,0.000854,1.000244,-0.427246,0.793457,2.319336
13460,-0.025635,-0.288940,0.851685,-0.488281,0.793457,2.868652
13470,0.001465,-0.085327,0.934692,-0.549316,1.281738,3.784180
13479,0.001709,-0.144165,0.911499,-0.915527,0.915527,4.333496
13489,-0.013184,-0.354004,0.809326,-1.831055,1.464844,5.004883
13499,-0.027710,-0.039185,0.848633,-2.502441,1.647949,5.859375
13509,0.099365,0.037720,1.016357,-2.563477,2.441406,7.934570
13522,0.021362,-0.228271,0.949463,-1.831055,1.770020,9.887695
13531,0.031982,-0.090332,0.972290,-1.098633,1.525879,10.498047
13541,0.106445,-0.143433,0.985107,-1.037598,1.159668,10.620117
13550,0.001709,-0.289673,0.944580,-1.159668,0.671387,10.986328
13559,0.020996,-0.077271,0.939453,-1.525879,0.183105,10.986328
13569,0.023682,-0.013428,0.965332,-1.159668,-0.122070,11.047363
13579,0.055054,-0.128540,0.946167,-1.464844,-0.244141,10.986328
13590,0.010742,-0.143677,1.005005,-1.647949,0.000000,10.681152
13600,0.005493,-0.123779,1.088013,-1.647949,-0.244141,9.948730
13609,-0.062988,-0.243530,1.088135,-1.892090,-0.915527,9.155273
13619,-0.024292,-0.113525,1.098999,-1.892090,-1.708984,8.239746
13629,-0.002563,0.004883,1.099609,-1.892090,-1.892090,7.690430
13639,-0.000732,-0.087036,1.064575,-1.464844,-2.136230,7.202148
13649,-0.021118,-0.176758,1.005615,-1.647949,-1.892090,7.263184
13659,0.018433,-0.107666,0.998901,-1.770020,-1.892090,7.507324
13670,0.064941,-0.116455,1.048462,-1.892090,-1.525879,7.751465
13680,0.060059,-0.161743,0.997437,-2.258301,-1.586914,7.751465
13689,0.056885,-0.205933,0.883423,-2.319336,-1.892090,7.202148
13700,0.076538,-0.175903,0.956909,-2.502441,-2.258301,6.347656
13709,0.076782,-0.099609,0.983521,-2.624512,-3.112793,5.310059
13720,0.060913,-0.060303,0.999634,-2.929688,-3.723145,4.394531
13729,0.071777,-0.075073,1.013428,-2.929688,-3.967285,3.601074
13741,0.005737,-0.123535,0.996216,-2.807617,-4.333496,2.685547
13750,-0.015015,-0.120972,0.985962,-2.868652,-4.150391,2.136230
13760,-0.040161,-0.016235,1.062866,-2.563477,-3.723145,1.586914
13769,0.005493,0.005859,1.080566,-1.525879,-2.868652,1.464844
13780,-0.015503,-0.087280,1.018311,-0.183105,-3.051758,1.403809
13789,-0.012451,-0.223511,0.995239,0.854492,-2.929688,0.732422
13799,0.001709,-0.261841,0.980469,1.464844,-3.295898,0.427246
13810,-0.004395,-0.127319,0.958740,1.770020,-2.746582,-0.122070
13820,-0.025635,-0.131714,0.916626,0.793457,-2.868652,-0.732422
13829,0.031860,-0.105103,0.919678,0.000000,-2.563477,-0.976562
13840,-0.013916,0.026611,0.976807,-0.183105,-1.953125,-1.708984
13849,0.013184,0.045654,1.021729,0.244141,-1.953125,-2.502441
13860,0.010498,-0.112549,0.945190,0.915527,-1.403809,-3.295898
13869,0.033813,-0.224976,0.825806,0.976562,-1.831055,-5.371094
13879,0.094360,-0.071045,0.971436,0.183105,-2.746582,-5.981445
13889,0.096680,-0.045166,0.873413,-0.305176,-2.868652,-6.347656
13899,0.072876,-0.103760,0.936401,-1.098633,-3.173828,-6.408691
13909,0.108398,0.067993,1.017578,-1.586914,-2.685547,-6.347656
13920,0.033203,-0.017212,0.977051,-2.136230,-2.441406,-5.981445
13929,-0.003906,-0.009277,1.014771,-2.685547,-2.197266,-5.920410
13939,-0.055542,0.149414,1.161377,-2.746582,-1.525879,-5.004883
13951,-0.051636,-0.043945,1.092407,-0.976562,-0.122070,-2.075195
13961,0.006714,-0.195435,1.007690,-0.732422,0.122070,-0.488281
13970,0.002808,-0.153076,0.909790,-0.549316,0.305176,1.220703
13979,0.038940,0.035767,0.980591,-0.732422,0.732422,2.685547
13990,0.055664,-0.215088,0.867310,-1.159668,0.000000,3.356934
13999,0.037964,-0.257324,0.746216,-1.953125,0.366211,3.601074
14011,0.030640,0.013794,0.911011,-2.929688,-0.061035,3.051758
14020,-0.039063,-0.243774,0.910156,-3.234863,0.183105,2.990723
14030,-0.054932,-0.051636,1.074097,-3.662109,-0.244141,3.051758
14040,-0.080566,-0.012939,1.099976,-3.234863,0.244141,3.295898
14049,-0.098999,-0.200073,0.952515,-3.540039,0.732422,4.150391
14059,-0.078735,-0.077271,0.995239,-4.028320,1.403809,5.371094
14069,-0.041016,0.096802,1.117310,-3.967285,1.892090,6.896973
14080,-0.051514,-0.010620,1.065308,-3.295898,2.807617,10.009766
14090,-0.052368,-0.015991,1.037720,-2.807617,2.746582,11.169434
14100,-0.013916,-0.042236,1.002808,-2.502441,3.356934,12.084961
14109,-0.014648,-0.235596,0.934692,-2.624512,3.112793,12.817383
14119,0.003662,-0.123779,0.918945,-2.624512,2.929688,12.817383
14129,0.024170,0.079346,1.014282,-2.380371,3.417969,12.695313
14140,0.018677,-0.166626,0.940552,-2.624512,2.136230,12.268066
14149,-0.000732,-0.248291,0.859009,-3.051758,1.586914,11.474609
14160,-0.000366,0.086182,1.079956,-3.479004,0.671387,10.131836
14170,-0.019531,-0.198120,0.967407,-2.868652,0.732422,9.704590
14179,-0.009644,-0.132080,0.986694,-2.319336,0.793457,9.338379
14190,0.018066,0.054687,1.041870,-1.464844,0.915527,8.911133
14200,0.030518,-0.186279,0.981812,-1.159668,1.037598,8.666992
14209,0.002319,-0.303101,0.942139,-1.220703,-0.122070,7.934570
14222,0.002197,-0.075195,1.024414,-2.136230,-0.366211,6.591797
14231,0.022217,-0.190430,0.930420,-2.746582,-0.427246,5.554199
14241,0.001709,-0.106445,0.967163,-3.234863,-0.244141,4.699707
14250,0.036499,-0.062012,0.999634,-3.417969,-0.427246,4.089355
14259,0.021973,-0.189087,0.920654,-3.601074,-0.915527,3.845215
14270,0.051147,-0.032837,1.003662,-3.784180,-1.159668,3.601074
14279,0.069214,0.092651,1.109375,-3.112793,-1.342773,3.662109
14290,0.076660,-0.083008,1.057983,-1.403809,-1.281738,4.272461
14300,0.042358,-0.173096,1.057617,-0.793457,-2.014160,4.638672
14309,0.045410,-0.178589,1.012207,-0.305176,-1.281738,5.004883
14319,0.041260,-0.309814,0.963623,-0.061035,-1.831055,4.638672
14330,0.078491,-0.314697,1.015381,0.305176,-1.770020,4.028320
14339,-0.041626,-0.347168,1.046753,-0.305176,-3.173828,3.051758
14350,0.027222,0.027222,1.064453,-3.723145,-2.502441,2.258301
14359,-0.027466,-0.054932,0.919678,-4.699707,-2.563477,0.305176
14371,-0.044067,-0.232666,0.961914,-0.915527,-1.831055,-0.671387
14380,0.017944,-0.250610,1.099243,-0.244141,-2.685547,-2.319336
14390,0.042725,-0.204590,0.919434,-1.464844,-3.295898,-3.784180
14399,0.015381,-0.790283,-0.292236,-2.746582,-4.516602,-5.004883
14409,0.090698,0.092529,0.971924,-9.033203,-4.394531,-5.004883
14420,0.140991,0.149536,0.489746,-15.380859,-5.432129,-5.432129
14429,-0.052856,0.356812,0.191406,-20.324707,-6.469727,-7.385254
14440,-0.036865,0.712280,1.117798,-17.761230,-2.624512,-3.784180
14450,-0.034058,0.196289,1.236694,-13.488770,-1.342773,-1.464844
14459,-0.102661,0.104370,1.257080,-13.549805,-0.976562,-0.061035
14470,0.030029,0.338013,1.145752,-16.723633,0.305176,0.305176
14479,-0.006836,0.568481,1.089478,-18.310547,1.892090,1.037598
14489,0.026855,0.488647,0.940186,-16.784668,1.586914,2.441406
14501,-0.045288,0.387939,0.990356,-12.451172,0.732422,2.929688
14510,-0.035522,0.279541,1.287354,-11.108398,0.244141,2.258301
14519,0.013062,0.281738,1.266602,-10.437012,-1.037598,1.892090
14529,0.041870,0.441406,1.131714,-11.169434,-0.671387,2.258301
14540,0.058105,0.623901,1.049438,-11.718750,-0.183105,3.601074
14549,0.026245,0.735596,1.079102,-10.620117,0.732422,5.126953
14560,-0.062988,0.458618,1.121094,-6.896973,1.220703,6.591797
14569,-0.107178,0.149170,1.161377,-5.187988,1.403809,7.324219
14580,-0.059570,0.528442,0.951294,-6.958008,2.563477,8.178711
14590,-0.021240,0.649536,0.970093,-10.375977,5.615234,9.216309
14599,-0.011230,0.511719,1.081421,-9.094238,2.685547,10.070801
14609,-0.092651,0.472778,1.393311,-6.347656,6.591797,10.192871
14620,-0.038086,0.351074,1.383423,-6.835937,1.586914,9.887695
14629,0.010864,0.298096,1.271362,-5.920410,3.173828,8.361816
14640,0.067871,0.584839,1.202515,-6.835937,-1.403809,8.178711
14650,0.066528,0.289307,1.066895,-2.014160,2.502441,8.544922
14660,0.046997,-0.009521,1.254639,1.708984,-0.122070,7.812500
14669,0.016479,-0.096802,0.927002,1.037598,0.122070,6.408691
14680,0.054687,0.122803,0.611816,-1.037598,-2.258301,5.065918
14689,0.090088,0.556641,0.617920,-3.967285,0.244141,6.530762
14700,0.093018,0.685791,1.012817,-3.112793,2.502441,7.385254
14712,-0.027222,-0.094604,0.442017,-0.488281,-3.417969,4.699707
14721,0.125122,0.347168,0.735962,-4.089355,0.671387,2.868652
14731,0.072998,1.210938,1.401611,-10.498047,-2.197266,1.525879
14740,-0.101440,1.054932,1.131348,-11.596680,-1.770020,0.854492
14749,-0.102417,0.537231,0.547363,-8.117676,-0.793457,1.159668
14759,0.115723,0.547241,0.852417,-4.760742,1.342773,1.892090
14769,0.205566,0.591797,1.297852,-5.615234,0.610352,0.854492
14782,-0.001099,0.707031,0.902100,-7.629395,-2.075195,-1.831055
14791,0.141235,0.428955,0.700684,-5.310059,-1.342773,-1.770020
14801,0.235474,0.486450,1.053223,-4.333496,-2.807617,-1.708984
14810,0.065796,0.841919,1.397217,-6.042480,-2.929688,-1.586914
14820,-0.125366,0.748657,1.110107,-7.446289,-5.798340,-1.464844
14829,-0.041748,0.551147,0.673950,-6.469727,1.342773,-0.427246
14840,0.098022,0.628418,0.822144,-6.652832,-0.427246,0.976562
14849,0.040039,0.733398,1.208740,-6.469727,0.000000,1.220703
14860,-0.190918,0.502808,1.052246,-4.943848,-1.708984,0.610352
14870,-0.036987,0.407227,0.885132,-4.089355,2.136230,1.159668
14879,0.009399,0.640259,1.026367,-4.638672,-0.488281,0.549316
14890,-0.097900,0.840454,1.155640,-5.371094,1.159668,0.915527
14899,-0.182129,0.571045,1.106567,-3.723145,-0.305176,0.915527
14910,-0.040771,0.191895,0.878052,-1.647949,5.004883,0.793457
14919,0.062012,0.440552,1.060669,-4.394531,0.061035,0.549316
14930,-0.016235,0.810303,1.135986,-6.103516,3.540039,2.990723
14939,0.014648,0.531250,0.773682,-7.934570,3.845215,3.784180
14949,0.070923,0.683228,0.931885,-7.812500,3.784180,3.540039
14959,0.065308,0.727539,1.104248,-8.544922,2.563477,2.624512
14969,-0.014404,0.776978,1.134155,-9.277344,2.197266,1.586914
14980,0.006714,0.825684,1.084961,-9.948730,3.540039,0.671387
14989,0.086182,0.707642,0.799072,-10.314941,3.906250,1.281738
15001,0.133301,0.876343,1.146973,-11.840820,0.854492,1.831055
15010,0.059448,0.669678,1.097168,-11.291504,3.479004,1.708984
15019,0.125122,0.575684,1.026367,-12.207031,0.732422,1.708984
15029,0.155640,0.633057,1.037109,-11.962891,2.990723,0.854492
15040,0.138306,0.659912,1.042969,-13.427734,2.075195,1.281738
15049,0.073975,0.657593,0.991577,-14.282227,1.403809,0.976562
15060,0.038696,0.654297,0.908081,-14.648438,0.793457,-0.549316
15070,0.056641,0.492676,1.085083,-14.038086,0.244141,-1.708984
15080,-0.012085,0.624512,1.105347,-13.793945,0.549316,-2.624512
15090,-0.007202,0.529541,0.909058,-12.573242,0.854492,-3.112793
15099,0.109863,0.321777,0.846191,-10.070801,1.281738,-4.272461
15109,0.160400,0.334961,0.997925,-8.972168,0.793457,-5.004883
15120,0.010986,0.242554,1.113403,-7.507324,-0.183105,-6.164551
15129,-0.019653,0.165894,1.076050,-5.065918,-0.976562,-7.019043
15141,0.054443,0.101685,0.851807,0.366211,0.793457,-5.798340
15150,0.027588,0.226807,0.849365,1.708984,1.770020,-4.211426
15159,-0.017212,0.353516,0.865601,3.234863,2.136230,-2.685547
15170,0.004150,0.401489,0.813965,5.432129,2.258301,-1.525879
15179,0.027466,0.406006,0.774048,8.117676,1.159668,-0.732422
15190,0.086182,0.507935,0.862793,10.986328,0.671387,-0.427246
15199,0.082031,0.615723,0.937744,13.183594,-0.183105,1.647949
15210,0.075806,0.420410,0.830078,18.371582,0.061035,1.892090
15220,0.135132,0.402344,0.868530,20.751953,-0.244141,0.366211
15229,0.121216,0.454346,0.928833,22.216797,-1.586914,-1.586914
15240,0.082031,0.447998,0.918701,23.681641,-2.868652,-3.845215
15249,0.045166,0.434204,0.915283,26.245117,-2.563477,-5.859375
15260,0.025635,0.504639,0.946289,29.174805,-1.892090,-7.019043
15272,-0.039063,-0.439819,0.966553,34.545898,-1.342773,-8.300781
15282,-0.054199,-1.932983,1.627686,32.409668,-0.488281,-8.911133
15291,0.099121,-1.541748,2.175659,17.028809,-1.281738,-8.361816
15300,-0.020020,-0.829346,1.307983,4.028320,-2.014160,-5.859375
15310,-0.166992,-0.301880,0.489258,2.075195,-1.525879,-2.807617
15320,0.145752,-0.171387,-0.000732,8.666992,-1.525879,-1.281738
15329,0.351807,-1.164551,0.637695,15.136719,-0.488281,-0.183105
15342,-0.175903,-0.219849,1.623291,3.417969,0.854492,6.042480
15351,-0.367188,0.289307,1.163940,0.854492,-0.183105,3.112793
15360,-0.232300,0.484131,1.166992,1.770020,-2.258301,-4.272461
15370,0.131836,0.399536,1.533081,4.577637,-3.540039,-8.300781
15380,0.464966,0.522583,1.920410,5.493164,-2.624512,-9.521484
15389,0.424927,0.637329,2.025391,5.126953,-2.807617,-8.789063
15399,0.171997,0.439819,1.566772,7.202148,-4.699707,-7.934570
15412,0.075439,0.140625,1.301880,12.145996,-8.605957,-10.986328
15421,0.417847,0.270020,1.513672,13.000488,-8.056641,-12.756348
15430,0.294800,0.192261,1.073120,14.099121,-7.568359,-12.878418
15440,0.187256,0.103760,1.029053,15.075684,-7.568359,-12.634277
15449,0.110107,0.061890,0.601318,15.014648,-8.728027,-11.901855
15460,-0.094238,0.011353,0.595703,14.526367,-8.789063,-10.620117
15470,-0.167114,-0.012085,0.586548,14.343262,-7.995605,-11.047363
15480,-0.186401,-0.115234,0.575806,12.878418,-3.295898,-11.230469
15490,-0.256104,-0.307617,0.532471,11.962891,-2.441406,-10.986328
15499,-0.300781,-0.296997,0.599487,10.925293,-1.525879,-11.352539
15510,-0.419556,-0.349121,0.644287,10.192871,-1.037598,-11.962891
15519,-0.407593,-0.370117,0.692749,9.826660,0.305176,-12.756348
15530,-0.355957,-0.472046,0.756836,9.582520,1.708984,-13.061523
15539,-0.262695,-0.541992,0.744873,9.216309,2.624512,-12.451172
15552,-0.163086,-0.552368,0.840332,7.141113,4.089355,-8.178711
15561,-0.144165,-0.499268,0.820068,5.859375,4.760742,-4.394531
15570,-0.122070,-0.443359,0.816528,5.249023,5.554199,0.000000
15580,-0.094482,-0.287354,0.811157,4.882812,6.469727,4.211426
15589,-0.061279,-0.253906,0.765503,4.272461,7.019043,8.300781
15599,-0.020874,-0.136841,0.690552,3.540039,7.446289,11.779785
15610,0.036499,-0.072510,0.759277,3.112793,7.263184,14.404297
15619,0.111084,-0.023437,0.872314,2.502441,7.324219,18.676758
15631,0.262573,-0.039429,0.998413,1.647949,6.835937,20.263672
15640,0.329590,-0.032349,0.984253,0.793457,6.103516,20.996094
15650,0.388184,0.011475,1.090576,-0.061035,5.310059,22.277832
15659,0.330078,-0.024170,1.127930,0.061035,4.943848,23.193359
15670,0.330688,-0.109131,1.201782,0.305176,5.065918,22.094727
15680,0.256470,-0.231323,1.185669,0.305176,3.784180,20.507812
15689,0.242432,-0.311890,1.063843,-0.122070,2.258301,15.869141
15701,0.306641,-0.343384,1.094849,-1.281738,1.220703,13.366699
15710,0.163208,-0.392578,1.076904,-2.075195,-0.610352,10.314941
15719,0.068726,-0.272949,1.004639,-3.356934,-2.929688,6.591797
15730,-0.116577,-0.059570,1.001465,-4.394531,-4.516602,3.540039
15740,-0.156372,-0.170166,0.900757,-3.234863,-4.516602,2.319336
15749,-0.180908,-0.246582,0.938354,-2.014160,-3.173828,0.305176
15762,-0.094849,-0.275757,0.966431,-2.197266,-1.342773,-2.746582
15771,-0.074219,-0.270996,0.912964,-2.014160,-1.586914,-4.150391
15781,-0.066895,-0.174316,0.946899,-1.647949,-1.525879,-4.455566
15791,-0.031616,-0.292480,0.889526,-0.854492,-1.037598,-3.479004
15800,-0.017456,-0.406128,0.817139,-1.098633,-0.915527,-3.234863
15810,0.004639,-0.259888,0.847778,-2.075195,-0.732422,-2.380371
15820,0.017944,-0.232910,0.874146,-2.441406,-0.122070,-0.244141
15829,0.031616,-0.201172,0.859253,-3.479004,1.098633,3.967285
15841,0.043457,-0.071533,0.955322,-3.967285,1.403809,6.958008
15850,0.029541,-0.095459,1.004272,-3.906250,2.197266,8.972168
15860,0.006714,-0.067017,0.999878,-4.272461,1.342773,10.681152
15870,0.009033,-0.055176,1.036133,-3.906250,2.502441,12.023926
15879,0.031494,-0.078003,1.036377,-3.356934,2.319336,12.573242
15889,0.039429,-0.074707,0.998779,-3.173828,2.502441,12.817383
15902,0.072632,-0.104858,0.931519,-3.295898,1.708984,14.343262
15911,0.076172,-0.108643,0.943726,-3.417969,1.892090,14.892578
15920,0.060913,-0.122925,0.972046,-3.479004,2.563477,15.625000
15929,0.044189,-0.167603,0.965698,-3.540039,2.197266,15.869141
15940,0.048218,-0.167114,0.994385,-3.417969,2.197266,15.441895
15949,0.060547,-0.158081,1.019043,-3.906250,2.075195,15.258789
15960,0.082031,-0.151001,1.038208,-4.028320,1.464844,14.709473
15972,0.093262,-0.108032,1.050903,-3.967285,0.671387,11.413574
15981,0.095459,-0.087402,1.026001,-3.723145,0.305176,9.826660
15991,0.119995,-0.077637,1.020630,-3.356934,0.000000,7.690430
16000,0.127686,-0.057251,0.999023,-3.417969,-1.098633,5.798340
16009,0.134521,-0.050781,0.990356,-3.295898,-1.586914,3.845215
16020,0.136597,-0.055664,1.003174,-3.051758,-1.770020,1.647949
16030,0.124023,-0.058228,1.001953,-2.929688,-2.258301,-0.061035
16042,0.138672,-0.103027,1.026611,-2.746582,-2.807617,-2.807617
16052,0.123901,-0.102905,1.020386,-2.563477,-3.234863,-3.967285
16061,0.103760,-0.092896,1.014648,-2.319336,-2.807617,-4.394531
16070,0.092285,-0.093140,1.005249,-2.197266,-3.112793,-4.821777
16080,0.063599,-0.129639,1.083008,-2.014160,-3.723145,-5.432129
16089,0.039551,-0.167847,1.010986,-1.892090,-3.417969,-5.676270
16100,0.031128,-0.144653,0.999634,-1.892090,-4.821777,-5.737305
16110,0.022095,-0.072266,1.035522,-1.831055,-4.333496,-5.676270
16121,-0.007935,-0.089233,1.017578,-1.831055,-4.577637,-5.065918
16131,-0.009521,-0.092529,1.013672,-1.770020,-4.821777,-4.333496
16140,0.008667,-0.119873,0.990356,-1.708984,-5.126953,-3.295898
16150,0.029663,-0.125610,1.002197,-1.586914,-4.272461,-2.319336
16159,0.026978,-0.059814,0.972900,-1.708984,-4.150391,-1.892090
16170,0.010498,-0.059937,0.977295,-1.831055,-5.249023,-0.976562
16179,0.010620,-0.038452,0.978394,-1.892090,-3.601074,1.342773
16191,-0.002441,-0.023682,0.974121,-1.708984,-3.173828,2.502441
16201,-0.015015,-0.010986,0.977417,-1.525879,-2.807617,3.234863
16210,-0.049072,0.000488,0.969727,-1.464844,-2.441406,3.845215
16219,-0.044434,-0.027344,0.976929,-1.281738,-1.647949,5.187988
16230,0.018921,-0.031006,0.967651,-1.342773,-1.403809,6.286621
16239,0.038452,-0.048828,0.969238,-1.220703,-1.647949,7.019043
16252,0.043945,-0.091187,0.992310,-1.098633,-2.258301,9.399414
16261,0.086792,-0.021606,0.987427,-0.732422,-1.647949,10.864258
16271,0.081665,-0.130737,0.973511,-0.610352,-3.112793,11.901855
16280,0.047119,-0.269653,0.975464,0.671387,-1.647949,12.207031
16289,0.034546,-0.291992,1.034790,1.098633,-2.746582,12.023926
16300,0.026123,-0.286377,1.087646,0.427246,-1.708984,13.000488
16310,0.025635,-0.252075,1.091431,0.488281,-2.746582,12.634277
16319,0.026978,-0.339355,1.013184,0.915527,-2.685547,10.070801
16331,-0.105713,-0.217529,0.946655,0.183105,-2.563477,7.080078
16340,-0.174194,-0.079712,0.990723,-0.366211,-2.441406,3.845215
16350,-0.277832,-0.031006,1.001587,0.061035,-1.647949,0.854492
16360,-0.270630,-0.083374,1.000732,0.427246,-0.549316,-1.831055
16369,-0.188965,-0.055908,1.032837,0.305176,-0.427246,-4.760742
16381,-0.088989,-0.080200,1.013184,-0.915527,-0.305176,-6.713867
16391,0.058594,-0.019531,0.952759,-1.220703,-0.366211,-6.164551
16401,0.099243,-0.045044,0.974487,-1.708984,-0.122070,-4.455566
16411,0.068848,-0.077148,0.955566,-1.464844,1.281738,-2.685547
16420,0.028564,-0.114746,0.978027,-1.464844,2.258301,-1.281738
16429,0.017700,-0.127319,1.006958,-1.647949,1.770020,-0.427246
16440,-0.021851,-0.142456,1.008545,-1.647949,1.586914,-0.427246
16449,-0.146118,-0.225708,0.953857,-1.525879,2.014160,-1.037598
16462,-0.003418,-0.308472,0.933594,-1.770020,2.502441,-2.990723
16471,-0.009155,-0.337524,0.945679,-1.831055,1.953125,-4.211426
16481,-0.005737,-0.352417,0.955078,-1.525879,2.014160,-5.371094
16490,0.055420,-0.387573,1.001221,-1.525879,3.173828,-4.516602
16500,0.119019,-0.395874,0.991577,-1.220703,2.502441,-4.943848
16509,0.081787,-0.383423,0.988159,-0.549316,1.892090,-5.554199
16520,0.088013,-0.380005,0.969482,-0.488281,1.342773,-5.371094
16529,0.123047,-0.357544,0.958496,-0.488281,0.549316,-3.906250
16541,0.067261,-0.259277,0.985718,-0.488281,0.732422,-2.380371
16550,0.006348,-0.184204,0.978882,-0.488281,0.488281,-0.549316
16560,-0.077515,-0.109497,0.976440,-0.305176,1.220703,3.662109
16569,-0.071045,-0.165771,1.024780,0.061035,2.380371,8.911133
16580,-0.169312,-0.134155,1.000610,0.061035,3.051758,12.329102
16591,-0.300049,-0.078369,0.960083,-0.915527,4.577637,20.874023
16601,-0.200806,0.020020,0.921631,-0.915527,6.774902,24.230957
16611,-0.176514,-0.016113,0.941650,-0.915527,9.094238,29.052734
16621,-0.160156,-0.044800,0.940430,-0.976562,9.948730,32.653809
16630,-0.101074,-0.065063,0.953003,-1.159668,11.474609,36.193848
16640,0.014526,-0.099365,0.978271,-1.647949,12.023926,40.832520
16650,0.109009,-0.095337,1.009766,-1.770020,13.916016,44.677734
16660,0.117310,-0.114380,1.000122,-1.831055,13.244629,47.668457
16671,0.161133,-0.172363,0.995605,-1.831055,13.854980,50.109863
16681,0.181030,-0.189331,0.979492,-2.075195,12.939453,53.710937
16690,0.165771,-0.167358,0.992065,-2.258301,12.695313,55.297852
16700,0.139038,-0.149780,1.027710,-2.380371,11.657715,56.762695
16710,0.137695,-0.183472,1.014893,-1.708984,11.474609,58.166504
16720,0.125610,-0.210815,1.001343,-1.159668,12.512207,59.448242
16729,0.115479,-0.229248,1.005005,-1.159668,11.596680,60.424805
16742,0.072510,-0.307983,0.948608,-1.586914,10.314941,60.302734
16751,0.073120,-0.305420,0.954468,-1.953125,9.826660,59.082031
16760,0.088989,-0.268921,0.976929,-2.197266,9.643555,56.884766
16770,0.089966,-0.286499,0.985229,-2.136230,8.911133,54.199219
16780,0.072632,-0.347900,0.973389,-1.708984,7.629395,51.147461
16790,0.055176,-0.356812,1.000854,-1.892090,7.385254,47.851562
16800,0.042236,-0.352051,1.030762,-2.075195,7.385254,44.433594
16811,0.112305,-0.389282,0.988403,-2.136230,5.981445,36.804199
16821,0.159912,-0.404541,0.973633,-2.258301,4.882812,32.348633
16830,0.195312,-0.384644,0.973999,-2.014160,4.028320,27.832031
16840,0.233154,-0.380493,0.988403,-1.831055,2.929688,23.742676
16850,0.275391,-0.425537,0.979736,-1.586914,1.647949,19.958496
16860,0.299683,-0.427490,0.983887,-1.403809,-0.183105,15.625000
16870,0.336426,-0.397217,0.997314,-1.586914,-0.976562,11.657715
16880,0.350586,-0.340332,1.022705,-1.464844,-3.967285,3.295898
16891,0.326660,-0.299805,0.942749,-0.915527,-6.408691,-1.220703
16901,0.278320,-0.340454,0.945923,-0.305176,-5.737305,-4.211426
16910,0.264160,-0.363159,0.960815,-0.366211,-7.507324,-7.019043
16920,0.215088,-0.338257,0.974487,-1.525879,-9.460449,-9.277344
16930,0.166016,-0.256104,1.001465,-1.892090,-10.314941,-12.695313
16940,0.132568,-0.229492,0.965820,-1.831055,-11.535645,-15.686035
16951,0.183105,-0.262207,1.020264,-1.586914,-13.366699,-21.850586
16961,0.300903,-0.335693,1.060059,-1.281738,-11.474609,-24.658203
16970,0.154419,-0.294678,1.027954,-1.647949,-12.634277,-27.770996
16980,0.169189,-0.280029,0.972046,-2.014160,-14.587402,-31.066895
16989,0.131836,-0.277588,0.938110,-1.953125,-14.282227,-34.484863
17000,0.125610,-0.308472,0.944336,-2.014160,-15.869141,-38.696289
17010,0.073120,-0.314575,0.954102,-2.197266,-16.113281,-42.053223
17019,0.085205,-0.223511,1.054688,-2.746582,-17.150879,-48.645020
17031,0.071899,-0.192749,1.015015,-2.746582,-17.456055,-52.124023
17040,0.063599,-0.248901,0.946167,-2.685547,-17.944336,-54.748535
17050,0.072510,-0.173340,0.993896,-2.746582,-16.174316,-57.250977
17059,0.094849,-0.108398,1.008911,-2.990723,-16.357422,-59.387207
17070,0.060913,-0.154175,0.970703,-2.685547,-16.967773,-60.485840
17080,0.060547,-0.171997,0.994995,-2.380371,-17.028809,-61.889648
17091,0.114502,-0.054810,1.027954,-2.624512,-15.686035,-61.645508
17101,0.154175,-0.044556,0.959717,-2.563477,-14.709473,-61.218262
17111,0.104004,-0.083862,0.983521,-2.319336,-15.258789,-60.302734
17120,0.118042,-0.135376,0.959106,-1.525879,-14.038086,-59.265137
17130,0.147949,-0.119019,1.002319,-1.525879,-12.878418,-57.983398
17139,0.185059,-0.084717,0.992920,-1.708984,-13.366699,-56.457520
17151,0.140991,-0.060547,0.969849,-1.281738,-13.244629,-52.856445
17161,0.168823,-0.074707,0.953735,-0.915527,-12.268066,-50.598145
17170,0.164185,-0.021484,0.983521,-0.854492,-12.390137,-48.461914
17180,0.154541,-0.060181,0.959473,-0.488281,-12.329102,-46.386719
17190,0.011719,0.101196,0.640259,-0.488281,-11.779785,-44.006348
17200,0.044678,0.037964,0.820312,-0.488281,-10.864258,-41.442871
17210,0.032104,-0.014771,1.158936,-0.610352,-9.887695,-39.184570
17221,0.049438,-0.041382,1.166138,-2.258301,-8.178711,-32.775879
17231,0.061646,0.177368,0.990601,-3.112793,-8.666992,-30.395508
17240,-0.041626,0.221436,0.967529,-2.868652,-9.033203,-28.686523
17250,-0.116699,0.196777,1.049683,-2.319336,-8.789063,-26.977539
17259,-0.052856,0.069214,1.068848,-1.831055,-8.056641,-25.268555
17270,-0.094971,0.048218,0.994751,-2.075195,-6.591797,-23.559570
17279,-0.105347,0.187622,0.990479,-2.868652,-7.202148,-22.521973
17289,-0.130981,0.191895,0.975586,-2.563477,-6.591797,-20.935059
17302,-0.073730,0.020874,1.065552,-1.464844,-3.540039,-16.967773
17311,-0.092163,-0.013916,1.072021,-1.464844,-3.845215,-15.625000
17321,-0.065552,-0.075073,1.015991,-1.770020,-4.455566,-15.258789
17330,-0.012939,-0.128174,0.957275,-2.014160,-5.004883,-14.831543
17340,-0.063599,-0.060059,1.007324,-2.624512,-5.126953,-14.587402
17349,0.002197,-0.046265,1.054077,-2.624512,-5.798340,-14.709473
17360,-0.056396,-0.093018,0.986206,-2.136230,-5.065918,-15.075684
17370,-0.056152,-0.110352,0.945923,-2.380371,-5.676270,-17.211914
17379,-0.175049,-0.074707,0.927368,-1.586914,-6.042480,-19.775391
17390,-0.199707,-0.055542,0.905640,-0.732422,-1.342773,-22.094727
17400,-0.248779,-0.094116,0.937744,-0.671387,-4.211426,-24.047852
17410,-0.283203,-0.199829,0.941284,0.488281,-2.624512,-26.367187
17419,-0.223877,-0.252319,0.889893,1.342773,-1.220703,-28.564453
17430,-0.228516,-0.228271,0.951660,1.037598,-0.915527,-30.517578
17439,-0.219482,-0.299194,0.929565,0.915527,-1.037598,-34.790039
17451,-0.036133,-0.373535,1.025757,2.441406,-0.305176,-36.376953
17461,0.064697,-0.435425,1.030273,2.319336,0.427246,-36.987305
17470,0.154175,-0.383545,1.004150,1.220703,1.098633,-36.376953
17480,0.077881,-0.218506,0.959717,0.000000,0.000000,-34.912109
17490,0.053711,-0.005981,0.988525,-0.244141,-0.488281,-33.508301
17500,0.020752,-0.104980,0.874756,1.220703,0.366211,-31.921387
17511,0.092651,-0.388428,0.939331,2.136230,-0.671387,-27.954102
17521,0.192749,-0.548828,0.986694,2.746582,-0.366211,-24.963379
17530,0.118530,-0.502319,1.178223,1.342773,-0.488281,-22.094727
17540,0.042969,-0.402954,1.186157,0.427246,-0.671387,-19.531250
17550,0.128418,-0.366211,1.005737,0.610352,-0.305176,-17.517090
17560,0.084961,-0.338135,0.890503,1.403809,0.305176,-16.052246
17571,0.056274,-0.402344,0.844116,1.586914,-1.892090,-15.930176
17581,-0.064697,-0.271606,0.932495,0.854492,-1.586914,-16.174316
17591,-0.031860,-0.145264,1.037354,0.244141,-3.417969,-16.113281
17600,0.045288,-0.152222,1.015503,1.281738,0.793457,-14.282227
17610,0.061401,-0.197754,0.961060,1.403809,0.610352,-11.413574
17620,0.053467,-0.197021,0.927612,1.708984,1.892090,-9.216309
17630,0.040039,-0.152222,0.994751,1.342773,1.342773,-7.629395
17639,-0.010864,-0.060303,1.067017,0.854492,0.976562,-6.774902
17652,-0.132812,-0.014282,1.062134,1.647949,-0.427246,-6.713867
17661,-0.186035,-0.026489,1.060059,2.563477,-0.427246,-6.347656
17671,-0.168579,-0.056885,1.080688,2.868652,0.366211,-4.638672
17680,-0.111206,0.009277,1.023682,2.258301,0.244141,-1.220703
17690,-0.085327,0.186768,1.078247,1.586914,1.159668,4.211426
17700,-0.080811,0.216187,0.958618,0.976562,2.197266,11.291504
17710,-0.141968,0.216431,0.945312,0.854492,4.089355,18.920898
17721,-0.227905,0.226807,0.995483,0.732422,7.812500,32.226562
17731,-0.227295,0.170166,1.036987,1.159668,9.582520,36.560059
17740,-0.221924,0.124634,1.028687,0.854492,9.887695,39.184570
17749,-0.194946,0.173584,0.976318,0.366211,10.314941,40.771484
17760,-0.163574,0.172729,0.951904,-0.183105,9.765625,42.419434
17769,-0.130371,0.087036,0.933716,-0.610352,9.765625,43.395996
17780,-0.107178,0.056885,0.989136,-1.220703,9.216309,44.128418
17789,-0.058716,0.027954,0.970581,-1.403809,9.643555,46.203613
17801,-0.074951,-0.107910,1.028442,-1.342773,9.521484,46.997070
17810,-0.049561,-0.128296,1.043213,-1.403809,9.521484,46.997070
17820,-0.087036,-0.133667,0.983398,-1.159668,9.643555,46.081543
17829,-0.077881,-0.204346,0.975464,-0.549316,9.460449,44.250488
17840,-0.073486,-0.324829,0.989502,-0.549316,8.911133,41.992187
17850,-0.035645,-0.377441,0.957031,-0.610352,7.995605,39.123535
17861,0.024414,-0.333618,0.957886,-1.220703,5.798340,34.301758
17871,0.086060,-0.384521,1.014526,-1.342773,4.943848,32.897949
17880,0.077026,-0.406372,1.012085,-1.098633,4.394531,31.921387
17889,0.117310,-0.341187,1.050537,-1.403809,4.333496,31.250000
17900,0.152954,-0.349976,1.021240,-1.281738,3.662109,31.311035
17910,0.125854,-0.369629,1.014648,-0.732422,3.479004,31.738281
17919,0.137939,-0.357544,0.993042,-0.610352,2.624512,32.409668
17932,0.077637,-0.404663,0.916992,-0.610352,1.098633,33.386230
17941,0.015259,-0.400024,0.941650,-0.671387,0.427246,33.752441
17951,-0.062134,-0.386230,0.936523,-0.976562,0.732422,33.691406
17960,-0.093140,-0.360840,0.990112,-1.403809,-0.061035,32.592773
17970,-0.098145,-0.398926,0.960449,-1.098633,0.000000,30.578613
17980,-0.116699,-0.306396,1.030396,-1.525879,-0.671387,28.320312
17990,-0.109497,-0.297485,0.988647,-1.281738,-0.549316,21.057129
18000,-0.094849,-0.368896,0.956177,-1.037598,-1.892090,16.296387
18010,-0.062988,-0.373291,0.960205,-1.037598,-3.540039,11.230469
18019,-0.064697,-0.391357,0.937744,-0.854492,-3.967285,6.286621
18030,-0.094360,-0.387573,0.915161,-1.159668,-4.577637,1.831055
18040,-0.092651,-0.353027,0.922607,-1.220703,-4.089355,-1.586914
18049,-0.125610,-0.365112,0.905151,-1.647949,-3.356934,-3.967285
18059,-0.109497,-0.387695,0.937988,-1.831055,-2.807617,-6.347656
18071,-0.030640,-0.369141,0.991089,-2.136230,-2.441406,-11.047363
18080,-0.036499,-0.340454,1.025635,-2.197266,-2.807617,-13.427734
18090,-0.006836,-0.422852,1.011475,-1.953125,-2.502441,-15.258789
18099,0.004883,-0.396851,0.979614,-1.647949,-2.502441,-16.418457
18110,-0.011963,-0.353271,0.975708,-1.770020,-2.624512,-16.601562
18120,0.010376,-0.374878,0.973389,-1.892090,-1.953125,-16.418457
18129,0.056885,-0.435303,0.953857,-1.831055,-1.586914,-15.441895
18141,0.091309,-0.405884,0.965454,-1.831055,-0.976562,-12.268066
18150,0.129272,-0.351440,0.985718,-2.319336,-0.427246,-9.826660
18160,0.144531,-0.353882,1.028931,-2.685547,-0.671387,-7.263184
18170,0.121216,-0.399658,0.957642,-2.929688,-0.610352,-4.211426
18180,0.087769,-0.381714,0.955566,-2.929688,-0.732422,-0.549316
18190,0.044678,-0.403809,0.948120,-3.173828,-0.732422,2.868652
18199,0.019165,-0.431274,0.964722,-3.173828,-0.183105,6.286621
18212,0.009888,-0.395264,0.984131,-3.601074,-0.061035,10.681152
18221,0.003174,-0.381958,0.991211,-3.662109,-0.366211,11.718750
18231,0.025024,-0.401611,1.026367,-3.662109,-0.183105,12.268066
18240,0.020630,-0.401123,0.982178,-3.784180,-0.793457,12.451172
18250,-0.007202,-0.424438,0.975830,-3.417969,-1.220703,12.329102
18259,-0.001587,-0.386963,0.932617,-2.990723,-1.220703,11.718750
18269,-0.042114,-0.406372,0.914062,-2.868652,-1.342773,10.742188
18281,-0.060791,-0.444214,0.945068,-2.624512,-1.831055,6.469727
18290,-0.060547,-0.427612,0.958984,-2.319336,-2.502441,3.540039
18300,-0.090088,-0.420044,0.948853,-2.380371,-3.601074,0.366211
18310,-0.059814,-0.390381,0.946655,-1.953125,-3.540039,-2.441406
18319,-0.056396,-0.387451,0.959229,-1.770020,-3.601074,-4.943848
18329,-0.068359,-0.356689,0.959961,-1.525879,-3.662109,-6.713867
18340,-0.096436,-0.386963,0.999023,-1.525879,-3.906250,-7.690430
18349,-0.106567,-0.332642,0.988159,-1.342773,-2.136230,-7.812500
18361,-0.117432,-0.313354,0.947510,-1.098633,-0.671387,-7.324219
18371,-0.176636,-0.365723,0.895630,-1.281738,-0.366211,-6.958008
18380,-0.174194,-0.281006,0.911743,-1.281738,1.037598,-6.103516
18390,-0.143066,-0.344238,0.951660,-1.586914,2.197266,-4.272461
18399,-0.094849,-0.360718,0.976929,-2.136230,2.990723,-1.770020
18410,-0.058594,-0.290283,1.001587,-2.014160,3.356934,1.220703
18420,-0.026611,-0.325928,0.988770,-1.647949,5.493164,10.192871
18429,-0.060181,-0.312866,0.978027,-1.770020,6.958008,15.625000
18440,-0.068481,-0.358398,0.986938,-1.464844,8.178711,20.935059
18449,-0.112427,-0.316406,0.927612,-1.586914,8.911133,25.573730
18460,-0.143066,-0.281860,0.912109,-1.831055,10.375977,29.968262
18469,-0.165527,-0.140991,0.971924,-2.197266,11.413574,34.545898
18480,-0.178589,-0.203491,0.945679,-1.831055,13.000488,38.330078
18489,-0.199463,-0.295166,0.936646,-1.403809,12.390137,42.846680
18501,-0.199951,-0.215820,0.844116,-1.708984,11.657715,45.532227
18510,-0.158813,-0.635498,0.216064,-2.014160,10.681152,48.278809
18520,-0.268433,-0.877441,0.121460,-4.150391,11.657715,51.147461
18530,-0.212891,-0.337402,0.885742,-11.047363,13.000488,55.297852
18539,-0.312866,0.042358,0.620239,-16.967773,12.756348,59.326172
18550,-0.318115,0.407715,0.731689,-19.653320,11.779785,61.340332
18559,-0.308960,0.484009,1.303467,-10.681152,9.643555,62.927246
18569,-0.178467,0.142334,1.677246,-7.324219,7.019043,59.753418
18580,-0.058228,0.021362,1.630127,-6.164551,4.943848,56.579590
18589,-0.097900,0.246094,1.547241,-4.516602,2.136230,54.199219
18600,-0.123169,0.284302,1.332397,-1.159668,2.319336,52.734375
18609,-0.101685,-0.094604,0.937988,1.586914,5.310059,53.344727
18620,-0.128662,-0.180908,1.025757,0.732422,7.873535,54.565430
18629,-0.216187,-0.111328,1.071899,-2.258301,7.385254,48.645020
18641,-0.296631,0.181519,0.968506,-1.953125,6.225586,43.273926
18650,-0.294067,0.141113,0.895142,-1.159668,4.028320,35.949707
18660,-0.260010,0.046387,1.023682,-0.244141,1.586914,27.709961
18669,-0.179077,-0.074707,1.177490,-0.366211,0.732422,19.775391
18680,-0.125488,-0.029785,1.183838,-1.770020,-0.061035,13.427734
18689,-0.115845,0.099731,1.190308,-2.563477,-0.061035,9.277344
18699,-0.089233,0.273560,1.135986,-2.624512,2.563477,7.568359
18710,-0.053467,-0.016846,0.954712,-0.732422,4.516602,7.629395
18720,-0.089355,0.023071,0.958130,-0.976562,4.638672,6.896973
18729,-0.145630,0.075073,0.969482,-1.708984,3.967285,5.554199
18740,-0.135986,0.059814,0.929321,-1.892090,3.723145,3.234863
18749,-0.037964,0.061157,0.943237,-2.136230,3.234863,-0.061035
18759,0.098999,0.046631,0.971313,-2.197266,1.708984,-3.662109
18772,0.263428,-0.035889,1.077271,-2.990723,-1.159668,-8.544922
18781,0.307983,0.057495,1.112427,-3.479004,-1.953125,-9.521484
18791,0.332153,0.042603,1.050171,-3.417969,-1.953125,-9.094238
18800,0.332275,0.019531,0.986328,-2.441406,-1.159668,-7.995605
18809,0.322021,-0.022095,0.978516,-1.831055,-0.976562,-6.713867
18820,0.290894,-0.150879,0.931641,-1.586914,-1.098633,-5.249023
18829,0.211426,-0.169922,0.894775,-1.647949,-1.220703,-4.089355
18839,0.116821,-0.159668,0.911377,-2.136230,-0.793457,-3.112793
18851,0.050537,-0.274292,0.913452,-2.258301,-0.854492,-4.272461
18860,0.064941,-0.282593,0.947144,-2.319336,-1.159668,-6.225586
18870,0.078125,-0.372681,0.969360,-2.563477,-3.295898,-8.422852
18880,0.082031,-0.374268,0.999268,-2.624512,-4.638672,-11.535645
18889,0.076050,-0.466431,0.988647,-2.685547,-6.225586,-14.526367
18899,0.054321,-0.458008,0.953979,-2.746582,-5.065918,-17.517090
18909,0.022583,-0.370728,0.973389,-2.746582,-5.737305,-23.620605
18921,-0.083984,-0.403320,0.928955,-2.502441,-4.699707,-25.756836
18931,-0.120728,-0.449829,0.952148,-2.502441,-3.662109,-27.770996
18940,-0.126343,-0.365967,0.930542,-3.051758,-2.929688,-29.235840
18950,-0.124023,-0.344360,0.897827,-3.295898,-1.892090,-30.639648
18960,-0.086670,-0.351807,0.935181,-3.173828,-0.366211,-31.982422
18970,-0.089600,-0.322388,0.968872,-3.356934,0.427246,-32.775879
18979,-0.113770,-0.380371,0.979614,-3.479004,1.953125,-33.874512
18991,-0.126465,-0.309814,0.917725,-3.356934,3.845215,-33.203125
19000,-0.062988,-0.343506,0.935425,-3.601074,5.004883,-31.860352
19010,0.009521,-0.313721,0.930908,-3.051758,7.080078,-29.846191
19019,0.032104,-0.388428,0.928833,-2.807617,8.972168,-27.221680
19030,0.024414,-0.440186,0.953247,-2.746582,9.521484,-24.536133
19039,0.074097,-0.342651,0.993286,-2.441406,10.620117,-21.484375
19049,0.056152,-0.384399,0.944702,-2.197266,13.366699,-12.878418
19060,0.132568,-0.395630,0.938477,-0.915527,14.526367,-8.361816
19070,0.147705,-0.494995,0.938843,-0.732422,15.380859,-3.601074
19080,0.136475,-0.528931,0.922729,-0.976562,16.174316,1.159668
19089,0.152222,-0.541870,0.919434,-1.281738,15.136719,5.615234
19100,0.225586,-0.618042,0.949951,-2.197266,14.587402,9.765625
19110,0.269043,-0.630737,1.035522,-2.502441,15.686035,12.756348
19119,0.334961,-0.570435,1.096191,-3.662109,10.253906,17.395020
19131,0.343750,-0.458618,1.043701,-3.234863,8.789063,19.042969
