timestamp,accX,accY,accZ,gyrX,gyrY,gyrZ
10,0.057495,0.051147,1.121582,-1.647949,-6.103516,15.991211
20,-0.051270,0.053955,1.105225,-0.732422,-5.554199,14.770508
31,-0.020874,0.009277,1.054565,-0.122070,-5.920410,12.878418
40,-0.019775,-0.152954,0.919556,0.915527,-6.652832,11.291504
51,-0.057495,-0.059570,0.991699,1.281738,-7.141113,10.131836
60,-0.008057,-0.059326,0.996338,1.464844,-6.713867,11.108398
70,-0.015869,-0.208984,0.876221,1.281738,-5.798340,12.817383
82,-0.007568,-0.214355,0.910645,0.915527,-4.272461,17.028809
91,0.040771,-0.257446,0.803589,0.488281,-4.272461,18.615723
101,0.086914,-0.148682,0.873291,-0.366211,-4.760742,19.531250
110,0.020264,-0.161743,0.795044,-0.488281,-5.493164,19.958496
120,0.071655,-0.207886,0.867920,-0.976562,-5.615234,21.301270
131,0.088501,-0.144043,0.911621,-1.586914,-5.493164,22.521973
140,0.065430,-0.099976,1.010254,-1.770020,-5.920410,22.705078
152,0.032104,-0.125366,1.154053,-1.525879,-6.958008,19.897461
161,0.075317,-0.178467,1.099609,0.000000,-7.568359,16.784668
171,0.068359,-0.103516,1.064575,0.305176,-9.033203,12.573242
180,0.006592,-0.038818,1.059326,0.427246,-10.192871,8.972168
190,0.001953,-0.187866,1.000732,0.488281,-10.803223,5.920410
200,0.039063,-0.059448,0.973145,0.183105,-10.559082,3.967285
212,0.007813,0.107056,1.083252,0.488281,-10.192871,2.685547
221,0.015137,-0.237915,0.968994,1.037598,-9.460449,2.502441
232,0.073608,-0.100342,0.987183,1.403809,-9.338379,2.380371
241,0.023926,-0.168457,0.917236,1.281738,-9.887695,2.502441
250,-0.041138,-0.351318,0.923218,0.915527,-9.765625,3.295898
260,-0.061401,-0.039917,1.037598,0.427246,-8.850098,4.699707
270,-0.104004,-0.055176,1.146484,0.427246,-7.629395,6.591797
280,-0.121094,-0.334106,0.956665,0.427246,-7.019043,7.751465
292,0.029297,-0.054565,0.985107,-15.502930,-6.958008,8.483887
302,-0.015625,-0.155762,1.006958,-0.976562,-7.141113,9.216309
311,-0.040649,-0.166870,1.001953,-1.037598,-6.408691,10.192871
321,0.011230,-0.150757,1.073730,-1.098633,-5.554199,10.742188
331,0.017822,-0.234131,0.938721,-1.220703,-5.615234,10.314941
340,-0.029419,-0.176514,0.879883,-1.770020,-6.530762,8.361816
352,-0.008301,0.112671,1.046753,-2.319336,-6.896973,4.943848
361,-0.051025,-0.174316,0.848389,-2.624512,-6.652832,2.990723
371,-0.065552,0.066162,0.965698,-2.990723,-6.713867,1.098633
380,-0.040527,0.153809,1.114868,-3.112793,-6.713867,-0.427246
391,-0.053101,-0.004761,1.063721,-3.051758,-6.225586,-2.197266
401,-0.042358,0.071045,1.095337,-2.258301,-5.676270,-4.455566
410,-0.018555,0.164429,1.139282,-0.671387,-5.371094,-6.958008
420,0.024536,-0.101929,1.005615,0.854492,-5.615234,-10.131836
432,0.120361,0.006348,0.921265,1.220703,-6.591797,-15.441895
441,0.242310,-0.209351,0.811768,1.281738,-7.141113,-16.296387
451,0.042603,-0.206177,0.879883,0.854492,-7.202148,-16.784668
460,0.107300,-0.133789,0.987793,0.244141,-5.371094,-14.709473
470,0.094238,-0.148437,0.986450,-0.061035,-3.906250,-13.854980
481,0.026123,-0.221680,0.950562,-0.244141,-3.845215,-13.305664
490,0.035645,-0.139404,1.014526,-0.488281,-3.845215,-14.160156
500,0.041016,-0.170776,0.953857,-1.281738,-3.906250,-15.808105
510,-0.001587,0.038452,1.106079,-1.403809,-3.173828,-17.272949
521,-0.057007,-0.247070,0.859497,-1.281738,-2.136230,-17.333984
530,0.051514,-0.294556,0.746948,-1.831055,-1.220703,-16.967773
540,0.093872,-0.119141,0.785156,-2.746582,-0.854492,-16.052246
550,0.041992,-0.070557,0.806152,-4.272461,-0.671387,-13.610840
560,-0.032959,0.161377,0.980103,-5.493164,0.366211,-10.620117
570,-0.032837,0.190674,1.167114,-4.150391,4.516602,-4.333496
582,-0.011963,-0.151733,0.968018,-3.540039,5.004883,-2.868652
591,0.005981,-0.061035,0.996094,-3.784180,4.211426,-1.953125
601,-0.053223,-0.022827,0.939941,-4.333496,3.662109,-0.793457
611,-0.037598,0.072632,1.040649,-4.150391,4.577637,1.281738
620,-0.083984,0.043335,1.088867,-3.601074,5.981445,4.211426
632,-0.090576,-0.188354,0.959351,-3.662109,8.117676,9.399414
641,-0.045288,0.084839,1.123779,-3.479004,8.239746,10.925293
651,-0.038086,-0.091675,1.113770,-2.685547,8.300781,11.840820
660,-0.054565,-0.228149,0.962036,-1.586914,8.544922,12.512207
670,0.001099,-0.107666,1.028198,-1.098633,8.483887,13.366699
680,-0.044312,-0.153442,1.046265,-0.915527,8.666992,14.343262
690,-0.090088,-0.327637,0.866943,-1.403809,8.544922,15.014648
702,-0.094604,-0.205933,0.912598,-2.075195,8.972168,16.174316
711,-0.061890,-0.368164,0.860107,-2.441406,8.972168,16.845703
721,-0.033691,-0.308594,0.867065,-3.417969,8.911133,16.540527
731,0.027344,-0.016724,1.029053,-4.272461,8.483887,15.563965
740,0.038330,-0.083862,1.089722,-4.272461,8.178711,14.526367
750,0.059082,-0.189575,1.046875,-3.723145,7.507324,12.268066
761,0.075439,-0.057983,1.009644,-3.173828,6.958008,9.704590
770,0.096313,-0.098877,0.990356,-2.624512,5.920410,7.385254
781,0.119507,-0.083862,0.982788,-2.868652,5.249023,5.554199
791,0.157104,-0.054443,0.978027,-2.746582,4.333496,4.150391
800,0.125244,-0.301392,0.895508,-2.380371,4.150391,4.760742
810,0.105713,-0.189331,0.850952,-2.929688,3.845215,5.187988
821,0.084229,0.062256,1.014526,-3.479004,3.479004,5.493164
830,0.103271,-0.011353,1.003052,-3.479004,3.295898,6.530762
842,0.052734,-0.186523,1.001343,-1.708984,3.601074,7.507324
851,0.082275,0.026367,0.957520,-0.488281,3.356934,7.812500
861,0.127319,-0.292969,0.928223,-0.122070,2.502441,7.812500
870,0.098755,-0.325684,0.923218,-0.915527,2.075195,8.544922
880,0.062866,-0.030029,1.069580,-1.525879,2.197266,9.521484
891,0.026978,0.132202,1.163696,-1.037598,2.746582,10.375977
901,-0.006226,-0.050781,1.089966,-0.244141,2.685547,10.559082
910,0.001343,-0.308594,1.047607,0.427246,2.441406,9.643555
922,0.038208,-0.010498,1.025513,-0.183105,0.854492,6.469727
931,0.027222,0.009644,1.017212,0.183105,0.976562,6.103516
940,0.037109,-0.215942,0.838135,0.244141,1.281738,7.019043
950,0.041504,-0.281372,0.692383,-0.488281,1.525879,8.117676
960,0.030151,0.001221,0.894409,-2.563477,1.647949,9.155273
974,0.001465,-0.112427,1.029419,-4.638672,1.037598,13.366699
984,-0.035889,-0.065552,0.938110,-4.516602,2.258301,14.770508
994,-0.074463,0.128174,1.096191,-3.540039,2.868652,16.052246
1004,-0.058594,0.102295,1.209595,-2.990723,2.929688,16.479492
1013,-0.040894,-0.056152,1.162598,-2.258301,2.929688,17.272949
1023,-0.005615,-0.180664,1.017700,-1.342773,3.051758,18.127441
1032,0.017456,-0.060791,0.938232,-0.488281,3.356934,19.897461
1042,0.021851,0.066650,0.964111,-0.305176,2.807617,21.362305
1051,0.037231,-0.057251,0.995850,-0.366211,2.319336,23.376465
1060,0.007080,-0.269043,0.867920,-0.976562,2.319336,23.986816
1071,-0.000244,0.119995,1.051636,-1.098633,1.770020,24.414062
1080,-0.021851,0.041626,1.041382,-0.671387,1.403809,24.841309
1091,0.012695,-0.117920,1.067505,0.061035,1.647949,25.695801
1100,-0.017456,-0.109985,1.091797,0.427246,1.647949,26.550293
1111,-0.026855,-0.070923,1.055786,0.671387,0.976562,26.794434
1120,-0.051758,-0.017822,1.081299,0.976562,0.793457,27.526855
1132,-0.003296,-0.130859,1.076904,2.014160,0.793457,27.526855
1142,-0.002197,-0.207520,0.963135,2.441406,0.183105,26.855469
1151,-0.003540,-0.194214,0.945190,2.746582,-0.671387,26.000977
1161,0.019043,-0.073120,0.997437,2.258301,-1.220703,24.902344
1170,0.070312,-0.099609,1.041382,2.014160,-2.136230,23.437500
1181,0.052612,-0.151245,1.019165,1.525879,-3.234863,21.911621
1190,0.097778,-0.154175,1.047363,1.892090,-3.845215,21.362305
1202,0.075928,-0.030518,1.082642,1.770020,-5.065918,22.460937
1211,0.077026,-0.074341,1.086182,1.586914,-5.065918,23.620605
1221,0.056152,-0.188232,0.958252,1.892090,-5.249023,24.780273
1230,0.052856,-0.178833,0.884888,2.075195,-5.554199,24.780273
1241,0.014771,-0.071167,0.982910,2.136230,-6.103516,23.803711
1250,0.036865,-0.077026,1.026611,2.441406,-6.896973,22.338867
1263,0.006592,-0.254272,0.993652,3.784180,-8.789063,19.226074
1273,-0.006226,-0.183594,1.017578,4.211426,-9.338379,17.883301
1282,0.003540,-0.164062,1.030518,4.333496,-9.521484,17.578125
1292,-0.000854,-0.135132,0.956177,3.906250,-9.643555,17.333984
1302,-0.041870,-0.204224,0.938110,3.295898,-9.887695,16.601562
1312,-0.003662,-0.268555,0.939697,2.136230,-10.192871,15.380859
1321,-0.009888,-0.223755,0.890503,1.220703,-10.437012,14.099121
1331,0.005005,-0.085815,0.908203,0.671387,-10.681152,10.314941
1340,-0.003784,-0.129150,0.946411,0.488281,-11.596680,7.568359
1351,0.008423,-0.240112,0.906128,0.061035,-12.023926,5.065918
1361,0.003784,-0.046509,1.063232,-0.183105,-12.512207,2.502441
1371,0.033691,0.113647,1.214600,-0.305176,-12.329102,0.183105
1381,0.078979,0.074585,1.227417,-0.061035,-12.268066,-1.281738
1391,0.084473,-0.087891,1.107056,0.610352,-12.512207,-2.929688
1403,0.077759,-0.278687,1.021973,0.854492,-12.695313,-6.652832
1413,0.100342,-0.198730,0.975098,-0.061035,-13.305664,-8.666992
1422,0.118286,-0.094116,0.993774,-0.549316,-13.610840,-10.559082
1432,0.097290,-0.030518,0.994629,-0.549316,-13.671875,-11.962891
1442,0.057861,-0.103149,0.952393,-0.549316,-13.366699,-13.122559
1451,0.049438,-0.141846,0.919189,-0.732422,-12.756348,-13.488770
1461,0.045044,-0.104126,1.001343,-1.220703,-11.840820,-13.854980
1470,0.087646,-0.051270,1.060059,-1.708984,-11.535645,-14.709473
1482,0.137573,-0.055664,1.043701,-2.441406,-12.023926,-18.371582
1492,0.112427,-0.186890,0.965210,-2.380371,-12.268066,-19.775391
1501,0.129883,-0.133057,0.929077,-2.441406,-12.084961,-21.362305
1511,0.109985,0.039307,0.992676,-2.624512,-11.779785,-22.155762
1521,0.137085,0.040161,0.995728,-2.380371,-11.657715,-22.827148
1530,0.117920,-0.136353,0.937744,-1.953125,-11.230469,-23.437500
1543,0.111816,-0.120850,0.886597,-1.464844,-10.253906,-23.193359
1553,0.037964,-0.171143,0.972412,-1.159668,-10.009766,-23.132324
1563,-0.013672,-0.113892,0.946777,-1.525879,-9.094238,-23.132324
1573,-0.029785,-0.112671,0.947021,-1.770020,-7.690430,-22.949219
1583,-0.103149,-0.168335,0.922485,-1.220703,-6.225586,-22.338867
1592,-0.147339,-0.042480,0.918945,-1.098633,-5.126953,-22.155762
1602,-0.184937,0.019409,0.989380,-0.671387,-2.441406,-21.667480
1612,-0.153687,0.036743,1.016724,-0.244141,-0.488281,-20.568848
1622,-0.130859,-0.095581,0.919922,0.061035,1.098633,-18.859863
1631,-0.089355,-0.090088,0.878906,0.366211,2.441406,-16.784668
1640,-0.018188,-0.026001,0.932495,0.427246,3.662109,-13.854980
1651,0.004517,-0.063599,0.955688,-0.244141,5.065918,-11.047363
1661,0.053467,-0.152344,0.974243,-1.098633,6.042480,-8.666992
1671,0.056519,-0.214966,0.990601,-1.708984,6.286621,-6.591797
1681,-0.003296,-0.196899,1.035278,-2.380371,6.713867,-2.624512
1690,-0.018066,-0.061768,1.018921,-2.685547,7.873535,-0.549316
1701,-0.010498,-0.135864,1.018188,-2.441406,8.056641,0.549316
1711,-0.049316,-0.164429,0.989136,-2.197266,8.422852,1.342773
1720,-0.050659,-0.099365,0.932129,-2.319336,8.972168,2.197266
1731,0.059937,-0.098877,0.876465,-2.380371,9.155273,2.929688
1741,-0.020264,-0.183594,0.932617,-2.624512,9.155273,3.723145
1753,-0.052612,-0.151611,0.949951,-4.272461,9.155273,5.676270
1763,-0.004761,-0.012817,1.016724,-4.150391,9.704590,7.446289
1773,-0.020630,-0.040405,1.036133,-3.234863,10.131836,9.338379
1782,-0.021484,-0.074951,1.013184,-2.746582,10.803223,10.620117
1792,-0.007813,-0.132324,1.020386,-2.685547,11.047363,11.535645
1802,-0.012573,-0.235962,1.073242,-2.868652,10.864258,11.596680
1812,-0.071411,-0.265869,0.988403,-2.380371,10.314941,11.169434
1821,-0.031616,-0.246826,0.946045,-2.014160,9.338379,10.253906
1831,-0.041260,-0.155518,1.082153,-1.953125,8.911133,10.498047
1841,0.009277,-0.118652,1.027832,-1.708984,9.094238,10.986328
1851,0.019531,-0.108765,0.984253,-1.403809,9.460449,12.512207
1861,-0.005371,-0.150269,0.984985,-1.403809,9.948730,14.160156
1871,-0.007080,-0.072510,0.950195,-1.953125,10.070801,15.258789
1881,0.033936,-0.047485,0.973755,-1.831055,10.009766,15.686035
1893,0.040771,0.075195,1.018066,-2.380371,8.728027,15.563965
1903,0.024536,0.056030,0.988037,-2.380371,8.361816,15.991211
1912,0.008179,-0.101807,0.987183,-2.441406,7.995605,16.052246
1922,0.031860,-0.119263,1.024536,-2.380371,7.995605,16.418457
1931,0.040161,-0.046753,1.056885,-2.258301,7.141113,16.235352
1941,0.017212,-0.072632,1.073120,-1.708984,6.713867,16.662598
1951,0.005737,-0.031982,1.069092,-1.037598,6.530762,17.456055
1961,-0.020874,0.056519,1.069214,-0.549316,6.774902,18.615723
1972,-0.081909,0.000977,0.989136,0.427246,6.835937,19.165039
1982,-0.030151,-0.031250,1.022827,0.549316,7.507324,20.141602
1991,-0.016846,-0.121094,0.964966,0.488281,7.385254,20.874023
2001,0.013550,-0.144897,0.973999,0.549316,6.591797,21.423340
2011,-0.004517,-0.167358,0.992310,0.854492,6.225586,22.460937
2021,0.003174,-0.047729,0.949463,1.037598,5.920410,23.925781
2031,0.018677,-0.054687,0.941650,2.014160,5.371094,26.855469
2042,0.056274,-0.149780,0.987671,1.464844,4.760742,28.076172
2051,0.050659,-0.126343,1.040283,0.793457,4.089355,29.357910
2061,0.052490,-0.095337,1.021118,0.976562,3.234863,30.395508
2071,0.055786,-0.099243,1.050049,0.976562,2.441406,31.005859
2081,-0.002075,-0.066162,1.023071,1.037598,1.708984,31.677246
2091,0.009155,-0.046143,1.037598,0.854492,1.098633,31.616211
2101,0.004761,0.017334,1.079956,0.793457,0.671387,31.555176
2112,0.056885,-0.088013,0.949341,1.403809,-1.159668,30.700684
2121,0.055786,-0.196411,0.940430,1.281738,-2.502441,29.357910
2131,0.047974,-0.194336,0.950562,0.427246,-3.356934,27.465820
2141,0.039551,-0.161499,0.995361,-0.305176,-4.394531,25.512695
2151,0.042725,-0.160767,1.052368,-0.610352,-5.554199,23.010254
2161,0.065308,-0.113403,1.091431,-0.488281,-6.774902,19.592285
2171,0.044678,-0.150146,1.106567,0.488281,-8.483887,14.160156
2181,0.025879,-0.158936,1.123169,0.976562,-8.850098,12.390137
2191,-0.007446,-0.168091,1.096069,1.098633,-8.972168,10.864258
2201,-0.049805,-0.197021,1.010986,1.770020,-9.277344,9.521484
2211,0.020020,-0.291016,0.975952,2.380371,-9.155273,7.873535
2221,0.080322,-0.281860,0.956421,2.624512,-9.582520,5.920410
2231,0.086670,-0.262939,0.950073,2.380371,-10.681152,3.601074
2243,0.085205,-0.293945,0.889526,1.464844,-11.291504,-0.305176
2253,0.062744,-0.273560,0.858765,0.610352,-11.108398,-1.831055
2262,0.036377,-0.198975,0.837402,-0.427246,-11.535645,-3.906250
2272,0.016846,-0.140747,0.948608,-1.403809,-11.474609,-5.554199
2281,0.065552,-0.047729,0.975830,-2.014160,-10.986328,-5.737305
2291,-0.015137,-0.060669,0.952881,-1.831055,-10.803223,-6.042480
2301,-0.017456,-0.012573,0.945679,-1.403809,-9.826660,-5.249023
2313,-0.029907,0.049438,1.032959,-1.647949,-8.178711,-2.502441
2323,-0.077759,0.090698,1.093506,-1.770020,-7.995605,-1.708984
2333,-0.074341,0.034302,1.073364,-1.220703,-7.263184,-0.610352
2343,-0.033813,0.063965,1.004639,-0.793457,-6.652832,-0.183105
2352,-0.079590,0.023437,1.024536,-0.610352,-6.591797,0.122070
2362,-0.114990,0.016602,1.099243,-0.732422,-6.408691,0.183105
2371,-0.166748,0.044922,1.026367,-0.976562,-5.493164,0.549316
2381,-0.184814,-0.033203,0.924316,-0.671387,-3.295898,0.915527
2392,-0.086792,-0.164429,0.951416,-0.366211,-2.624512,1.281738
2402,-0.075439,-0.184082,0.887207,-0.305176,-2.136230,1.708984
2411,-0.052734,-0.192627,0.936401,-0.305176,-1.464844,2.136230
2421,-0.051270,-0.205444,0.960693,-0.427246,-1.159668,1.586914
2431,-0.005981,-0.170288,0.954956,-0.915527,-1.342773,0.061035
2441,0.018555,-0.157349,0.955078,-1.342773,-1.586914,-1.525879
2451,0.102173,-0.164673,0.997314,-1.831055,-2.197266,-4.760742
2461,0.068604,-0.186401,1.026733,-3.173828,-2.807617,-6.042480
2471,0.164795,-0.121704,1.032959,-3.601074,-2.685547,-6.042480
2481,0.131836,-0.102661,1.071533,-3.356934,-3.173828,-5.981445
2491,0.078491,-0.054443,1.058960,-2.685547,-3.356934,-5.187988
2501,0.044556,-0.050537,1.093628,-1.831055,-2.746582,-3.845215
2511,0.023560,-0.105469,1.108765,-0.915527,-1.953125,-2.807617
2521,0.025635,-0.108643,1.014893,1.037598,-1.220703,-1.342773
2531,-0.045898,-0.231689,0.754150,1.342773,-1.220703,-1.647949
2541,0.024048,-0.132202,0.749390,0.427246,-1.403809,-2.197266
2551,0.022339,-0.185913,0.818970,-0.366211,-1.586914,-3.479004
2561,0.012817,-0.050781,0.894165,-1.525879,-1.647949,-5.371094
2571,-0.020142,-0.029053,1.045288,-1.647949,-1.586914,-6.652832
2581,-0.054077,-0.057739,1.028931,-1.159668,-0.854492,-7.507324
2591,-0.026367,-0.276489,0.977051,-1.586914,0.366211,-7.995605
2601,0.034302,-0.177124,1.089111,-2.563477,0.671387,-7.202148
2611,0.089722,0.062988,1.118530,-2.807617,1.464844,-6.042480
2621,0.030640,-0.101929,1.056519,-1.831055,2.258301,-3.784180
2631,0.028198,-0.170898,0.910767,-1.770020,2.380371,-2.563477
2641,0.038208,-0.186646,0.915771,-2.014160,2.685547,-1.770020
2651,0.088867,-0.108521,0.991577,-2.624512,2.197266,-1.464844
2661,0.098389,0.054077,1.010498,-2.868652,1.953125,-1.403809
2672,0.212524,-0.234497,0.920776,-1.342773,1.403809,-1.647949
2682,0.136230,-0.206543,0.976929,-1.586914,0.366211,-1.953125
2692,0.140991,-0.059082,1.054932,-1.953125,0.000000,-2.258301
2701,0.075317,-0.075928,1.117065,-1.647949,-0.061035,-2.441406
2711,0.053711,-0.069092,1.062134,-1.037598,0.244141,-2.624512
2721,0.021729,-0.167236,1.072998,-0.488281,0.488281,-2.136230
2732,-0.018188,-0.250366,1.039551,0.244141,0.488281,-1.525879
2742,0.039063,-0.101929,1.003784,-0.671387,0.915527,-0.366211
2752,0.094727,-0.118042,0.990845,-1.464844,1.281738,1.708984
2761,0.078125,-0.183960,0.895996,-1.831055,1.464844,4.028320
2772,0.115234,-0.197998,0.833618,-2.197266,1.708984,6.042480
2781,0.102417,-0.152222,0.855835,-2.990723,1.647949,7.324219
2793,0.092163,-0.124634,0.948608,-5.187988,1.037598,7.080078
2802,0.012695,0.005249,0.935669,-5.065918,0.427246,5.798340
2813,-0.030518,-0.051147,0.958252,-4.577637,0.061035,4.455566
2822,-0.059448,-0.039673,1.034912,-4.455566,0.122070,2.929688
2832,-0.063232,0.069214,1.008423,-4.577637,0.244141,1.525879
2841,-0.077881,0.094238,1.038818,-4.272461,0.427246,0.854492
2851,-0.052734,0.048096,1.046265,-3.845215,0.976562,1.647949
2863,-0.034058,0.034912,0.986938,-2.868652,2.197266,4.150391
2872,-0.067749,-0.007446,1.075195,-2.990723,2.441406,5.920410
2882,-0.048706,-0.029785,1.077515,-2.868652,3.173828,8.178711
2892,-0.048096,0.019531,1.001587,-2.807617,3.540039,10.070801
2901,-0.074951,-0.014404,1.003540,-2.624512,3.967285,11.779785
2912,-0.073486,0.009155,1.028687,-2.563477,3.906250,13.549805
2921,-0.114014,-0.048462,0.977539,-2.075195,4.089355,15.747070
2931,-0.089600,-0.182373,0.941284,-1.525879,4.394531,17.517090
2943,0.004761,-0.164429,0.977539,-1.525879,5.371094,20.568848
2952,0.036011,-0.094116,1.000977,-1.953125,4.760742,21.545410
2962,0.027588,-0.152710,1.045654,-2.136230,4.211426,22.277832
2971,0.035767,-0.053223,1.063721,-2.441406,4.089355,23.254395
2981,0.060913,0.061890,1.091919,-2.807617,3.417969,23.742676
2992,0.071167,-0.069458,1.150146,-2.319336,2.624512,24.047852
3001,0.086792,-0.055542,1.045166,-2.197266,1.953125,24.414062
3013,0.025391,-0.088867,0.975952,-2.075195,0.366211,24.108887
3022,0.049072,-0.085571,0.973755,-2.319336,-0.732422,22.888184
3032,0.048706,-0.115723,0.953003,-2.197266,-1.708984,20.935059
3041,0.040161,-0.052246,0.915161,-2.319336,-2.929688,18.737793
3052,0.039795,-0.138794,0.973022,-1.647949,-3.723145,17.089844
3062,0.088501,-0.072754,0.975342,-1.098633,-4.455566,15.563965
3071,0.075806,-0.171753,1.006226,-0.366211,-5.065918,14.587402
3083,0.113403,-0.152100,1.026733,0.061035,-6.530762,12.023926
3092,0.064087,-0.093750,0.942017,0.183105,-7.202148,11.291504
3102,0.049683,-0.134521,0.945068,0.122070,-7.995605,9.460449
3111,0.036621,-0.175293,0.989746,-0.122070,-8.605957,7.690430
3121,-0.005493,-0.096191,0.985474,-0.549316,-8.850098,5.493164
3132,-0.062622,-0.222412,0.970093,-0.305176,-9.094238,3.417969
3141,-0.021118,-0.241211,0.921753,-0.305176,-9.094238,2.014160
3153,-0.061890,-0.082886,1.004395,-1.159668,-8.666992,-1.342773
3162,-0.024292,-0.080688,1.064819,-2.136230,-8.483887,-2.441406
3172,-0.034180,-0.129272,0.985107,-1.831055,-8.056641,-3.051758
3182,-0.022949,-0.192749,0.953247,-1.892090,-7.629395,-3.662109
3192,-0.016235,-0.202759,1.050903,-2.258301,-7.324219,-3.906250
3201,0.037720,-0.074463,1.090942,-2.441406,-6.713867,-3.845215
3211,0.034058,-0.143921,1.035278,-2.014160,-6.774902,-4.089355
3223,0.114136,-0.250122,0.952515,-1.220703,-6.774902,-3.845215
3232,0.083496,-0.107910,1.018066,-2.258301,-7.324219,-4.699707
3242,0.020630,-0.052246,0.999023,-2.441406,-7.507324,-4.577637
3251,0.052490,-0.080322,0.998413,-2.929688,-7.263184,-4.577637
3261,0.045166,-0.065796,0.975830,-2.990723,-6.835937,-4.638672
3272,0.009155,0.018799,1.028442,-2.929688,-6.469727,-5.004883
3282,-0.014526,-0.060791,1.048462,-2.258301,-6.408691,-5.249023
3291,-0.020020,-0.123291,0.994385,-1.708984,-6.103516,-6.164551
3302,-0.043945,-0.049927,0.926514,-1.770020,-5.737305,-6.347656
3312,-0.041382,-0.067993,0.861694,-1.647949,-5.615234,-6.774902
3321,-0.009033,-0.073242,0.857056,-1.770020,-5.554199,-7.324219
3331,-0.036255,-0.107056,0.897095,-1.647949,-4.577637,-7.141113
3342,-0.008545,-0.083008,0.966919,-2.380371,-3.906250,-7.324219
3352,-0.068359,-0.025879,1.015259,-2.868652,-3.356934,-7.812500
3363,-0.013672,-0.072754,1.047241,-2.624512,-2.258301,-9.216309
3373,-0.014404,-0.084106,1.050903,-2.075195,-2.075195,-10.009766
3383,-0.015137,-0.041382,1.048462,-1.464844,-1.647949,-10.742188
3392,-0.012329,-0.050659,1.005127,-0.915527,-1.342773,-10.681152
3402,0.032104,-0.163574,0.942139,-0.122070,-0.305176,-9.704590
3412,0.036133,-0.155884,0.919556,-0.061035,-0.244141,-9.033203
3421,-0.003784,-0.117188,0.907349,-0.183105,-0.061035,-8.239746
3433,-0.019653,-0.132080,0.869019,0.183105,1.220703,-6.713867
3442,-0.023804,-0.109009,0.915283,-0.427246,1.892090,-5.920410
3452,-0.053345,-0.075317,1.042969,-0.793457,2.319336,-5.554199
3462,-0.082031,-0.068604,0.986816,-0.732422,3.051758,-4.882812
3471,-0.079834,-0.171265,0.892090,-0.366211,3.723145,-4.516602
3481,-0.080078,-0.225708,0.923828,-0.549316,4.150391,-4.089355
3493,0.004883,-0.099976,0.942383,-1.525879,4.943848,-2.746582
3502,-0.003540,-0.136108,1.003052,-1.647949,5.249023,-1.892090
3512,0.004150,-0.070312,0.947510,-1.892090,5.981445,-0.427246
3521,0.022705,-0.174438,1.001709,-1.892090,6.652832,0.610352
3532,0.031128,-0.111084,1.008667,-2.380371,6.652832,1.159668
3541,0.018799,-0.108765,0.996460,-2.807617,6.530762,1.403809
3551,0.005981,-0.123169,0.931152,-2.990723,6.103516,1.281738
3561,0.048462,-0.142944,0.888916,-3.295898,6.286621,1.831055
3572,0.091553,-0.032104,1.035400,-3.784180,6.286621,2.258301
3582,0.043701,-0.098999,1.158325,-3.540039,5.737305,3.112793
3592,-0.063721,-0.089600,1.132568,-2.624512,5.615234,3.906250
3601,-0.014648,-0.121948,1.117432,-1.770020,6.286621,4.760742
3612,-0.028320,-0.207275,1.090210,-0.732422,6.591797,6.103516
3622,0.015381,-0.207153,1.001953,-0.427246,6.408691,6.469727
3631,0.041626,-0.185181,0.937378,-0.732422,6.408691,7.324219
3643,0.117188,-0.155518,0.916382,-1.220703,5.920410,8.972168
3652,0.066772,-0.106323,0.930298,-2.563477,5.004883,9.399414
3662,0.058472,-0.059204,1.027344,-2.563477,4.455566,9.521484
3671,-0.002197,-0.159546,1.026611,-2.014160,4.516602,9.643555
3682,0.012329,-0.155029,1.016602,-1.953125,4.760742,9.887695
3691,0.051636,-0.049316,1.134521,-2.319336,4.455566,9.826660
3703,0.013306,-0.057739,1.211304,-0.854492,3.845215,9.948730
3712,0.036011,-0.019897,1.096924,-0.366211,3.723145,10.620117
3722,-0.054077,-0.023560,1.141846,0.427246,3.417969,11.169434
3731,-0.088745,-0.023682,1.182007,0.732422,3.234863,11.718750
3741,-0.004395,0.052856,1.103027,1.159668,3.784180,12.145996
3752,0.008057,-0.060425,1.074463,2.075195,4.272461,13.000488
3762,0.007690,-0.127197,1.089478,2.563477,3.784180,13.427734
3771,-0.022217,-0.060791,1.033813,2.563477,3.234863,13.305664
3783,0.010010,-0.118652,0.987915,2.258301,3.356934,14.038086
3793,0.040283,-0.046997,1.025635,1.892090,2.990723,14.465332
3802,0.003418,0.016724,1.064575,1.586914,2.624512,14.587402
3811,-0.015503,-0.102051,0.969727,2.197266,2.441406,14.831543
3822,0.010986,-0.216797,0.902344,2.929688,2.380371,15.075684
3831,0.047485,-0.181885,0.913818,2.868652,2.014160,15.075684
3843,0.036621,-0.219116,0.874268,1.953125,0.183105,14.221191
3852,0.107666,-0.145508,0.901978,1.098633,-0.305176,13.854980
3862,0.142944,-0.065063,0.973145,0.549316,-0.610352,14.099121
3871,0.128052,-0.066895,0.960205,0.244141,-1.037598,14.099121
3882,0.073364,-0.097290,0.912109,-0.061035,-1.525879,13.854980
3891,0.040894,-0.049194,0.982910,-0.732422,-1.831055,13.366699
3902,0.095703,-0.012451,1.045532,-1.403809,-2.441406,12.268066
3912,0.045654,0.026367,1.046509,-1.647949,-3.295898,8.789063
3923,0.007446,-0.127075,1.011719,-0.122070,-4.699707,7.385254
3933,-0.010742,-0.164307,1.023193,-0.305176,-5.126953,6.347656
3942,0.047607,-0.154541,0.892090,-1.037598,-5.493164,4.394531
3952,-0.019775,-0.170776,0.901245,-1.464844,-6.042480,3.601074
3962,0.029785,-0.107178,0.834839,-2.380371,-5.981445,2.868652
3972,0.008423,-0.109741,0.849121,-3.173828,-5.432129,2.502441
3982,-0.020264,-0.146729,0.916382,-3.967285,-5.187988,2.014160
3991,-0.021118,0.040894,1.033203,-5.371094,-4.943848,2.197266
4002,-0.050049,-0.147827,1.054321,-4.699707,-4.394531,1.770020
4012,-0.047119,-0.039063,1.035767,-4.760742,-3.967285,1.403809
4022,-0.051392,-0.109009,1.127808,-4.516602,-4.028320,1.525879
4032,-0.069458,-0.144165,1.144409,-4.028320,-4.028320,1.770020
4042,-0.011841,-0.110352,1.106689,-3.784180,-3.173828,2.563477
4054,0.007690,-0.061890,1.029175,-3.356934,-2.075195,4.333496
4064,-0.005127,-0.157349,1.071533,-2.807617,-2.197266,5.126953
4073,-0.048340,-0.095581,1.037109,-2.807617,-2.319336,5.371094
4083,-0.041382,-0.104248,0.963379,-2.685547,-2.502441,4.882812
4093,0.000488,-0.212769,0.964966,-2.197266,-2.319336,4.882812
4102,0.018677,-0.087646,0.893311,-2.258301,-2.502441,4.516602
4112,0.007813,-0.079346,0.879272,-2.441406,-2.746582,4.272461
4124,0.021362,-0.016113,0.906616,-2.929688,-2.563477,4.577637
4134,0.035278,-0.010620,0.921021,-2.563477,-2.380371,4.577637
4144,0.070557,-0.073364,0.930420,-2.075195,-2.136230,5.004883
4153,0.042969,-0.065430,0.931030,-1.770020,-2.441406,4.516602
4163,0.008789,-0.007080,0.933472,-1.708984,-2.624512,3.906250
4172,0.053223,-0.104614,0.952026,-1.220703,-2.502441,3.479004
4182,0.044800,-0.130005,0.996826,-0.793457,-3.051758,2.258301
4191,0.033813,-0.047852,1.006348,-1.037598,-3.845215,0.427246
4203,-0.015015,-0.178589,0.906128,-0.061035,-3.784180,-2.197266
4213,-0.000610,-0.121460,0.934937,-0.488281,-3.723145,-3.601074
4222,-0.013916,-0.082275,1.032837,-0.854492,-3.845215,-5.187988
4232,0.008789,-0.058716,1.029419,-0.793457,-4.150391,-6.835937
4242,0.020752,-0.088257,0.987305,-0.366211,-3.784180,-7.690430
4251,0.020386,-0.116333,1.018799,-0.122070,-3.112793,-8.117676
4264,0.047974,-0.014160,1.085449,-0.671387,-2.319336,-8.361816
4274,0.092163,-0.045654,1.053955,-0.488281,-2.075195,-7.934570
4283,0.069946,-0.060791,0.979492,-0.183105,-1.647949,-7.690430
4293,0.028931,-0.010986,0.992920,-0.305176,-1.342773,-7.141113
4303,0.011719,-0.016479,1.040649,-0.305176,-1.770020,-7.141113
4313,-0.050293,-0.052490,0.989258,0.000000,-1.525879,-7.080078
4322,-0.030151,-0.090698,0.949341,-0.183105,-0.793457,-7.080078
4332,-0.040405,-0.079102,0.918945,-0.549316,15.319824,-6.713867
4343,-0.089111,-0.036621,0.916870,-1.525879,0.549316,-6.225586
4353,-0.068970,0.070312,0.984009,-2.136230,1.525879,-5.615234
4362,-0.036621,0.109985,0.977417,-2.441406,2.746582,-3.845215
4372,-0.042969,0.011963,1.001343,-1.953125,3.784180,-1.831055
4381,-0.043213,-0.035156,0.983154,-1.708984,4.272461,-0.122070
4392,-0.055054,-0.015381,0.985962,-1.525879,4.882812,1.159668
4404,0.005005,-0.024780,1.071899,-1.098633,6.042480,2.868652
4414,0.008667,-0.004272,1.031372,-1.159668,5.798340,3.479004
4424,-0.018188,-0.111694,1.013306,-0.732422,5.920410,4.394531
4433,-0.029785,-0.074951,0.990723,-0.671387,6.042480,5.310059
4443,0.014526,0.020996,1.038696,-0.488281,6.469727,6.347656
4452,-0.025879,-0.042114,1.060669,0.427246,6.530762,7.507324
4462,0.006958,-0.078979,0.984131,1.098633,6.774902,8.666992
4472,0.060425,-0.158813,0.974976,1.831055,7.019043,10.070801
4483,-0.035034,-0.116577,0.950195,2.197266,5.920410,10.131836
4493,0.050903,-0.180908,0.950195,2.075195,5.432129,10.009766
4502,0.018311,-0.345337,0.942505,2.319336,4.882812,9.826660
4511,0.008667,-0.148682,0.953369,1.525879,4.394531,9.033203
4522,0.065796,-0.101807,1.031738,1.037598,3.967285,8.789063
4532,0.002808,-0.249878,1.037964,1.525879,3.967285,9.338379
4542,0.027832,-0.208374,0.929321,1.403809,4.211426,9.460449
4553,0.052246,-0.187744,1.030640,0.793457,3.784180,9.765625
4562,0.006714,-0.113403,0.998779,-0.122070,2.990723,9.277344
4572,0.031860,-0.000244,1.012451,-0.610352,2.807617,9.704590
4582,0.015625,-0.298828,0.684814,-0.122070,2.685547,9.887695
4592,0.031738,-0.491821,0.430298,-1.037598,2.319336,9.582520
4602,0.000977,-0.055176,0.704102,-4.882812,1.770020,8.666992
4612,0.077515,0.440918,1.164917,-5.920410,1.342773,9.216309
4622,0.025269,0.465942,1.396240,-2.929688,2.197266,9.826660
4632,0.004883,-0.225220,0.872192,-2.014160,3.112793,11.413574
4643,-0.101807,-0.078613,1.130859,-2.319336,2.685547,11.352539
4652,-0.104370,0.033691,1.187256,-2.441406,2.075195,10.253906
4662,-0.071533,-0.004028,0.969604,-1.708984,2.319336,10.498047
4672,0.045410,-0.122559,0.872314,-0.488281,2.441406,11.169434
4684,0.000244,-0.139526,0.948486,-1.098633,1.892090,12.023926
4694,-0.009521,-0.089722,0.954102,-2.014160,1.708984,12.878418
4704,0.070190,-0.064209,0.917358,-2.685547,1.953125,13.671875
4713,0.095581,-0.084229,0.936890,-3.051758,2.197266,14.953613
4722,0.075317,-0.086060,1.017212,-3.051758,1.403809,15.380859
4732,0.034424,-0.149048,1.063232,-2.624512,0.671387,15.747070
4743,0.066528,-0.133911,1.094604,-2.990723,-0.061035,16.113281
4752,0.088501,-0.041992,1.127075,-2.929688,-0.732422,16.601562
4762,0.102051,0.009033,1.044067,-2.136230,-1.464844,16.723633
4772,0.049805,-0.104980,1.001343,-1.281738,-2.136230,15.869141
4782,0.032349,-0.141235,0.998169,-1.159668,-2.746582,14.160156
4792,-0.006836,-0.051270,0.993042,-1.586914,-3.723145,11.962891
4802,0.031250,0.001099,0.958374,-1.708984,-4.394531,9.094238
4813,0.037598,-0.064453,0.894653,-1.220703,-5.004883,6.896973
4822,0.021606,-0.060791,0.861328,-2.014160,-6.103516,3.845215
4832,0.001953,0.045776,1.111572,-1.708984,-6.042480,3.295898
4842,-0.015015,0.051025,1.045532,0.366211,-5.493164,3.479004
4852,-0.009033,-0.178345,0.937134,2.502441,-4.577637,4.150391
4863,-0.009399,-0.157959,0.992798,3.906250,-4.455566,4.516602
4872,-0.032104,-0.229614,0.859009,5.004883,-4.821777,3.845215
4882,-0.004517,-0.313232,0.904907,4.943848,-5.554199,3.173828
4894,0.107178,-0.148437,0.751465,3.967285,-5.493164,2.197266
4903,0.046631,-0.126099,0.735352,1.037598,-5.187988,2.441406
4913,-0.018799,-0.157837,0.856812,0.488281,-5.187988,2.380371
4922,-0.020752,-0.073853,0.964722,-0.305176,-4.821777,2.624512
4932,-0.052124,-0.087158,1.071167,-0.244141,-3.967285,2.502441
4942,-0.104004,-0.172729,1.087891,-0.305176,-3.417969,2.197266
4952,-0.082886,-0.168945,1.028320,-0.427246,-2.990723,2.624512
4964,-0.124634,-0.203491,0.977417,0.366211,-2.319336,1.953125
4974,-0.125366,-0.210571,0.976196,0.671387,-2.380371,1.159668
4984,-0.021606,-0.194214,0.987549,0.366211,-1.770020,0.549316
4993,0.069702,-0.119507,1.062744,-0.061035,-1.464844,0.488281
5003,0.072876,-0.074097,1.061279,-0.427246,-1.525879,1.037598
5012,0.084595,-0.055298,1.019165,-0.671387,-1.525879,1.647949
5022,0.080933,-0.140137,0.997192,-0.488281,-1.220703,2.807617
5034,0.079102,-0.091187,1.024170,-0.976562,-2.258301,2.807617
5043,0.090820,-0.014526,0.990845,-2.990723,-3.051758,1.953125
5053,0.047852,-0.003296,0.922119,-3.051758,-3.417969,1.892090
5063,0.038696,-0.064819,0.909302,-2.563477,-3.662109,1.770020
5072,0.052124,-0.073608,0.919434,-2.868652,-3.662109,1.525879
5083,-0.002930,-0.073120,0.879883,-3.662109,-3.540039,2.014160
5092,-0.001709,-0.052002,0.901367,-4.150391,-3.417969,2.075195
5102,-0.042725,-0.038574,0.895630,-5.249023,-2.197266,2.441406
5112,-0.033203,0.023804,1.045532,-5.615234,-2.258301,2.380371
5122,-0.030396,0.045532,1.060547,-5.310059,-2.075195,2.319336
5132,-0.069702,-0.005249,1.081665,-4.455566,-2.014160,2.197266
5142,-0.015015,-0.072388,0.978271,-3.479004,-1.953125,2.014160
5153,-0.015259,-0.083740,0.924438,-3.417969,-1.586914,1.525879
5163,0.036499,-0.070312,0.946289,-2.807617,-1.464844,1.159668
5172,0.083618,-0.034790,0.969116,-2.258301,-2.197266,-0.976562
5183,0.054565,-0.035278,0.998291,-2.136230,-2.258301,-1.953125
5193,0.092407,-0.116821,1.010376,-1.953125,-2.319336,-2.929688
5202,0.043945,-0.098999,0.995117,-1.953125,-2.685547,-3.906250
5213,-0.020386,-0.043945,0.959595,-2.197266,-3.234863,-5.249023
5223,-0.012207,0.000244,0.947388,-1.953125,-2.807617,-5.920410
5232,-0.017212,-0.012695,0.946899,-1.281738,-1.892090,-6.225586
5242,0.036377,-0.039307,0.981689,-1.770020,-1.037598,-6.286621
5252,-0.016724,-0.103027,1.068115,-2.197266,-0.915527,-6.530762
5263,-0.011597,-0.062866,1.005371,-2.624512,-0.305176,-6.347656
5272,0.045532,-0.027344,1.000122,-3.540039,0.183105,-5.981445
5283,0.032593,-0.041382,1.062378,-3.723145,0.427246,-5.493164
5292,0.056274,0.063354,1.066895,-3.784180,0.610352,-5.249023
5302,0.037354,0.010376,1.054932,-3.356934,0.976562,-4.516602
5314,0.028198,-0.027710,1.101318,-2.563477,1.770020,-3.479004
5323,0.061768,-0.126465,1.104004,-1.831055,1.647949,-2.929688
5333,0.023560,-0.193237,1.043701,-1.281738,1.770020,-2.807617
5342,0.057739,-0.176758,0.913574,-1.037598,1.892090,-2.136230
5353,0.088867,-0.218628,0.922607,-0.976562,2.136230,-0.915527
5363,0.052612,-0.226196,0.892090,-1.403809,1.953125,-0.427246
5372,0.018433,-0.211670,0.931763,-1.770020,1.708984,0.122070
5384,0.041260,-0.106323,0.998901,-2.319336,2.441406,1.159668
5393,0.019409,-0.154663,1.033325,-2.563477,2.868652,1.892090
5403,0.009399,-0.109497,0.989746,-2.807617,2.441406,2.258301
5412,0.053833,-0.065308,1.061401,-2.807617,2.319336,2.624512
5423,0.046143,-0.093262,1.119629,-2.441406,2.624512,3.845215
5432,0.046021,-0.088379,1.024048,-2.136230,2.868652,4.638672
5442,0.039185,-0.161377,0.957520,-1.586914,2.746582,5.676270
5454,-0.016113,-0.113159,0.966553,-1.647949,2.929688,6.469727
5463,0.008789,-0.006714,1.008789,-3.479004,3.173828,6.774902
5473,-0.018677,-0.062012,1.015869,-3.234863,3.356934,6.774902
5482,-0.049072,-0.160156,0.857788,-3.356934,2.868652,6.896973
5493,-0.029907,0.006714,0.983887,-4.150391,3.295898,7.019043
5502,-0.066772,0.119873,1.183960,-4.638672,3.356934,7.629395
5515,-0.073364,-0.061035,1.039795,-2.685547,4.333496,9.277344
5525,-0.099854,-0.167480,0.843018,-1.159668,4.882812,10.803223
5534,-0.130127,-0.111328,1.026978,-1.281738,5.493164,11.169434
5544,-0.097412,-0.018555,1.150635,-2.075195,5.615234,11.169434
5553,-0.065308,-0.062744,1.058472,-2.136230,5.493164,11.291504
5563,-0.026978,-0.111572,0.953003,-1.831055,6.042480,12.023926
5572,-0.030640,-0.078491,1.009644,-1.892090,6.469727,12.573242
5584,-0.017700,-0.032227,1.175049,-1.708984,6.652832,14.160156
5593,-0.032837,-0.079346,1.056396,-0.915527,6.347656,14.404297
5604,0.023560,-0.027100,1.111206,-0.183105,6.530762,15.136719
5613,0.052246,-0.045410,1.095337,0.610352,6.103516,16.235352
5623,0.052246,-0.068848,1.053223,1.037598,5.554199,16.784668
5632,0.042236,-0.075317,1.044312,1.220703,4.882812,17.578125
5643,0.101929,-0.020020,1.042358,1.220703,4.455566,18.493652
5652,0.098267,-0.053345,0.992554,1.220703,4.577637,19.531250
5664,0.070679,-0.077759,0.887329,1.525879,3.845215,20.324707
5673,0.089355,-0.145142,0.880005,1.831055,1.464844,20.141602
5682,0.086792,-0.100952,0.934570,1.037598,0.427246,19.226074
5693,0.080933,0.018921,1.000244,0.000000,-0.732422,18.005371
5702,0.047852,0.079590,1.027100,-0.183105,-1.586914,16.845703
5713,0.014526,-0.000732,1.013672,0.244141,-2.075195,16.296387
5722,0.020996,-0.063354,1.018555,1.037598,-2.319336,15.502930
5734,-0.010986,-0.048218,1.075195,2.380371,-2.990723,12.939453
5743,0.009277,-0.157349,0.987427,3.356934,-3.723145,10.986328
5753,0.007446,-0.178955,0.961426,3.723145,-3.845215,9.338379
5763,0.025146,-0.148682,0.884399,3.601074,-4.577637,7.141113
5773,0.057251,-0.162964,0.926270,3.356934,-5.432129,5.187988
5783,0.039063,-0.249756,1.022705,3.112793,-6.042480,3.723145
5792,0.026733,-0.161865,0.891968,2.380371,-6.286621,2.075195
5804,0.032349,-0.266724,0.935547,1.770020,-5.493164,1.037598
5813,0.014282,-0.144165,0.812988,0.366211,-6.042480,-0.488281
5823,-0.020996,-0.263794,0.811279,-0.305176,-6.164551,-1.403809
5833,-0.006470,-0.322510,0.835937,-1.586914,-5.737305,-2.319336
5842,0.003174,-0.051636,0.833008,-3.540039,-5.432129,-3.234863
5853,-0.021973,0.022339,0.954224,-4.272461,-5.004883,-3.601074
5863,-0.037476,-0.042236,0.992554,-4.272461,-4.577637,-2.380371
5873,0.013306,-0.003418,0.963379,-4.577637,-2.746582,-1.403809
5883,0.012207,0.015625,1.213135,-4.394531,-2.441406,-0.793457
5893,-0.044922,-0.002075,1.095093,-3.967285,-2.441406,-0.183105
5902,0.002808,-0.096069,0.952759,-2.990723,-2.136230,-0.061035
5913,-0.040161,-0.142334,1.039917,-2.746582,-2.319336,-0.549316
5923,0.024658,-0.078979,1.028809,-2.685547,-2.807617,-1.892090
5933,0.010986,-0.007446,0.985718,-2.746582,-2.746582,-2.075195
5944,0.092896,-0.125122,0.891846,-1.892090,-2.014160,-2.014160
5954,0.060425,-0.140869,0.889404,-2.014160,-1.708984,-0.976562
5964,0.041626,-0.155884,0.871094,-2.380371,-1.708984,-0.854492
5974,-0.025269,-0.144409,0.877930,-3.051758,-2.014160,-0.854492
5984,-0.028198,-0.042114,0.962280,-3.906250,-1.831055,-0.671387
5994,-0.048828,0.017822,1.082520,-4.272461,-1.220703,-0.671387
6008,-0.078979,-0.023071,1.133911,-4.150391,-1.281738,1.098633
6019,-0.044312,-0.036011,1.145264,-4.028320,-0.671387,2.380371
6029,-0.088379,0.011719,1.178223,-3.601074,1.037598,3.295898
6038,-0.067749,-0.020752,1.122314,-2.624512,1.586914,4.699707
6047,-0.022461,-0.104370,1.012695,-1.403809,2.136230,5.004883
6057,0.027100,-0.075684,0.876587,-1.525879,1.953125,4.821777
6067,0.023071,-0.031982,0.859253,-1.647949,1.342773,4.211426
6076,0.045166,-0.051636,0.839722,-1.220703,1.464844,3.540039
6085,-0.016113,-0.083862,0.790649,-0.793457,1.586914,3.234863
6095,-0.004761,-0.053589,0.876953,-0.549316,1.159668,2.136230
6105,-0.049927,0.010986,1.009033,0.000000,0.915527,1.037598
6114,-0.096436,-0.036743,0.981567,1.098633,1.159668,0.366211
6123,-0.098999,-0.166992,0.933594,1.953125,1.647949,0.427246
6133,-0.010010,-0.163818,0.989746,2.136230,2.441406,1.220703
6145,-0.035522,-0.081665,0.985474,1.831055,3.356934,2.685547
6155,0.026001,-0.183838,0.920410,1.647949,4.211426,3.417969
6164,0.049438,-0.220459,0.967529,1.525879,4.455566,4.150391
6173,0.019165,-0.158081,0.998779,1.037598,4.272461,3.906250
6183,0.060669,-0.111816,1.036133,0.732422,4.394531,3.906250
6193,0.059692,-0.168335,0.987671,0.732422,4.150391,3.906250
6203,0.037109,-0.223999,1.012939,0.793457,3.417969,3.540039
6213,0.094482,-0.145020,1.046753,0.610352,3.479004,3.356934
6224,0.090332,-0.111572,1.162354,0.976562,2.624512,3.540039
6234,0.088989,-0.091309,1.074829,1.647949,2.502441,3.967285
6243,0.045288,-0.203369,1.093506,2.197266,2.807617,4.882812
6253,0.018311,-0.341309,1.026245,2.197266,2.563477,5.310059
6263,0.067139,-0.215332,0.838623,1.281738,2.502441,5.310059
6273,0.019043,-0.185547,0.800415,-0.183105,2.075195,5.371094
6286,0.151733,0.079224,0.908203,-3.417969,1.770020,5.798340
6295,0.129150,-0.020020,1.080688,-3.784180,1.708984,6.591797
6305,0.055786,-0.128418,1.080933,-3.723145,1.098633,7.263184
6314,0.015869,-0.003784,0.961670,-4.089355,1.342773,7.812500
6323,0.041260,-0.009766,1.006714,-4.150391,1.831055,8.911133
6334,-0.009521,-0.005615,1.162964,-3.906250,1.831055,9.155273
6343,-0.030640,0.110229,1.181519,-3.540039,1.770020,9.155273
6353,-0.014526,0.093506,1.156372,-2.441406,1.708984,10.559082
6364,-0.111938,-0.228271,1.084717,0.427246,2.075195,10.864258
6374,-0.153320,-0.120117,0.980103,0.488281,2.380371,10.986328
6384,-0.059448,-0.141113,1.001587,0.549316,2.807617,10.864258
6393,-0.020630,-0.217773,0.981445,0.854492,3.234863,11.230469
6404,-0.004272,-0.151978,0.909058,0.427246,3.112793,11.657715
6413,-0.038208,-0.042725,0.903809,-0.488281,2.868652,11.718750
6425,-0.044922,-0.062866,0.955566,-0.793457,3.112793,12.756348
6435,-0.029175,-0.090454,0.937744,-1.098633,4.150391,12.695313
6444,-0.105835,-0.045654,0.966553,-1.342773,3.967285,12.878418
6454,-0.058960,-0.034302,0.966187,-1.342773,3.784180,12.451172
6463,-0.079712,-0.033936,0.992798,-1.220703,3.479004,12.329102
6474,-0.028931,-0.027710,1.001221,-0.915527,3.601074,12.512207
6483,-0.025146,-0.049072,0.978760,-0.610352,3.601074,13.061523
6493,0.009644,-0.045166,0.958618,-0.671387,3.540039,15.380859
6504,0.093018,0.016846,1.001587,-0.732422,3.906250,17.578125
6514,0.122437,-0.065674,0.907471,-0.244141,3.845215,19.531250
6523,0.209473,-0.109741,0.839722,0.244141,3.234863,20.751953
6534,0.166016,-0.105835,0.782837,0.122070,2.075195,21.728516
6543,0.175903,-0.036865,0.843872,-0.488281,0.549316,21.728516
6555,0.133057,0.083618,0.952759,-0.488281,-1.953125,20.385742
6564,0.076050,-0.043335,0.932739,0.183105,-2.319336,19.592285
6575,0.063843,-0.221436,0.830444,0.488281,-2.929688,18.859863
6584,0.045410,-0.176880,0.910156,-0.305176,-3.417969,17.761230
6594,-0.010010,-0.015869,0.994751,-1.342773,-4.699707,15.991211
6603,0.005249,-0.039917,1.115356,-1.342773,-4.943848,14.465332
6613,0.013672,-0.154907,1.107910,-1.647949,-5.249023,13.488770
6625,-0.030762,-0.095947,1.022583,-2.685547,-6.042480,10.131836
6635,0.001221,-0.087524,1.154419,-2.807617,-5.493164,9.033203
6644,-0.011108,-0.110474,1.021362,-2.563477,-5.554199,7.873535
6654,-0.013428,-0.180420,1.017700,-2.075195,-6.164551,6.164551
6664,-0.027222,-0.118896,1.061157,-2.319336,-6.469727,5.065918
6673,-0.012939,-0.054810,1.071777,-2.868652,-6.408691,4.028320
6684,-0.036011,-0.132446,1.093506,-2.685547,-6.225586,3.479004
6694,0.014893,-0.058228,1.063721,-2.746582,-5.737305,2.990723
6703,0.014404,-0.103516,1.092529,-1.586914,-4.882812,3.051758
6715,0.035645,-0.189941,1.095581,-1.159668,-4.760742,2.502441
6724,0.027100,-0.175781,0.977051,-1.037598,-5.554199,1.159668
6734,0.046021,-0.197388,0.881836,-1.525879,-5.798340,0.488281
6743,0.084595,-0.188477,0.910034,-2.380371,-5.737305,-0.305176
6754,0.109619,-0.026855,0.899414,-3.906250,-6.164551,-1.281738
6763,0.062378,0.012085,0.865601,-4.333496,-6.103516,-1.281738
6775,0.075806,0.015137,0.898804,-4.272461,-5.554199,-0.793457
6785,0.009644,0.099854,0.928467,-4.760742,-5.187988,0.244141
6794,-0.031616,0.049072,0.948120,-4.150391,-5.310059,0.061035
6803,-0.027344,-0.033325,1.009521,-3.173828,-4.638672,0.427246
6813,-0.004395,-0.044678,1.040771,-2.258301,-4.089355,0.793457
6824,0.002686,-0.038818,1.106445,-1.464844,-4.272461,0.671387
6834,0.001953,-0.034424,1.153687,-0.610352,-3.967285,0.915527
6843,-0.010864,-0.089478,1.154053,1.525879,-3.356934,1.220703
6855,-0.002686,-0.188965,1.040405,2.258301,-3.051758,1.037598
6864,-0.032593,-0.158691,1.056885,2.746582,-3.173828,0.366211
6874,0.003906,-0.121216,1.069458,3.051758,-3.112793,-0.732422
6883,0.021606,-0.179932,1.004517,3.295898,-2.990723,-1.342773
6894,0.009644,-0.177612,0.990234,3.112793,-2.807617,-2.136230
6903,0.046753,-0.145264,1.025757,3.234863,-2.807617,-2.624512
6915,0.057007,-0.166748,1.074341,3.601074,-2.563477,-3.723145
6924,0.088989,-0.255493,0.983887,3.601074,-2.624512,-3.723145
6934,0.082275,-0.273193,0.884155,2.929688,-2.746582,-3.540039
6943,0.027100,-0.249878,0.772949,1.586914,-3.051758,-4.089355
6954,0.010864,-0.408203,0.398193,-0.122070,-2.990723,-4.455566
6963,0.040649,-0.181396,0.487671,-3.479004,-2.746582,-4.577637
6975,0.011963,0.157104,0.770630,-8.728027,-1.831055,-4.150391
6984,-0.046509,0.355103,1.233887,-7.385254,-0.976562,-3.112793
6994,-0.098633,0.057007,1.158325,-4.943848,0.366211,-2.136230
7003,-0.116455,-0.081055,1.063843,-3.601074,1.281738,-0.610352
7014,-0.107056,-0.031006,1.040283,-2.624512,1.953125,0.366211
7023,-0.139648,-0.005249,0.980469,-1.953125,2.563477,0.976562
7033,-0.060425,-0.094604,0.860718,-0.610352,3.356934,1.892090
7045,0.023560,-0.153564,0.822388,-0.671387,3.540039,3.051758
7054,0.069336,-0.112915,0.931885,-1.281738,3.356934,3.356934
7064,0.095703,-0.218018,0.824707,-1.770020,3.173828,3.845215
7073,0.108154,-0.178345,0.856567,-2.441406,2.746582,4.028320
7084,0.073242,-0.134155,1.120605,-3.112793,2.441406,3.967285
7094,0.069092,-0.032715,1.237915,-3.112793,2.014160,4.028320
7103,0.035034,-0.067383,1.236694,-2.624512,2.014160,4.638672
7115,-0.000732,-0.208252,1.139160,-1.892090,2.990723,7.019043
7124,-0.020752,-0.147583,1.200317,-1.525879,3.234863,7.995605
7134,0.028931,-0.155029,1.110718,-1.647949,3.051758,8.239746
7143,0.032837,-0.151978,1.017334,-2.014160,2.746582,7.934570
7154,0.028564,-0.103638,1.051636,-2.441406,2.014160,7.324219
7164,0.033936,-0.009399,1.069946,-2.807617,1.281738,6.774902
7173,0.043823,-0.049438,1.058105,-2.624512,1.159668,7.202148
7185,0.073486,-0.059692,1.048340,-3.295898,1.464844,8.300781
7194,0.032959,0.164917,1.081665,-2.990723,1.525879,9.338379
7204,0.035278,0.176270,1.035889,-1.586914,1.281738,9.704590
7213,-0.000854,-0.026855,0.971802,0.976562,1.342773,10.009766
7224,0.007202,-0.079468,0.962524,2.502441,1.464844,9.765625
7233,0.080688,-0.084839,0.950317,3.601074,1.037598,9.155273
7244,-0.015015,-0.128540,0.959229,4.394531,0.000000,8.056641
7255,-0.161865,-0.106445,0.955811,3.479004,0.000000,7.019043
7264,-0.041260,-0.078613,0.881348,3.234863,1.220703,7.690430
7274,-0.060059,-0.077271,0.910522,3.234863,1.647949,8.483887
7283,-0.052002,-0.086792,0.922119,2.929688,1.953125,9.826660
7294,-0.069946,-0.126343,0.912354,2.807617,2.807617,11.535645
7304,-0.050049,-0.140747,0.922485,2.807617,3.662109,12.634277
7313,-0.058228,-0.177002,0.948120,2.929688,3.540039,13.427734
7325,-0.082275,-0.180786,0.952271,2.746582,3.295898,12.451172
7334,-0.107544,-0.259033,0.920044,2.563477,3.601074,12.207031
7345,-0.030151,-0.286011,0.894165,1.892090,3.784180,11.840820
7354,-0.032715,-0.222656,0.973755,0.610352,3.356934,11.657715
7364,-0.032349,-0.046631,1.075073,-1.098633,3.112793,11.352539
7374,0.007324,0.013550,1.150635,-2.258301,3.112793,11.718750
7383,0.094849,-0.003662,1.104614,-2.319336,3.479004,13.488770
7395,0.108276,0.069092,1.102051,-2.563477,2.990723,16.906738
7404,0.105347,-0.000854,1.103882,-2.380371,2.075195,17.639160
7414,0.126953,-0.007324,1.056396,-2.319336,1.403809,17.578125
7423,0.142212,0.016968,1.002441,-2.441406,0.183105,16.845703
7434,0.137573,0.057251,1.062622,-2.624512,-0.610352,15.991211
7443,0.149170,0.055420,1.078247,-2.990723,-1.647949,14.953613
7454,0.135376,0.005615,1.047119,-3.051758,-2.197266,14.526367
7463,0.102417,-0.019653,1.007935,-2.746582,-2.563477,13.854980
7475,-0.004639,-0.098389,0.989502,-2.807617,-4.028320,11.596680
7485,-0.011597,-0.119995,0.874756,-3.479004,-4.272461,10.070801
7494,-0.015625,-0.236938,0.830933,-3.784180,-4.516602,8.789063
7504,-0.023315,-0.146240,0.848511,-4.821777,-5.004883,7.629395
7514,-0.086426,0.025757,0.929321,-5.859375,-4.882812,6.958008
7523,-0.066162,-0.076416,1.022949,-5.615234,-4.394531,7.324219
7533,-0.013428,-0.055298,1.046875,-5.249023,-3.784180,7.629395
7545,-0.042358,-0.256958,0.983398,-4.577637,-2.929688,9.216309
7555,-0.048462,-0.162231,0.938599,-3.051758,-2.746582,8.911133
7565,-0.003296,-0.143311,1.016357,-2.990723,-2.929688,7.934570
7574,-0.047119,-0.157959,1.046753,-2.807617,-3.417969,6.591797
7584,0.024780,-0.073853,1.017700,-2.502441,-3.845215,5.126953
7594,0.020508,-0.149902,0.942017,-1.525879,-3.906250,4.516602
7603,0.035156,-0.135132,0.861816,-0.854492,-3.662109,4.455566
7615,0.008179,-0.138550,0.923828,-0.671387,-3.234863,2.990723
7624,-0.045410,-0.081543,0.904175,-0.671387,-4.028320,1.831055
7634,-0.017456,-0.080566,0.904541,-1.098633,-4.028320,0.854492
7644,0.023193,-0.134033,0.914673,-1.159668,-3.662109,0.793457
7653,0.024048,-0.071289,0.961914,-1.586914,-3.540039,0.427246
7664,0.008911,-0.027100,1.012207,-2.136230,-3.173828,0.244141
7673,0.060303,-0.054077,1.044678,-2.014160,-2.441406,0.793457
7683,0.049438,-0.100830,1.009399,-1.342773,-2.868652,1.037598
7694,0.028687,-0.113159,1.105347,-0.488281,-2.990723,0.976562
7703,0.033813,-0.211426,1.041870,0.488281,-3.173828,1.098633
7713,0.058594,-0.212891,1.014648,0.732422,-3.356934,0.366211
7724,0.088623,-0.156616,1.071655,0.549316,-3.295898,-0.366211
7733,0.059204,-0.121460,1.041748,0.610352,-3.479004,-0.976562
7745,0.057373,-0.172485,0.984497,1.220703,-4.150391,-2.685547
7754,0.041626,-0.177490,0.922974,1.159668,-3.967285,-3.234863
7764,0.009277,-0.167969,0.839722,0.915527,-4.028320,-3.845215
7774,0.039429,-0.127319,0.829590,0.671387,-3.540039,-3.112793
7783,0.010254,-0.021851,0.875244,-0.366211,-3.295898,-2.868652
7794,0.048828,0.015259,0.862427,-1.647949,-3.173828,-2.258301
7804,0.043701,-0.008667,0.881958,-2.258301,-2.502441,-0.366211
7813,0.032715,-0.024170,0.895630,-2.807617,-2.197266,0.854492
7825,-0.004150,-0.022217,0.963623,-3.479004,-1.708984,2.258301
7835,-0.048584,0.007568,0.995239,-3.356934,-1.525879,2.258301
7844,-0.050293,0.043335,1.032227,-3.234863,-1.159668,2.075195
7854,-0.052124,0.016602,1.041138,-2.746582,-0.854492,1.220703
7863,-0.084351,-0.005371,1.013184,-2.075195,-0.793457,-0.183105
7873,-0.057983,0.035645,1.025024,-1.281738,-0.610352,-0.976562
7885,-0.035645,-0.058838,0.997070,0.244141,-0.183105,-2.807617
7895,0.012329,-0.068970,1.083740,0.366211,-0.488281,-3.662109
7904,0.056519,-0.091187,1.029907,0.427246,-0.305176,-4.150391
7914,0.060791,-0.136108,0.955200,0.854492,0.122070,-4.150391
7923,0.066162,-0.166992,0.958862,0.671387,0.366211,-3.784180
7934,0.089478,-0.081543,0.975098,0.183105,0.732422,-3.356934
7943,0.048706,-0.088257,0.966309,-0.183105,0.610352,-2.868652
7955,0.042358,-0.170288,0.902588,-0.976562,0.793457,-2.380371
7965,0.068481,-0.143799,0.925903,-1.464844,1.037598,-1.770020
7974,0.000244,-0.123535,1.038208,-2.258301,1.159668,-1.098633
7984,0.003906,-0.011719,1.006104,-2.990723,1.464844,-0.305176
7994,-0.011841,-0.075562,0.999756,-3.051758,2.136230,1.220703
8004,-0.057373,-0.119629,1.027466,-2.868652,2.502441,2.136230
8014,-0.044922,0.055420,1.016724,-3.234863,3.112793,2.441406
8024,-0.028442,0.010010,1.057617,-2.868652,3.845215,3.479004
8035,-0.025879,-0.042114,0.877930,-2.258301,4.028320,4.028320
8044,0.014771,-0.132202,0.881714,-1.525879,4.516602,4.943848
8054,-0.025513,-0.199585,0.860229,-1.342773,4.333496,5.676270
8063,-0.004517,-0.137695,0.783325,-2.075195,4.150391,5.615234
8074,0.052734,-0.105469,0.738525,-2.563477,4.638672,6.530762
8083,0.025146,-0.139404,0.810425,-2.929688,4.516602,7.263184
8095,0.006714,-0.094971,0.898560,-4.394531,4.577637,9.033203
8104,-0.044800,0.012939,1.081543,-4.516602,4.821777,10.253906
8114,-0.087524,-0.046143,1.114380,-4.150391,5.187988,11.474609
8124,-0.137207,-0.041626,1.029663,-4.211426,5.798340,13.061523
8133,-0.061646,-0.099609,0.997803,-3.906250,6.469727,14.831543
8144,-0.130615,-0.171509,1.052246,-3.479004,7.141113,15.930176
8153,-0.101929,-0.143921,1.046997,-3.662109,7.324219,16.479492
8165,-0.126587,-0.023315,0.986206,-4.516602,6.713867,15.747070
8174,-0.017578,-0.055664,1.071533,-4.943848,6.896973,16.235352
8184,0.022583,0.018799,1.065918,-5.126953,6.652832,16.235352
8194,-0.017334,0.070435,1.119995,-5.065918,6.835937,16.723633
8204,0.001953,0.005005,1.148560,-4.516602,7.141113,17.761230
8214,-0.007202,-0.045898,1.110962,-4.211426,7.263184,18.127441
8224,-0.036499,0.016479,1.109497,-4.150391,6.530762,17.700195
8233,-0.082275,0.049927,1.128052,-3.601074,5.920410,17.089844
8245,-0.020996,-0.079712,0.969604,-2.990723,5.493164,17.333984
8254,-0.025757,-0.062500,0.923218,-2.563477,5.187988,17.150879
8264,0.030151,0.023193,0.942261,-3.173828,4.882812,17.944336
8274,0.062012,0.035889,0.923828,-3.540039,4.760742,19.287109
8284,0.122070,-0.000732,0.891479,-3.295898,4.577637,20.690918
8294,0.125366,-0.076294,0.883423,-3.173828,4.150391,22.216797
8304,0.118652,-0.070557,0.894897,-3.173828,3.662109,23.254395
8315,0.108398,-0.129395,0.877075,-2.441406,1.953125,23.498535
8325,0.110352,-0.113403,0.850952,-1.953125,0.549316,22.094727
8334,0.098999,-0.059692,0.840820,-1.586914,-0.427246,20.385742
8344,0.077759,-0.049805,0.903809,-1.037598,-1.586914,18.798828
8354,0.088867,-0.108765,0.981201,-0.305176,-2.746582,16.662598
8364,0.052002,-0.167847,0.965942,0.305176,-3.356934,14.526367
8377,0.077759,-0.131348,1.083496,0.244141,-4.455566,11.047363
8386,0.073853,-0.073486,1.146851,-0.061035,-5.004883,9.277344
8396,0.054565,-0.060791,1.123169,0.061035,-5.615234,7.812500
8405,0.067017,-0.122070,1.111450,0.671387,-5.676270,6.835937
8415,0.092529,-0.098633,1.109253,1.037598,-6.042480,6.042480
8424,0.117798,-0.151367,1.129028,1.647949,-5.981445,5.065918
8434,0.076050,-0.203857,1.185913,1.708984,-6.652832,3.906250
8446,0.039307,-0.187378,1.070068,1.464844,-7.629395,1.098633
8456,0.070679,-0.183960,1.079712,1.403809,-7.507324,0.183105
8465,0.012329,-0.117065,1.039185,0.793457,-7.629395,-0.549316
8474,-0.001587,-0.183594,1.118042,0.854492,-7.446289,-1.159668
8484,-0.040771,-0.098877,1.082031,0.671387,-7.141113,-1.586914
8495,0.030884,-0.158325,1.044067,0.915527,-6.591797,-1.647949
8504,0.028564,-0.256836,1.016602,1.159668,-6.042480,-1.647949
8517,0.036377,-0.150635,0.940186,0.061035,-6.347656,-1.525879
8526,-0.008911,-0.121094,0.831177,-0.671387,-5.859375,-0.915527
8536,0.054077,-0.090698,0.789917,-1.464844,-5.310059,-0.244141
8546,-0.068604,-0.034912,0.768311,-2.441406,-4.821777,1.159668
8556,-0.065308,0.053345,0.752319,-3.417969,-4.150391,2.197266
8565,-0.079590,0.034302,0.822388,-3.662109,-2.685547,3.845215
8575,-0.023071,-0.023071,0.861816,-3.540039,-2.136230,5.615234
8584,-0.029907,0.050537,0.867065,-3.173828,-1.464844,7.385254
8594,-0.040161,0.086670,1.026367,-2.075195,-1.464844,7.812500
8604,-0.056274,-0.057129,1.015381,-0.976562,-1.403809,8.056641
8614,-0.047852,-0.137085,0.956909,0.122070,-1.281738,7.873535
8624,-0.022949,-0.220459,0.883179,0.793457,-1.525879,7.324219
8634,-0.032715,-0.256836,0.830444,0.366211,-1.892090,6.469727
8644,0.014771,-0.214111,0.842773,-0.183105,-1.953125,4.943848
8657,0.053345,0.016846,1.095215,-2.014160,-2.319336,2.929688
8666,0.060059,0.004272,1.192017,-1.403809,-1.831055,3.234863
8675,0.067017,-0.124023,1.174438,-0.488281,-1.708984,4.455566
8685,0.053955,-0.216309,1.190308,-0.061035,-1.831055,4.577637
8694,-0.014160,-0.172852,1.207031,-0.366211,-2.014160,4.333496
8704,-0.003662,-0.182129,1.041016,-0.122070,-2.563477,3.173828
8715,0.041138,-0.229858,0.882324,-0.427246,-2.624512,2.502441
8724,0.120361,-0.223511,0.812378,-1.831055,-3.723145,1.403809
8735,0.103271,0.283813,1.323242,-5.737305,-3.479004,2.014160
8745,0.089478,0.307617,1.416382,-5.187988,-2.502441,3.234863
8754,0.040649,0.129761,1.286499,-3.051758,-1.708984,4.638672
8765,-0.032227,0.041626,1.197754,-1.098633,-1.953125,5.310059
8774,-0.142456,0.026123,1.231689,0.549316,-2.075195,4.760742
8786,-0.125854,-0.012329,1.136230,3.540039,-2.319336,1.525879
8796,-0.005005,-0.069214,0.894897,4.211426,-2.685547,0.061035
8805,0.032959,-0.081787,0.844482,4.638672,-2.685547,-0.793457
8815,0.067505,-0.122070,0.827148,4.638672,-2.319336,-0.366211
8824,0.050659,-0.159912,0.829346,4.882812,-1.281738,0.793457
8835,0.082397,-0.121582,0.942871,4.638672,-0.854492,1.708984
8844,0.043091,-0.149780,1.005981,4.882812,-0.671387,2.319336
8854,-0.035034,-0.245850,0.930908,5.432129,-0.793457,2.685547
8867,-0.034546,-0.432861,0.635864,5.371094,-0.366211,3.051758
8876,-0.027344,-0.402344,0.688477,3.784180,-0.488281,3.173828
8886,0.029053,-0.108765,0.793945,1.464844,-0.793457,2.624512
8895,0.034424,-0.018799,0.962280,0.671387,-0.366211,3.540039
8905,-0.008423,-0.095703,0.980713,1.037598,-0.305176,4.272461
8914,0.013794,-0.177002,0.922241,1.220703,0.244141,4.211426
8926,-0.029541,-0.326538,0.974365,-0.061035,0.915527,3.906250
8935,-0.009399,0.003906,1.073364,-1.159668,1.098633,3.051758
8945,0.045410,-0.099731,1.111328,-0.549316,0.976562,3.479004
8955,0.058472,-0.145020,0.979004,0.183105,0.671387,3.356934
8965,0.061401,-0.125732,1.041260,0.610352,0.183105,3.540039
8975,0.074829,-0.162109,1.163330,0.793457,0.061035,3.601074
8984,0.061768,-0.236694,1.079590,0.671387,-0.244141,3.723145
8995,0.114624,-0.243530,0.929810,0.366211,0.000000,4.150391
9004,0.103271,-0.234375,0.961548,-1.464844,-0.549316,4.394531
9016,0.063110,-0.009277,1.187378,-2.807617,-0.854492,4.455566
9025,0.095215,0.046509,1.118530,-3.784180,-0.915527,4.638672
9034,0.038208,0.001953,1.106567,-4.150391,-0.976562,5.859375
9045,0.015381,0.062134,1.098511,-4.516602,-0.854492,6.896973
9054,-0.005005,0.136841,1.079468,-4.516602,-0.488281,8.239746
9066,-0.060913,0.023804,1.130981,-4.028320,0.488281,10.437012
9075,-0.027344,0.037476,1.188110,-4.272461,0.610352,10.253906
9084,-0.062988,0.088379,1.045410,-4.028320,0.732422,10.375977
9095,-0.060791,0.028320,1.025757,-3.356934,0.732422,10.131836
9104,-0.019897,0.041504,1.000122,-3.234863,0.671387,9.094238
9114,-0.020752,0.084961,0.946655,-3.356934,0.488281,8.361816
9125,0.021240,0.077148,0.961914,-3.173828,0.366211,7.812500
9136,0.037720,0.018433,0.892334,-0.854492,0.000000,8.422852
9145,0.034424,-0.102783,0.783936,-0.061035,0.061035,9.033203
9155,0.022217,-0.228271,0.805176,0.122070,-0.061035,9.277344
9165,0.013550,-0.120483,0.887085,-0.854492,-0.488281,9.216309
9175,0.044922,0.012451,1.002075,-2.197266,-1.159668,8.911133
9184,0.038208,0.081177,1.083984,-2.197266,-1.342773,9.826660
9195,0.042847,0.009033,1.005127,-1.037598,-1.281738,11.840820
9205,0.024780,-0.112305,0.947510,0.610352,-0.793457,13.854980
9216,0.028564,-0.046631,1.159424,1.037598,-0.427246,16.418457
9226,0.050049,-0.091553,1.064209,1.770020,-0.976562,16.418457
9235,0.050415,-0.187988,0.877808,2.502441,-1.647949,15.686035
9244,0.086060,-0.306641,0.749512,3.051758,-2.380371,14.526367
9255,0.067871,-0.182495,0.891602,2.258301,-3.479004,12.329102
9265,0.040405,-0.000854,1.110352,0.488281,-4.821777,9.643555
9276,0.010742,0.082153,1.142578,-0.610352,-5.737305,6.286621
9286,-0.016968,-0.042236,1.188477,0.793457,-5.432129,5.920410
9295,0.047852,-0.159180,1.017944,2.319336,-4.943848,5.920410
9305,0.053467,-0.390747,0.878296,2.868652,-4.333496,5.676270
9314,0.024902,-0.600464,0.630005,1.464844,-5.676270,3.784180
9325,0.108765,-0.374634,0.433105,-1.831055,-7.690430,0.366211
9335,0.075439,-0.026367,0.677246,-6.713867,-8.911133,-2.014160
9345,0.069824,0.318237,1.087769,-9.155273,-8.666992,-3.173828
9354,0.099731,0.261475,1.212769,-5.432129,-6.225586,0.244141
9365,0.045044,-0.244629,0.983154,-5.859375,-6.042480,0.549316
9375,0.031738,-0.156372,1.050537,-6.835937,-5.920410,0.183105
9385,-0.086914,0.061646,1.083252,-6.713867,-5.920410,-0.549316
9395,-0.090332,0.031860,0.995239,-4.638672,-6.835937,-2.258301
9405,-0.095703,-0.282837,0.872559,-2.319336,-6.713867,-3.051758
9415,0.000244,-0.274414,0.829590,-2.563477,-6.347656,-3.540039
9426,0.019409,0.120239,1.090698,-4.333496,-5.004883,-3.173828
9436,-0.023560,0.118774,0.998047,-4.333496,-4.028320,-1.953125
9445,0.012695,-0.063232,0.969116,-2.929688,-3.479004,-1.281738
9455,0.047852,-0.295288,1.018311,-2.258301,-3.051758,-0.732422
9465,0.026489,-0.189087,1.034668,-3.173828,-3.356934,-1.098633
9474,-0.018311,-0.019897,1.055298,-4.150391,-3.845215,-1.831055
9486,-0.025757,-0.073486,1.039185,-3.173828,-3.601074,-2.197266
9495,0.065796,-0.036377,1.043823,-3.234863,-3.601074,-2.868652
9505,0.076172,-0.075439,1.139648,-2.807617,-3.540039,-3.417969
9514,0.119019,-0.132202,1.130493,-2.502441,-3.845215,-3.479004
9524,0.105103,-0.148926,0.995239,-2.319336,-3.784180,-3.601074
9535,0.074341,-0.229370,0.912109,-1.892090,-3.967285,-3.723145
9545,0.072144,-0.244751,0.943481,-2.502441,-4.638672,-4.333496
9555,0.037231,-0.036133,0.965088,-3.479004,-4.882812,-5.126953
9566,0.026245,-0.011719,0.965088,-4.211426,-5.065918,-5.554199
9576,-0.025391,0.296021,0.935791,-3.662109,-4.333496,-5.187988
9585,-0.061523,0.145996,0.908203,-1.953125,-3.601074,-4.516602
9595,-0.044067,-0.206299,0.870728,0.732422,-2.685547,-3.723145
9604,-0.027100,-0.290649,0.892700,1.281738,-2.014160,-3.723145
9615,-0.066772,-0.124756,0.931030,0.122070,-2.075195,-4.760742
9625,-0.058105,0.008911,0.969238,-0.671387,-1.892090,-5.493164
9634,-0.075562,-0.028442,0.880981,0.244141,-1.220703,-5.371094
9645,-0.072510,-0.086548,0.811401,0.427246,-0.366211,-4.699707
9655,-0.081787,-0.029175,0.911255,0.061035,0.183105,-4.028320
9665,-0.034424,-0.019775,0.948975,-0.122070,0.549316,-3.479004
9675,-0.080811,-0.052490,0.875244,-0.183105,0.976562,-3.051758
9685,-0.087646,-0.156616,0.822754,0.000000,1.770020,-2.380371
9697,-0.050293,-0.074463,1.026245,-1.037598,3.295898,-1.403809
9707,-0.016113,-0.026855,1.124878,-1.708984,3.601074,-1.464844
9716,-0.069580,-0.037354,1.121582,-1.892090,3.601074,-1.647949
9726,-0.025146,-0.065430,1.062622,-1.770020,4.028320,-1.220703
9735,-0.039307,-0.107300,1.043335,-1.037598,4.760742,-0.244141
9745,-0.020508,-0.198975,1.091431,-0.488281,5.065918,0.488281
9756,0.020264,-0.163208,1.103516,-0.549316,5.187988,1.220703
9765,0.050903,-0.083252,1.129272,-1.159668,5.310059,3.356934
9776,0.031128,0.010498,0.985229,-1.831055,5.432129,5.187988
9786,0.017090,-0.113037,1.063477,-1.647949,6.286621,7.629395
9795,-0.038696,-0.087402,1.214722,-1.708984,6.042480,9.094238
9805,-0.036011,0.099487,1.153809,-2.014160,5.859375,9.948730
9815,-0.037109,-0.056519,1.124878,-0.854492,5.920410,10.681152
9825,-0.026489,-0.033813,1.036255,0.427246,5.432129,10.498047
9837,-0.007446,-0.180542,0.917114,2.197266,5.249023,10.009766
9847,0.005493,-0.188232,0.815674,1.770020,4.577637,9.399414
9856,0.023804,-0.140503,0.755127,1.037598,4.150391,8.789063
9865,0.020996,-0.083618,0.807861,-0.183105,4.211426,8.850098
9874,0.052490,-0.027710,0.913940,-0.732422,4.089355,8.972168
9885,-0.037598,-0.032715,1.009888,-0.915527,3.845215,8.789063
9895,-0.032837,-0.041870,1.008301,-0.610352,3.906250,8.422852
9906,-0.054687,-0.063843,0.992310,0.732422,4.638672,8.056641
9915,-0.054932,-0.114258,0.951050,1.342773,4.699707,7.446289
9925,-0.038452,-0.118286,0.909790,2.014160,4.760742,6.591797
9935,0.026001,-0.233887,0.891968,2.929688,4.394531,6.164551
9945,0.058105,-0.259521,0.871460,2.868652,3.967285,5.859375
9956,0.098145,-0.149780,0.867432,1.708984,3.417969,5.615234
9965,0.098999,-0.108032,0.927856,0.671387,3.295898,6.286621
9977,0.005493,-0.081299,1.077515,-0.366211,3.479004,8.178711
9987,-0.043091,-0.099609,1.140747,0.122070,4.089355,9.338379
9997,-0.076538,-0.098633,1.147339,0.671387,4.455566,9.704590
10006,-0.059448,-0.094482,1.134155,1.342773,4.455566,9.460449
10016,-0.041382,-0.140381,1.109131,1.831055,4.211426,9.460449
10025,-0.031006,-0.095215,1.144043,1.892090,3.845215,9.033203
10036,-0.005981,-0.058960,1.185059,1.281738,3.601074,8.789063
10045,0.038330,-0.025513,1.137329,0.549316,3.723145,10.314941
10056,0.064941,-0.058594,0.964478,-0.305176,4.089355,12.145996
10066,0.080933,-0.024536,0.951294,-1.098633,3.784180,13.183594
10075,0.069214,-0.033081,0.946655,-1.647949,2.624512,13.671875
10086,0.110962,0.001343,0.912109,-2.014160,1.647949,13.671875
10095,0.092529,-0.024048,0.819946,-2.075195,0.732422,13.977051
10105,0.152344,-0.104004,0.776245,-2.441406,0.671387,14.526367
10115,0.135254,-0.042114,0.782471,-2.929688,-0.549316,15.441895
10127,0.085205,-0.040527,0.845947,-3.601074,-0.732422,15.563965
10137,0.076660,-0.129028,0.863647,-3.906250,-0.793457,15.197754
10146,0.053345,-0.065308,0.950562,-4.211426,-1.403809,14.038086
10156,0.034424,-0.047729,0.965088,-4.211426,-2.441406,12.573242
10165,-0.021118,-0.145996,0.869751,-3.662109,-3.356934,11.413574
10175,-0.033691,-0.162354,0.822998,-4.028320,-3.601074,10.253906
10188,-0.049561,0.061646,1.046265,-4.211426,-3.601074,8.666992
10197,-0.024170,0.005005,0.996826,-3.051758,-3.662109,8.300781
10207,-0.011475,-0.169312,0.968506,-2.075195,-3.723145,8.422852
10217,-0.013916,-0.227173,0.988647,-1.953125,-3.356934,8.300781
10226,-0.012695,-0.135620,0.964722,-2.563477,-3.112793,7.385254
10236,0.012573,-0.175415,0.931885,-2.685547,-3.601074,6.164551
10246,-0.010132,-0.300903,0.936035,-3.051758,-3.906250,4.333496
10256,-0.004639,-0.150513,0.923706,-4.821777,-4.577637,1.403809
10265,-0.045410,-0.169556,1.104370,-4.821777,-3.967285,1.525879
10275,0.001587,-0.109863,1.086670,-4.760742,-3.295898,1.342773
10285,-0.043701,-0.184814,1.112915,-4.638672,-3.112793,1.403809
10296,-0.039307,-0.109009,1.123169,-4.882812,-3.051758,1.098633
10305,-0.027100,-0.015625,1.078003,-4.943848,-2.990723,0.793457
10315,0.038818,-0.088867,1.050903,-4.821777,-2.441406,1.464844
10328,0.044800,-0.042480,1.056885,-5.004883,-2.319336,2.075195
10337,0.034668,0.015503,1.040771,-4.821777,-2.136230,2.685547
10346,0.056763,0.058228,0.990112,-4.089355,-1.953125,3.234863
10356,0.091919,-0.022949,1.011108,-3.051758,-1.892090,3.723145
10366,0.014404,-0.015991,1.010742,-1.953125,-2.746582,3.417969
10375,-0.002075,-0.011353,0.976318,-1.403809,-3.112793,3.173828
10385,-0.049072,-0.167236,0.870728,-0.305176,-2.807617,3.662109
10395,-0.010864,-0.149170,0.824219,0.061035,-2.502441,3.845215
10406,0.024048,-0.035522,0.922607,0.000000,-1.953125,4.638672
10416,0.021484,-0.160767,0.875000,0.427246,-1.953125,4.699707
10426,-0.035645,-0.249146,0.848267,0.610352,-1.953125,4.943848
10435,-0.042969,-0.182495,0.875854,0.427246,-1.708984,4.638672
10446,-0.032593,-0.141113,0.982666,0.183105,-1.831055,3.906250
10455,-0.018311,-0.151855,0.972046,0.305176,-1.953125,2.929688
10467,-0.013428,-0.192993,0.974487,0.488281,-1.892090,1.464844
10476,-0.014404,-0.196777,0.957275,0.549316,-1.586914,1.098633
10486,0.022827,-0.174194,0.974731,0.488281,-1.342773,0.671387
10495,0.043701,-0.145996,1.004150,0.305176,-1.403809,-0.122070
10506,0.059326,-0.064819,1.056274,0.000000,-1.708984,-0.915527
10516,0.021240,-0.057495,1.082764,0.183105,-2.136230,-1.892090
10527,0.057861,-0.108887,1.011230,0.366211,-1.220703,-2.929688
10537,0.068604,-0.117310,0.973511,-0.061035,-1.342773,-3.662109
10547,0.039307,-0.112061,0.938232,-0.854492,-1.403809,-3.967285
10557,0.043945,-0.083008,0.920532,-2.014160,-1.586914,-4.150391
10566,0.075562,0.001709,1.031006,-3.295898,-1.586914,-4.028320
10575,0.014160,0.093140,1.121948,-3.967285,-1.770020,-3.356934
10586,-0.022949,0.025635,1.110229,-3.723145,-1.159668,-1.708984
10596,0.010132,-0.025024,1.084595,-3.417969,0.244141,0.183105
10605,-0.034302,-0.026367,1.129761,-3.356934,0.732422,2.197266
10617,-0.010254,-0.012695,1.063965,-2.380371,0.610352,2.197266
10626,0.004883,-0.105225,0.952881,-1.525879,0.366211,2.258301
10636,0.013672,-0.165771,0.964844,-1.342773,0.366211,2.197266
10646,0.043701,0.004272,0.988037,-1.770020,0.549316,2.563477
10656,0.053467,-0.015259,1.068848,-1.831055,0.793457,3.356934
10665,0.022705,-0.053955,1.033691,-1.342773,0.732422,3.540039
10677,-0.023315,-0.200684,0.938965,-0.915527,0.793457,3.356934
10687,-0.031128,-0.128052,0.917847,-0.488281,0.305176,2.380371
10696,-0.036865,-0.148193,0.927979,-0.488281,0.244141,1.892090
10706,0.027222,-0.093140,0.900024,-0.244141,0.915527,2.075195
10715,0.021118,-0.107422,0.937744,0.061035,1.281738,2.502441
10726,0.021362,-0.153564,0.981567,0.488281,1.647949,3.051758
10737,0.012085,-0.122070,0.943359,0.732422,1.220703,2.624512
10746,0.006714,-0.165283,0.910400,0.610352,1.708984,2.441406
10757,0.089355,-0.149414,0.889893,0.305176,1.525879,2.197266
10766,0.088623,-0.248657,0.906738,0.549316,0.732422,2.075195
10776,0.086548,-0.171509,0.912598,-0.183105,-0.122070,1.831055
10786,0.071411,-0.074707,0.946899,-0.732422,-0.366211,2.441406
10796,0.066895,-0.072021,1.045288,-0.488281,-0.061035,3.295898
10806,0.078857,-0.071289,1.056274,0.244141,0.488281,4.516602
10817,-0.001953,-0.172729,1.094116,0.915527,0.366211,5.798340
10827,-0.036255,-0.206543,1.101563,2.258301,0.183105,5.920410
10836,-0.010620,-0.136353,0.987183,2.502441,0.061035,5.554199
10846,-0.007080,-0.156006,0.924805,2.380371,0.000000,5.798340
10855,-0.014526,-0.182739,0.915039,1.708984,-0.244141,5.859375
10866,-0.041260,-0.010376,0.966187,0.061035,-0.305176,6.103516
10876,-0.040771,0.081543,1.021729,-1.159668,0.366211,7.263184
10885,-0.041626,0.026245,1.025024,-1.342773,2.075195,9.643555
10897,-0.120728,-0.023926,1.054321,-1.770020,2.380371,9.399414
10906,-0.110718,-0.049316,1.110962,-1.770020,2.441406,8.300781
10916,-0.091675,-0.148071,1.047119,-1.525879,2.258301,7.385254
10925,-0.041016,-0.162109,0.975830,-1.831055,1.831055,6.042480
10936,0.017456,-0.076904,1.001831,-2.075195,1.831055,5.554199
10945,0.073486,-0.033447,1.054443,-2.258301,1.892090,5.676270
10957,0.074463,-0.099121,1.032959,-1.892090,1.770020,7.812500
10966,0.085937,-0.122192,1.028442,-1.281738,2.136230,8.422852
10976,0.090942,-0.122192,0.967529,-1.098633,1.403809,8.666992
10986,0.121948,-0.102295,0.946777,-1.159668,0.671387,8.911133
10996,0.112427,-0.093994,0.858398,-1.647949,0.183105,9.155273
11006,0.119995,-0.117065,0.795044,-1.892090,-0.244141,9.887695
11018,0.114746,-0.039185,0.886475,-2.990723,-0.793457,10.559082
11028,0.093506,-0.018555,0.989746,-3.356934,-0.976562,10.559082
11037,0.058838,0.030884,0.982544,-3.295898,-1.708984,10.131836
11047,0.017700,-0.042969,1.018066,-2.929688,-2.075195,9.643555
11057,-0.045044,-0.175049,1.047363,-2.441406,-2.075195,9.277344
11067,-0.048828,-0.086670,0.972534,-2.502441,-2.502441,8.117676
11077,-0.027588,-0.148071,0.992187,-2.014160,-2.563477,7.751465
11086,0.011719,-0.175659,1.026733,-2.258301,-2.990723,6.774902
11096,0.032104,-0.084839,0.975586,-2.807617,-2.929688,6.774902
11106,0.025391,-0.123901,1.042847,-2.807617,-3.051758,6.347656
11116,0.031250,-0.140869,0.939453,-2.685547,-2.929688,6.103516
11126,0.015015,-0.261230,0.950806,-2.136230,-2.868652,5.981445
11135,-0.002686,-0.123779,1.009399,-2.502441,-3.356934,5.126953
11146,0.003906,-0.084717,1.064819,-2.319336,-3.662109,4.394531
11156,-0.035522,-0.186401,1.060669,-1.464844,-3.906250,3.906250
11166,-0.006470,-0.163818,0.988525,-0.976562,-3.295898,3.234863
11176,-0.024658,-0.090454,1.013550,-0.793457,-3.112793,2.929688
11186,-0.035767,-0.102905,1.033203,-0.549316,-2.990723,2.441406
11196,-0.036987,-0.182007,0.914307,-0.671387,-2.868652,2.197266
11207,-0.082031,-0.146362,0.860229,-1.037598,-2.502441,1.647949
11216,-0.041016,-0.140503,0.924438,-1.525879,-2.624512,0.793457
11226,-0.084839,-0.006836,0.947021,-2.380371,-2.441406,0.366211
11237,-0.012695,-0.030518,0.950317,-2.258301,-1.342773,1.708984
11247,0.012329,-0.035034,0.937866,-1.831055,-0.793457,2.502441
11256,0.032715,-0.015991,0.932617,-1.647949,-0.732422,3.112793
11266,0.030518,-0.048096,0.984497,-1.098633,-0.976562,3.173828
11276,0.059448,-0.090942,1.020264,-0.976562,-0.976562,2.868652
11286,0.049561,-0.005859,0.987061,-1.220703,-1.464844,2.380371
11299,0.068237,-0.139526,0.955933,-0.549316,-2.380371,1.159668
11308,0.046875,-0.110962,0.987305,-0.915527,-2.502441,1.098633
11317,0.001831,-0.052124,0.981812,-1.281738,-2.136230,1.342773
11327,0.035156,-0.043335,0.999146,-1.403809,-1.892090,1.281738
11336,-0.018799,-0.146973,0.989990,-0.732422,-1.953125,1.647949
11346,0.009521,-0.122314,0.988037,-0.183105,-2.014160,1.037598
11357,-0.046509,-0.080811,1.016724,-0.061035,-1.892090,0.549316
11366,-0.029053,-0.077637,1.025269,0.183105,-2.014160,-15.502930
11378,-0.028687,-0.152100,0.981079,0.610352,-1.586914,-0.488281
11387,-0.066040,-0.149292,0.921265,0.732422,-1.220703,-0.427246
11396,-0.034790,-0.101563,0.905640,0.244141,-0.854492,-0.427246
11406,-0.012573,-0.048584,0.926636,-0.122070,-0.122070,-0.366211
11416,0.008423,-0.039185,0.915894,-0.488281,0.000000,0.244141
11426,0.000244,0.027466,0.998535,-1.220703,0.549316,0.793457
11439,-0.094971,0.015869,1.146606,-0.671387,0.915527,1.953125
11448,-0.125000,-0.023682,1.097778,0.061035,1.098633,1.831055
11458,-0.114014,-0.044800,1.145874,0.976562,1.892090,1.647949
11467,-0.125610,-0.070557,1.130615,1.403809,2.319336,1.831055
11477,-0.046875,-0.065063,0.989136,1.770020,2.319336,1.770020
11486,-0.010986,-0.118042,0.867187,2.075195,2.929688,2.502441
11497,0.055786,-0.176392,0.879761,2.258301,3.356934,3.784180
11506,0.059326,-0.099243,0.928833,1.647949,3.479004,5.615234
11518,0.035034,-0.087402,0.901123,0.793457,2.746582,6.347656
11527,0.029541,-0.172119,0.734863,0.793457,2.563477,6.713867
11536,0.077759,-0.204712,0.737793,0.244141,2.746582,7.202148
11547,0.013550,-0.253052,0.847168,-0.793457,2.258301,7.263184
11556,-0.018677,-0.003540,0.934570,-2.502441,1.586914,6.408691
11566,-0.055298,0.054565,1.003418,-2.807617,1.892090,6.408691
11578,-0.012939,-0.124634,0.927124,-1.525879,2.868652,6.408691
11588,0.021362,-0.248413,0.929565,-1.525879,2.990723,6.347656
11597,0.007202,-0.203125,0.947144,-1.953125,2.502441,5.126953
11607,0.034546,-0.162109,0.997314,-2.563477,2.441406,4.455566
11617,0.092896,-0.162231,1.002075,-2.868652,2.197266,4.211426
11626,0.131470,-0.028320,1.090698,-2.929688,1.525879,3.784180
11637,0.118896,-0.094238,1.215698,-2.563477,0.610352,3.906250
11647,0.136353,-0.110840,1.153687,-0.976562,0.244141,4.455566
11658,0.112305,-0.224243,1.201294,-0.427246,0.000000,4.638672
11668,0.118530,-0.069214,1.139526,0.000000,-0.305176,4.211426
11677,0.122314,-0.172852,1.120361,0.976562,-0.976562,3.601074
11686,0.091064,-0.281006,1.095947,1.281738,-1.892090,2.197266
11697,0.113892,-0.133179,0.937256,0.061035,-2.319336,1.647949
11706,0.072510,-0.108032,0.972168,-1.220703,-2.441406,1.708984
11718,0.032959,0.072876,0.907715,-2.380371,-2.441406,2.014160
11727,0.029419,0.065430,0.966064,-4.150391,-1.953125,2.929688
11737,-0.058228,-0.035889,0.971558,-4.150391,-1.770020,2.929688
11746,-0.066772,-0.023926,0.915039,-4.821777,-1.770020,2.441406
11757,-0.057861,0.028809,0.894043,-5.249023,-1.403809,2.441406
11767,-0.017090,0.040527,0.995361,-5.676270,-0.915527,1.892090
11776,0.027222,0.021240,1.043335,-5.554199,-0.671387,1.892090
11788,0.021851,-0.087036,0.924805,-5.004883,-0.610352,1.770020
11798,-0.003174,-0.130615,0.955688,-2.624512,0.061035,2.441406
11807,0.071411,-0.162476,0.974731,-1.831055,0.122070,2.441406
11816,0.058105,-0.200317,0.905273,-1.098633,-0.305176,1.647949
11827,0.037598,-0.240967,0.760742,-0.915527,-1.586914,0.671387
11837,0.036621,-0.200684,0.751099,-1.098633,-1.770020,0.183105
11846,0.053345,-0.080322,0.819702,-1.892090,-1.403809,0.427246
11858,0.041626,-0.092285,0.882812,-2.197266,-1.342773,2.685547
11867,0.074341,-0.141479,0.846313,-2.258301,-0.671387,4.455566
11877,0.044067,-0.090820,0.959595,-3.173828,-0.488281,5.798340
11886,0.043335,0.043213,1.097290,-3.906250,-0.244141,7.019043
11897,-0.002075,0.037842,1.131226,-4.272461,-0.854492,7.568359
11907,0.006714,-0.053711,1.121826,-3.540039,-0.610352,8.361816
11918,0.005615,-0.133423,1.104248,-2.075195,-0.061035,9.094238
11928,-0.018921,-0.116455,1.209351,-1.831055,-0.122070,8.239746
11938,0.029419,-0.155151,1.109131,-1.525879,-0.915527,7.385254
11947,0.019165,-0.184937,1.048096,-1.220703,-1.708984,6.103516
11957,-0.047485,-0.202393,1.001831,-1.098633,-2.563477,4.821777
11967,-0.039429,-0.146362,1.002686,-1.525879,-2.258301,4.882812
11977,-0.086060,-0.094604,0.941406,-1.708984,-1.525879,5.676270
11987,-0.080078,-0.122925,0.957520,-1.892090,0.061035,8.178711
11997,-0.043579,-0.076416,0.993652,-2.319336,0.793457,9.582520
12006,-0.063599,-0.102905,0.965942,-1.647949,0.610352,10.620117
12017,-0.050171,-0.121216,0.944824,-1.220703,0.671387,11.779785
12027,-0.047119,-0.008789,0.927490,-1.037598,0.854492,12.573242
12037,-0.067993,-0.113037,0.942139,-0.610352,0.671387,13.305664
12048,-0.074097,-0.108887,0.933105,-0.549316,0.427246,14.038086
12057,-0.053711,-0.086060,0.856689,-0.976562,0.305176,15.747070
12069,-0.055054,-0.105957,0.798218,-1.281738,1.220703,16.540527
12079,-0.096436,0.009766,0.885498,-1.831055,0.915527,16.906738
12088,-0.087891,0.078003,0.972900,-2.075195,0.793457,17.089844
12098,-0.147339,-0.014893,0.980103,-1.281738,0.671387,17.089844
12107,-0.073242,-0.097412,0.992065,-0.305176,0.732422,16.540527
12117,-0.093750,-0.063354,0.958984,0.305176,0.976562,16.174316
12130,0.031128,-0.214600,1.040283,1.281738,0.000000,14.099121
12139,0.062622,-0.204956,1.054565,1.220703,-0.976562,13.000488
12149,0.111938,-0.151978,1.125977,0.732422,-1.770020,11.657715
12158,0.156494,-0.170288,1.243896,0.427246,-2.258301,10.253906
12167,0.166748,-0.169556,1.219849,0.122070,-3.356934,8.666992
12177,0.119141,-0.171631,1.064209,-0.122070,-4.333496,7.629395
12188,0.138306,-0.172974,1.097168,-0.549316,-4.760742,6.408691
12197,0.118774,-0.201538,1.102417,-0.854492,-5.554199,4.699707
12209,0.093994,-0.150146,0.946533,-1.953125,-7.995605,0.854492
12218,0.139282,-0.126587,0.872803,-2.502441,-8.605957,-0.244141
12228,0.104492,-0.066040,0.886841,-3.417969,-8.789063,-0.671387
12238,0.114746,0.059326,0.973877,-4.638672,-8.666992,-0.915527
12247,0.035522,0.119995,1.028809,-5.126953,-8.422852,-1.281738
12258,0.022705,0.094482,1.009155,-4.821777,-8.422852,-2.197266
12267,0.001831,-0.038574,0.955688,-3.967285,-9.033203,-5.920410
12277,-0.006104,-0.085937,0.939941,-3.295898,-9.460449,-7.873535
12287,0.050781,0.007324,0.980591,-3.112793,-9.277344,-9.399414
12297,0.079590,-0.030884,0.955200,-2.685547,-8.911133,-10.437012
12307,0.134277,-0.092407,0.893799,-2.197266,-8.850098,-11.169434
12318,0.079468,-0.114380,0.912109,-1.770020,-8.544922,-11.840820
12328,0.066650,-0.057251,1.019775,-1.525879,-8.544922,-12.939453
12337,0.042114,-0.067627,1.062622,-0.976562,-8.056641,-13.854980
12347,0.067383,-0.191772,0.984985,0.854492,-7.934570,-16.479492
12358,0.020264,-0.201904,0.879761,0.610352,-8.117676,-17.822266
12367,0.048462,-0.130493,0.935059,0.244141,-7.812500,-18.676758
12378,0.055420,-0.078857,0.909424,-0.366211,-7.446289,-18.798828
12387,0.075439,-0.130005,0.874634,-0.183105,-6.835937,-18.066406
12398,0.062134,-0.195190,0.880493,-0.366211,-5.859375,-16.296387
12407,0.057129,-0.100098,0.948242,-1.586914,-4.028320,-12.817383
12417,0.021484,-0.020996,1.103760,-3.173828,-2.929688,-10.620117
12427,0.039307,-0.060669,1.156250,-2.746582,-2.563477,-8.972168
12438,0.003906,-0.131836,1.130127,-2.319336,-2.441406,-7.690430
12447,-0.023437,-0.066528,1.166626,-2.319336,-1.892090,-7.019043
12457,-0.037720,-0.028809,1.219727,-1.831055,-1.708984,-6.652832
12467,-0.043213,-0.025269,1.109619,-0.854492,-1.159668,-6.164551
12480,0.015625,-0.199585,1.006104,1.464844,-0.244141,-4.638672
12489,-0.034302,-0.182861,0.977539,1.892090,0.183105,-3.906250
12499,-0.071411,-0.178223,0.939575,1.647949,0.488281,-2.990723
12509,-0.029175,-0.186890,0.949829,1.281738,0.488281,-3.479004
12518,-0.001953,-0.068848,1.024414,0.549316,0.915527,-3.479004
12527,-0.010742,0.055054,1.099854,0.305176,1.220703,-3.173828
12538,-0.027710,-0.012573,1.073975,0.671387,1.342773,-3.051758
12548,-0.066406,-0.095947,1.019287,1.159668,2.685547,-1.281738
12558,-0.053833,-0.075317,0.987305,1.464844,3.601074,-0.122070
12568,-0.074829,-0.146851,0.988892,1.647949,3.906250,0.976562
12578,-0.082153,-0.098511,0.926880,1.342773,4.211426,1.831055
12587,-0.044434,-0.083740,0.882690,0.671387,4.699707,3.295898
12598,-0.046265,-0.099731,0.941895,0.366211,5.554199,4.577637
12607,-0.078491,-0.031494,0.985718,-0.427246,5.371094,5.310059
12617,-0.089233,0.033325,0.945923,-1.098633,5.432129,6.042480
12629,-0.092163,-0.036743,0.992187,-0.366211,6.896973,7.934570
12638,-0.056885,-0.021362,1.026123,-0.549316,7.324219,9.277344
12648,-0.059448,-0.077026,0.974854,-0.305176,7.568359,10.009766
12658,-0.047974,-0.112183,0.945190,-0.305176,7.446289,10.620117
12667,-0.049316,-0.111206,0.960693,-0.549316,7.324219,11.779785
12678,-0.036011,-0.059692,0.942627,-0.793457,7.202148,12.084961
12687,-0.080322,-0.030640,1.008667,-1.403809,6.958008,12.512207
12699,-0.080322,-0.000366,1.089355,-0.732422,7.141113,13.122559
12709,-0.051758,-0.057983,1.070435,-0.183105,7.507324,14.099121
12718,-0.043945,-0.054810,1.093018,0.305176,7.141113,14.343262
12727,0.012817,-0.033203,1.085815,0.610352,6.103516,14.221191
12738,0.037109,-0.072754,1.019531,0.915527,5.065918,14.953613
12747,0.120728,-0.047363,0.974487,1.220703,4.577637,15.991211
12760,0.138062,-0.065308,1.027100,1.220703,3.479004,18.920898
12769,0.120361,-0.062866,1.063843,1.159668,2.746582,19.897461
12778,0.095459,-0.104004,1.041138,1.159668,2.258301,20.202637
12787,0.116943,-0.142090,1.030640,1.281738,1.647949,19.470215
12798,0.017212,-0.145264,1.021973,0.793457,0.061035,17.211914
12807,0.038696,-0.078369,1.047607,0.427246,-1.525879,14.404297
12818,0.035400,-0.042358,1.054077,0.366211,-2.441406,12.023926
12830,0.049438,-0.130005,0.958618,0.549316,-3.601074,8.178711
12839,0.022461,-0.217773,0.850220,0.427246,-4.211426,7.141113
12849,0.029785,-0.297119,0.779297,0.061035,-4.699707,5.798340
12858,0.055542,-0.181641,0.752441,-1.403809,-4.821777,4.821777
12868,0.090088,-0.135620,0.786377,-2.441406,-5.310059,3.417969
12878,0.051514,-0.144287,0.841553,-3.112793,-6.164551,2.380371
12888,0.025391,-0.022827,0.835449,-3.295898,-6.103516,1.770020
12900,-0.026855,-0.187866,1.034180,-2.807617,-5.859375,1.342773
12910,0.006958,-0.138062,0.956909,-2.746582,-5.920410,0.427246
12919,-0.056763,-0.222900,0.926758,-2.380371,-6.164551,-0.427246
12929,-0.008911,-0.244263,0.925903,-2.319336,-6.286621,-1.525879
12939,-0.033569,-0.048950,0.941772,-2.807617,-5.920410,-2.075195
12949,-0.023437,-0.059570,1.024780,-2.685547,-5.920410,-2.197266
12958,-0.061401,-0.184448,1.055054,-2.319336,-5.249023,-1.953125
12970,-0.019653,-0.072754,1.196655,-3.112793,-3.967285,-2.380371
12980,-0.049316,-0.091675,1.218506,-2.685547,-4.150391,-3.784180
12990,0.036865,-0.068359,1.112305,-2.197266,-4.455566,-5.432129
12999,0.039795,-0.138794,1.068359,-1.770020,-5.004883,-6.652832
13009,0.109131,-0.151123,1.135132,-1.831055,-5.676270,-7.812500
13018,0.090576,-0.017578,1.089355,-2.685547,-5.798340,-8.361816
13028,0.077759,0.005127,1.031494,-3.173828,-5.554199,-8.117676
13038,0.118774,-0.058350,1.024658,-3.417969,-4.272461,-7.324219
13049,0.150024,0.036377,1.069824,-3.845215,-4.333496,-6.958008
13059,0.141479,-0.025757,1.046875,-3.601074,-4.943848,-7.263184
13069,0.104736,-0.088867,1.038940,-3.356934,-5.432129,-7.690430
13078,0.087891,-0.028687,1.005615,-3.784180,-5.798340,-8.361816
13088,0.103149,0.032471,0.994263,-4.028320,-5.920410,-8.911133
13099,0.029419,-0.003174,0.949951,-2.929688,-5.432129,-9.094238
13109,-0.068970,-0.065430,0.849731,-2.136230,-4.760742,-8.728027
13119,-0.048096,-0.140503,0.829224,-1.525879,-4.089355,-8.300781
13128,-0.104126,-0.131470,0.844604,-1.098633,-3.601074,-8.239746
13138,-0.105713,-0.070557,0.879883,-0.854492,-3.112793,-8.361816
13148,-0.135376,-0.050293,0.886963,-0.671387,-2.197266,-7.873535
13158,-0.085083,-0.046265,0.913208,-0.549316,-1.342773,-7.080078
13168,-0.051147,-0.050659,0.932617,-0.183105,-0.305176,-5.920410
13178,-0.015503,-0.112915,0.895264,0.610352,0.793457,-3.295898
13188,-0.046021,-0.127808,0.871582,0.427246,1.220703,-2.136230
13198,-0.007568,-0.165405,0.937622,-0.122070,1.647949,-1.342773
13208,0.019775,-0.134888,0.990356,-1.037598,1.403809,-1.464844
13218,-0.038696,-0.090698,1.002319,-1.770020,1.098633,-1.525879
13228,-0.075928,-0.084473,1.024780,-1.831055,1.098633,-1.159668
13239,-0.140137,-0.111206,1.004517,-1.159668,2.807617,0.122070
13249,-0.053833,-0.090576,1.109009,-0.976562,3.662109,0.915527
13259,-0.041626,-0.126587,1.123901,-0.610352,3.906250,1.464844
13268,-0.050049,-0.114014,1.020264,-0.183105,4.028320,1.708984
13278,-0.031860,-0.081055,0.999878,-0.488281,4.394531,2.319336
13288,-0.017456,-0.121216,1.062622,-0.610352,4.577637,2.746582
13298,-0.052612,-0.056641,1.026855,-1.281738,4.516602,2.807617
13310,0.002686,-0.059570,0.990356,-2.258301,4.638672,3.173828
13319,-0.020874,-0.055298,0.903198,-2.624512,4.211426,3.173828
13329,-0.067505,-0.080688,0.918091,-2.502441,4.455566,3.295898
13338,0.004883,-0.101807,0.824829,-2.380371,4.272461,3.662109
13349,-0.000977,-0.195435,0.724731,-2.685547,4.150391,4.211426
13358,0.141724,-0.121094,0.749512,-3.784180,4.211426,5.004883
13369,0.141113,-0.036743,0.949341,-4.943848,4.272461,6.469727
13378,0.122437,-0.019653,1.049561,-5.249023,3.295898,7.507324
13388,0.060181,-0.038330,1.081909,-4.150391,3.356934,8.239746
13399,0.073364,-0.142212,1.059570,-3.967285,2.441406,7.263184
13408,0.022705,-0.176636,0.984619,-3.784180,1.098633,5.981445
13418,0.095459,-0.144653,0.975098,-3.540039,0.671387,4.943848
13428,0.074585,-0.147949,1.023926,-3.295898,0.549316,5.004883
13438,0.054932,-0.086792,1.082397,-2.746582,0.122070,4.333496
13450,0.071167,-0.112549,1.055420,-1.647949,-0.488281,3.356934
13459,0.047241,-0.150757,0.975708,-1.831055,-0.732422,2.258301
13469,0.024902,-0.132690,0.998413,-1.953125,-1.098633,1.220703
13478,-0.029297,-0.201050,1.026123,-1.525879,-1.708984,-0.366211
13488,-0.037109,-0.167358,0.943604,-1.464844,-1.464844,-1.647949
13498,-0.032349,-0.153809,0.880737,-1.953125,-1.281738,-1.770020
13508,-0.084839,-0.105225,0.922485,-2.502441,-1.281738,-2.014160
13518,-0.145874,-0.009766,0.982422,-3.662109,-0.854492,-2.075195
13530,-0.084595,0.001953,1.038086,-4.333496,1.342773,-0.122070
13540,-0.089722,0.048340,1.093384,-4.577637,2.014160,0.793457
13549,-0.138916,0.101196,1.106079,-4.333496,2.624512,1.831055
13558,-0.079956,0.071777,1.090332,-3.845215,3.051758,2.685547
13569,-0.074463,-0.032471,1.054688,-3.295898,3.662109,3.173828
13579,-0.032715,-0.022827,1.066895,-3.112793,3.601074,3.967285
13588,-0.001953,0.026733,1.067139,-2.563477,3.784180,5.004883
13600,0.030151,-0.085327,0.983398,-0.915527,3.845215,7.202148
13609,0.046143,-0.002197,0.977539,-0.732422,3.784180,8.605957
13618,0.058716,-0.012085,0.964233,-0.122070,3.295898,9.582520
13629,0.048828,-0.094238,0.932129,0.549316,2.502441,10.437012
13638,0.077026,-0.132568,0.864990,0.793457,1.953125,10.986328
13649,0.063232,-0.188965,0.851685,0.671387,1.708984,12.268066
13661,0.057739,0.043213,1.000732,-0.671387,0.915527,12.939453
13670,0.076294,0.023071,1.042725,-0.427246,0.427246,13.122559
13680,-0.015015,-0.119385,0.999390,0.610352,0.061035,12.878418
13689,0.024536,-0.101318,0.980713,1.281738,-0.671387,11.840820
13699,0.016846,-0.147705,0.999756,1.831055,-0.854492,10.742188
13708,0.082764,-0.243530,0.990967,2.014160,-1.953125,8.605957
13719,0.064453,-0.176147,0.925049,1.220703,-3.051758,6.408691
13728,0.096558,-0.141113,0.849609,0.488281,-4.089355,3.723145
13740,0.028442,-0.031250,0.965576,-1.220703,-4.882812,2.624512
13750,0.031372,-0.027588,1.036255,-1.220703,-5.249023,1.831055
13760,-0.018433,-0.204102,1.053467,-0.427246,-5.065918,1.403809
13770,0.046753,-0.100586,1.004761,0.061035,-4.333496,0.305176
13779,0.010864,-0.174194,1.066040,0.549316,-5.004883,-1.159668
13789,0.006714,-0.322021,1.105835,1.464844,-5.737305,-2.929688
13799,-0.005005,-0.117432,1.001221,1.647949,-6.225586,-5.676270
13809,0.002563,-0.207886,0.994019,1.098633,-5.920410,-5.920410
13819,0.025513,-0.112427,0.995361,0.061035,-5.310059,-5.737305
13829,-0.033813,-0.141357,1.056763,-0.061035,-4.394531,-4.394531
13839,-0.011230,-0.063232,0.960083,-0.305176,-3.845215,-3.906250
13849,-0.017334,-0.123535,1.011841,-0.366211,-3.417969,-3.479004
13858,-0.083740,-0.126465,1.023193,-0.610352,-3.723145,-3.417969
13871,-0.045410,-0.152832,1.014526,-0.732422,-2.685547,-3.906250
13881,-0.008667,-0.107544,0.943970,-0.915527,-2.014160,-3.784180
13890,-0.004639,-0.087769,0.982056,-1.403809,-1.831055,-3.784180
13900,0.025269,-0.071167,1.073975,-2.197266,-1.831055,-3.234863
13909,0.039185,0.008545,1.115601,-2.990723,-1.586914,-2.868652
13919,0.037354,-0.030151,1.055054,-3.051758,-0.854492,-2.258301
13929,0.075806,-0.152344,1.077148,-2.929688,-1.037598,-1.953125
13941,0.048828,-0.015747,0.972534,-3.173828,-0.976562,-2.441406
13951,0.044312,-0.015381,1.074585,-2.868652,-1.342773,-2.868652
13960,0.054810,-0.042358,1.072021,-2.563477,-2.075195,-3.906250
13970,-0.004272,-0.062134,1.013672,-2.014160,-2.502441,-4.638672
13979,-0.003174,-0.088745,0.935425,-1.220703,-2.197266,-4.455566
13989,0.003296,-0.056519,0.982666,-0.732422,-1.953125,-4.516602
13999,-0.049438,-0.033447,1.013916,-0.427246,-1.770020,-4.516602
14011,-0.100952,0.173706,1.250000,-0.488281,-0.488281,-3.906250
14021,-0.103271,-0.019775,1.101318,0.183105,-0.122070,-3.112793
14031,-0.137573,-0.043945,1.040894,1.525879,0.549316,-2.502441
14040,-0.090820,-0.447021,0.620239,2.563477,0.793457,-2.502441
14050,-0.050903,-0.547852,0.487793,2.014160,1.464844,-2.075195
14059,0.044800,-0.192749,0.671875,-2.136230,1.525879,-1.464844
14069,0.027466,0.327393,0.995361,-5.737305,1.342773,-0.915527
14080,-0.034424,0.023071,0.913330,-5.615234,1.586914,2.502441
14090,-0.066895,-0.301758,0.900757,-2.319336,3.417969,3.662109
14100,-0.122803,-0.091553,1.116943,-3.601074,3.662109,3.540039
14109,-0.180786,0.112061,1.292480,-3.784180,3.540039,2.441406
14118,-0.163940,0.005005,1.158691,-1.892090,3.601074,1.525879
14129,-0.094482,-0.145508,0.911499,0.488281,3.906250,0.854492
14141,0.014282,-0.207275,0.884766,1.586914,4.272461,0.488281
14150,0.050903,-0.092407,1.139648,0.610352,3.662109,0.183105
14161,0.128540,-0.055908,0.983276,0.366211,3.479004,0.976562
14170,0.105957,-0.264526,0.806641,1.220703,3.723145,2.075195
14180,0.103271,-0.278809,0.869263,1.403809,3.784180,2.868652
14189,0.094482,-0.140137,1.144897,0.183105,3.173828,2.868652
14199,0.037598,-0.169678,1.284302,-0.122070,2.319336,1.831055
14209,-0.028076,-0.075073,1.029297,-0.061035,1.831055,0.854492
14221,-0.028320,-0.407471,0.842651,0.793457,2.136230,-0.305176
14230,0.047241,-0.246826,0.813721,-0.122070,1.586914,-1.342773
14240,0.095581,-0.254395,0.852783,-2.197266,1.220703,-1.586914
14249,0.124756,0.031006,0.810181,-4.699707,1.342773,-1.525879
14259,0.099731,-0.179565,0.753540,-5.371094,1.403809,-0.854492
14269,0.115845,-0.070801,0.780518,-6.408691,1.281738,0.183105
14280,0.065674,0.180054,0.964233,-6.958008,0.488281,-0.549316
14290,-0.002197,0.103149,1.046021,-7.812500,0.610352,-1.037598
14300,0.021729,0.292847,1.151733,-6.347656,0.610352,-1.220703
14310,0.050415,-0.003784,1.179199,-2.563477,0.854492,-0.183105
14319,0.026489,-0.181274,1.048096,-0.061035,0.793457,0.244141
14329,0.001709,-0.253662,1.096436,0.915527,0.488281,0.244141
14340,-0.055298,-0.228271,1.128784,0.610352,0.610352,0.610352
14349,-0.004272,-0.074829,0.988037,-0.488281,0.488281,0.183105
14359,-0.014893,-0.040649,0.984619,-0.793457,1.220703,1.953125
14371,-0.064209,-0.034302,0.942139,-0.671387,1.953125,3.479004
14380,-0.042358,-0.054321,1.034424,-0.549316,2.197266,4.150391
14389,-0.149902,-0.163208,1.099243,-0.427246,2.319336,4.455566
14399,-0.093750,-0.117920,1.020264,-0.732422,2.685547,4.577637
14409,-0.107300,-0.026001,0.979126,-1.220703,3.356934,4.455566
14419,-0.045288,-0.130249,1.010864,-0.976562,3.601074,5.004883
14431,-0.069336,-0.154175,0.992065,-0.915527,3.540039,4.943848
14440,-0.070923,-0.115234,0.948730,-2.990723,3.845215,5.676270
14449,-0.006714,-0.028198,0.914917,-3.601074,4.455566,6.408691
14459,-0.019531,-0.073364,0.855713,-3.784180,4.516602,7.141113
14469,0.001221,-0.088379,0.840210,-3.479004,4.333496,7.568359
14480,0.001465,-0.061035,0.871826,-3.295898,3.845215,7.629395
14489,0.031006,-0.018188,0.886108,-3.417969,3.723145,8.361816
14501,0.064331,0.065552,0.933105,-3.356934,3.295898,10.925293
14510,0.107910,0.117798,0.995972,-2.441406,3.051758,12.451172
14519,0.052124,0.092651,1.037109,-1.403809,2.685547,13.916016
14529,0.044678,0.010986,1.030029,-0.122070,2.441406,14.831543
14539,0.020508,-0.090698,0.996704,0.793457,2.441406,15.869141
14550,0.032715,-0.119873,0.959351,1.525879,2.563477,15.869141
14559,0.021484,-0.113770,0.976074,2.075195,1.403809,14.587402
14570,0.002319,-0.268555,0.841187,2.685547,-15.502930,11.230469
14580,0.039795,-0.345947,0.763428,1.708984,-1.831055,9.338379
14590,-0.008911,-0.183960,0.816772,-0.122070,-2.563477,7.202148
14599,0.028442,-0.092285,0.846191,-1.647949,-3.234863,5.432129
14610,0.008667,-0.186646,0.943604,-2.197266,-3.356934,4.638672
14619,-0.024902,-0.142456,1.035645,-2.990723,-3.173828,3.540039
14629,-0.042236,-0.011719,1.180054,-3.723145,-2.868652,3.051758
14641,0.026245,-0.206299,1.130859,-2.502441,-2.624512,1.281738
14650,0.059326,-0.128540,1.094238,-2.502441,-3.112793,-0.427246
14660,0.103271,-0.206543,1.145020,-2.441406,-3.906250,-1.892090
14669,0.106567,-0.030273,1.030396,-2.929688,-4.394531,-2.990723
14679,0.032104,-0.044800,0.997681,-3.295898,-5.126953,-3.601074
14690,0.002319,-0.139038,0.970581,-3.295898,-4.699707,-3.173828
14699,0.061523,-0.033081,0.936523,-3.845215,-3.234863,-0.244141
14711,0.055664,0.070068,1.141724,-3.967285,-3.173828,0.000000
14720,0.000122,-0.015259,1.108032,-2.868652,-3.417969,0.183105
14730,-0.032715,-0.025635,1.032104,-1.525879,-3.417969,0.671387
14740,-0.028809,-0.129395,0.968506,-0.366211,-3.540039,0.427246
14749,-0.053223,-0.254272,0.931396,0.122070,-3.356934,0.610352
14760,-0.036377,-0.215454,0.744507,-0.244141,-3.417969,0.671387
14769,0.024292,-0.236206,0.654907,-1.403809,-2.929688,1.342773
14781,0.040039,-0.158813,0.700317,-5.310059,-2.136230,2.197266
14790,-0.026245,0.067505,0.972534,-7.019043,-2.197266,1.770020
14800,0.021240,0.131348,1.251953,-7.019043,-2.319336,1.037598
14809,-0.042114,-0.020508,1.150024,-6.103516,-2.258301,0.122070
14820,0.002930,-0.066772,1.026733,-5.432129,-2.197266,-0.488281
14830,-0.029907,-0.022583,1.166138,-4.821777,-2.014160,-1.464844
14839,-0.049072,0.033447,1.257446,-3.906250,-2.319336,-3.112793
14851,0.006470,-0.162842,0.931030,-1.281738,-2.746582,-5.859375
14860,0.044800,-0.138062,0.936523,-0.732422,-2.746582,-7.019043
14870,0.039917,-0.071289,1.002197,-0.976562,-2.929688,-7.507324
14879,0.096436,-0.029419,1.000854,-1.464844,-2.563477,-7.385254
14890,0.041626,-0.074829,0.900391,-2.014160,-2.136230,-6.530762
14900,0.038940,-0.023804,0.948364,-2.807617,-2.075195,-5.737305
14910,-0.046875,0.085937,1.073364,-2.502441,-1.586914,-4.272461
14919,-0.021606,0.136719,1.129272,-1.525879,-0.854492,-3.784180
14930,0.027710,-0.086670,1.130493,-0.305176,-0.305176,-2.929688
14940,-0.006836,-0.102661,1.118286,0.305176,-0.122070,-2.319336
14950,-0.010864,-0.085693,1.083008,0.305176,-0.122070,-2.380371
14960,-0.001953,-0.106934,1.046997,0.549316,-0.183105,-2.258301
14970,0.014404,-0.136597,1.027344,0.854492,0.061035,-2.441406
14979,-0.029175,-0.147705,0.984741,0.793457,-0.061035,-2.319336
14991,-0.035034,0.026611,1.078491,0.915527,0.915527,-1.281738
15001,-0.037109,0.024048,1.076416,1.525879,1.159668,-0.427246
15010,-0.040771,-0.036987,1.049561,2.502441,2.075195,0.610352
15019,-0.087158,-0.071045,0.988159,3.784180,2.319336,1.220703
15030,-0.032959,-0.062256,0.959106,4.882812,2.746582,1.342773
15039,-0.008179,-0.069458,0.955566,5.798340,2.929688,1.525879
15052,-0.021606,-0.090820,0.885498,5.798340,2.380371,1.342773
15061,0.018066,-0.164917,0.813843,5.432129,2.685547,2.136230
15071,-0.020020,-0.206909,0.869019,4.699707,2.746582,2.807617
15081,-0.045654,-0.079956,0.892334,3.784180,2.990723,2.807617
15090,-0.016968,-0.104614,0.925781,3.112793,2.746582,3.295898
15100,-0.053833,-0.230347,0.948853,3.173828,2.868652,3.723145
15110,-0.021606,-0.099854,0.936768,2.319336,3.295898,3.906250
15120,-0.021851,-0.132080,1.078857,1.892090,3.295898,3.540039
15129,-0.021362,-0.235596,1.083740,2.136230,3.112793,2.868652
15140,0.050659,-0.210327,0.959229,1.647949,2.868652,2.746582
15149,0.057617,-0.227905,1.002563,1.342773,2.807617,2.868652
15160,0.092407,-0.136719,0.944214,0.549316,2.319336,2.624512
15169,0.101563,-0.103149,1.061646,-0.061035,2.075195,2.990723
15180,0.077393,-0.098633,1.109619,-0.732422,2.014160,3.601074
15189,0.066406,-0.046143,1.021484,-1.098633,2.014160,4.272461
15201,0.042236,-0.188232,1.002808,-0.915527,1.159668,4.150391
15210,0.044189,-0.109741,0.953857,-1.159668,0.854492,3.662109
15220,0.132690,-0.073975,0.977173,-1.647949,0.671387,3.906250
15229,0.068115,-0.138306,1.041626,-2.197266,0.305176,3.845215
15240,0.014526,-0.058838,0.997192,-3.173828,-0.671387,3.540039
15250,-0.027954,0.015259,0.935181,-4.028320,-1.037598,3.540039
15259,-0.080444,-0.062988,1.038208,-3.845215,-0.305176,4.638672
15271,-0.046997,0.071899,1.086182,-5.065918,1.037598,4.516602
15280,-0.078857,0.067505,1.078491,-5.187988,1.281738,4.638672
15290,-0.045776,-0.014160,1.037842,-5.249023,1.770020,4.455566
15300,0.000977,0.061157,1.066406,-5.432129,1.525879,3.906250
15310,0.003296,0.130615,1.076050,-5.065918,1.281738,3.417969
15319,-0.008789,0.032715,1.134399,-4.333496,1.037598,3.234863
15332,0.030151,-0.055176,1.090454,-2.319336,1.525879,3.906250
15342,0.058960,-0.067749,1.072144,-1.647949,1.159668,3.723145
15351,0.067505,-0.094604,1.046753,-0.854492,1.037598,3.784180
15361,0.072388,-0.165039,0.932007,-0.183105,0.366211,4.211426
15370,0.069580,-0.162598,0.896606,-0.244141,-0.305176,4.394531
15380,0.059204,-0.059814,0.937378,-1.037598,-0.488281,5.004883
15390,0.061157,0.043335,0.991699,-1.037598,-0.427246,6.103516
15399,0.049927,0.007446,0.952148,-0.366211,-0.244141,9.521484
15411,0.041870,-0.173462,0.932983,0.610352,0.549316,10.559082
15420,0.032715,-0.094360,1.008789,0.183105,-0.183105,9.582520
15430,0.020508,-0.075806,1.058228,0.061035,-0.915527,8.544922
15439,0.019531,-0.112305,1.009399,0.122070,-1.586914,7.202148
15450,0.026489,-0.168945,0.933228,0.305176,-2.319336,5.615234
15460,0.032349,-0.147217,0.952881,0.183105,-2.136230,4.882812
15472,0.067383,-0.124268,1.043091,0.061035,-3.417969,2.868652
15482,0.020508,-0.094727,1.030640,-0.061035,-3.723145,2.746582
15491,0.045044,-0.084717,0.951782,0.000000,-3.967285,2.441406
15500,0.010254,-0.172241,0.860352,0.366211,-3.967285,2.380371
15510,0.021240,-0.228516,0.847168,0.610352,-3.662109,2.868652
15520,0.007690,-0.144409,0.836914,-0.427246,-3.784180,2.746582
15530,0.028320,-0.046143,0.897339,-1.525879,-4.333496,2.563477
15540,-0.031372,-0.062744,0.966553,-2.075195,-3.601074,4.333496
15551,-0.101685,-0.139893,0.962769,-2.014160,-3.234863,5.432129
15561,-0.094482,-0.246094,1.057739,-1.647949,-2.319336,6.225586
15570,-0.101807,-0.103882,1.048584,-2.502441,-2.319336,5.615234
15580,-0.070679,-0.179077,1.029175,-2.685547,-2.319336,5.065918
15590,-0.051514,-0.117310,1.002441,-2.746582,-2.380371,4.211426
15599,-0.062744,-0.024292,1.028198,-2.929688,-2.807617,3.784180
15612,-0.030029,-0.134277,1.096924,-2.990723,-1.953125,4.516602
15622,0.006470,-0.065186,1.059814,-3.234863,-1.831055,5.126953
15631,-0.028198,-0.101196,1.031982,-2.868652,-1.831055,5.310059
15641,-0.019653,-0.094727,1.007568,-2.868652,-1.586914,5.737305
15650,0.009521,-0.057861,0.942505,-3.051758,-2.014160,5.554199
15660,0.041260,-0.033447,1.031006,-2.990723,-2.380371,4.821777
15670,0.087646,-0.046021,1.070801,-3.356934,-2.929688,4.150391
15680,0.044922,0.041504,1.004150,-3.601074,-3.784180,3.417969
15691,0.088501,-0.031494,1.009888,-3.051758,-3.417969,3.723145
15701,0.135010,-0.039673,1.049072,-2.990723,-3.540039,3.784180
15710,0.062134,-0.020386,1.023438,-2.807617,-4.699707,3.112793
15720,0.051880,-0.037109,1.006958,-2.685547,-5.493164,2.380371
15730,0.039673,-0.096191,1.008789,-2.258301,-6.347656,1.708984
15740,0.025391,-0.084595,0.973022,-1.892090,-6.774902,1.098633
15752,0.004395,-0.060425,1.046509,-1.037598,-6.835937,-0.488281
15762,-0.034912,-0.054443,1.025269,-0.122070,-7.019043,-1.586914
15771,-0.067749,-0.124512,0.997681,1.098633,-6.958008,-3.112793
15781,-0.034302,-0.235352,0.958740,2.319336,-6.652832,-4.516602
15791,-0.001099,-0.291382,0.859619,2.441406,-6.774902,-6.347656
15801,0.059448,-0.251953,0.761841,1.464844,-7.263184,-7.873535
15810,0.045166,-0.161011,0.748291,-0.061035,-7.385254,-8.850098
15820,0.064331,-0.076782,0.766724,-1.586914,-7.019043,-9.765625
15831,0.021484,0.037354,0.906860,-2.441406,-6.652832,-9.765625
15841,-0.024170,-0.060791,0.935547,-2.197266,-6.469727,-10.314941
15851,-0.017944,-0.084839,0.931641,-2.075195,-5.798340,-10.559082
15860,-0.053223,-0.043701,0.983032,-2.319336,-5.249023,-10.559082
15870,-0.034424,0.011230,1.026978,-2.441406,-5.126953,-10.498047
15880,0.013550,-0.028076,0.980103,-2.075195,-4.516602,-10.314941
15892,0.024780,-0.074341,0.923340,-1.342773,-3.540039,-8.850098
15902,0.026733,-0.050415,0.996338,-1.770020,-3.112793,-8.056641
15912,0.013916,0.018677,1.029663,-1.831055,-2.990723,-7.873535
15922,-0.020996,-0.049072,0.984619,-1.770020,-3.051758,-7.629395
15932,0.022217,-0.127197,0.923828,-1.464844,-2.380371,-6.958008
15941,-0.009277,-0.100342,0.972778,-1.586914,-1.831055,-6.652832
15951,-0.016602,-0.121460,1.031860,-2.014160,-1.831055,-6.225586
15961,-0.007813,-0.119019,1.034302,-2.380371,-1.647949,-5.859375
15971,0.066284,-0.088257,1.181152,-2.685547,-1.525879,-5.249023
15981,0.101318,-0.012207,1.242920,-2.868652,-1.342773,-4.394531
15990,0.025513,-0.118286,1.231567,-2.563477,-1.220703,-3.845215
16000,0.017578,-0.249512,1.133179,-2.075195,-1.464844,-3.906250
16010,-0.014160,-0.244141,0.879639,-2.014160,-1.342773,-4.455566
16020,0.095825,-0.242554,0.847656,-2.563477,-1.342773,-5.065918
16030,0.130981,-0.214233,0.838623,-5.249023,-2.685547,-5.859375
16040,0.181763,0.003418,1.027100,-5.920410,-2.990723,-5.432129
16050,0.078369,-0.097046,1.080200,-5.126953,-3.051758,-4.760742
16063,-0.010864,-0.071899,1.005493,-4.577637,-2.624512,-4.272461
16073,0.007690,-0.107666,0.997437,-3.601074,-1.708984,-4.882812
16082,-0.079712,-0.157349,1.043823,-3.601074,-1.708984,-4.882812
16091,-0.071899,-0.022583,1.071045,-2.624512,-2.502441,-6.042480
16101,-0.023926,-0.038696,0.919922,-1.647949,-1.953125,-5.615234
16111,-0.035522,-0.095093,0.972168,-1.403809,-1.586914,-5.249023
16121,-0.080566,-0.032349,0.951172,-1.708984,-1.342773,-4.943848
16130,-0.053589,-0.020142,0.990479,-2.075195,-0.671387,-4.699707
16140,-0.060425,-0.112671,1.003174,-1.953125,-0.122070,-4.333496
16150,-0.068604,-0.124756,1.028198,-2.380371,0.122070,-4.455566
16160,-0.075073,-0.035400,1.086548,-2.807617,0.549316,-5.187988
16172,-0.086060,-0.057007,1.100952,-1.831055,2.136230,-5.371094
16182,-0.089355,-0.078125,1.075439,-1.342773,2.136230,-6.225586
16192,-0.052124,-0.118652,1.075439,-0.732422,2.441406,-6.469727
16201,-0.094971,-0.046631,1.045044,-0.366211,2.563477,-6.958008
16211,0.008179,-0.061890,1.085327,0.183105,2.929688,-6.896973
16221,0.001587,-0.111328,1.086304,0.793457,3.479004,-6.042480
16230,0.062012,-0.172729,0.988037,0.976562,3.662109,-5.737305
16240,0.054321,-0.238037,0.907959,-15.258789,3.662109,-3.479004
16252,0.101318,-0.057129,0.875977,-2.380371,3.051758,-2.197266
16261,0.101929,-0.010742,0.900146,-3.173828,2.685547,-0.427246
16271,0.053101,0.083984,0.883179,-3.662109,2.746582,1.403809
16280,0.010254,0.086426,0.894531,-3.295898,2.807617,2.929688
16290,0.021240,-0.048706,0.968018,-2.197266,3.417969,4.394531
16300,0.007813,-0.058960,0.994995,-1.403809,3.173828,4.516602
16310,0.044556,-0.010620,1.036865,-1.525879,2.441406,3.967285
16321,0.001343,-0.086548,0.840576,-1.586914,1.464844,2.929688
16330,-0.056641,-0.089966,0.810181,-1.831055,1.586914,2.868652
16340,0.008911,-0.048828,0.783081,-2.441406,1.831055,2.441406
16351,-0.018433,-0.004639,0.829956,-3.234863,1.525879,2.258301
16360,-0.027954,-0.045776,0.895020,-3.479004,1.037598,2.624512
16370,-0.084717,-0.019775,0.853516,-3.967285,0.976562,2.929688
16382,-0.070679,-0.130615,1.028320,-4.028320,1.525879,4.821777
16391,-0.009277,0.080688,1.123291,-4.699707,2.197266,5.432129
16401,-0.070312,0.027832,1.124878,-3.967285,2.014160,6.225586
16410,-0.041748,-0.191895,1.059570,-2.624512,1.586914,7.019043
16420,-0.086182,-0.152344,0.970215,-2.075195,1.770020,6.958008
16430,-0.063354,-0.170410,1.079468,-1.953125,1.892090,6.896973
16440,-0.049805,-0.104736,1.239258,-1.953125,1.831055,6.164551
16452,-0.026123,-0.231812,1.022827,-1.159668,1.220703,4.211426
16462,-0.042358,-0.218384,1.075562,-1.708984,1.281738,3.417969
16471,0.048828,-0.161499,1.122192,-2.136230,0.732422,2.136230
16480,0.013062,-0.094849,1.211182,-2.502441,0.549316,1.831055
16490,0.059570,-0.059326,1.186768,-2.746582,0.305176,0.976562
16500,0.041382,-0.059448,1.120972,-2.624512,0.427246,1.098633
16512,0.017090,-0.161987,0.984619,-1.586914,0.183105,0.610352
16521,0.060791,-0.218628,0.846924,-2.380371,-0.244141,0.366211
16531,0.081909,-0.112671,0.814819,-3.845215,-0.854492,0.061035
16540,0.048462,-0.035400,0.790161,-4.699707,-1.525879,-0.549316
16550,0.021851,-0.031006,0.775391,-5.004883,-2.075195,-0.976562
16561,-0.007568,-0.007568,0.820801,-5.310059,-2.075195,-1.037598
16571,0.003662,0.043945,0.953125,-5.432129,-1.647949,-0.732422
16580,0.022339,0.051758,1.108521,-5.126953,-1.281738,-0.671387
16592,0.015015,-0.052490,1.085449,-2.929688,-1.586914,-0.732422
16602,-0.039673,-0.098022,1.055420,-1.342773,-1.647949,-0.915527
16611,-0.010010,-0.119873,1.097290,-0.061035,-1.953125,-2.014160
16621,0.002686,-0.138184,1.093262,1.159668,-2.380371,-3.417969
16631,0.025635,-0.150879,1.018433,2.075195,-2.929688,-4.821777
16640,0.055176,-0.172119,1.035278,2.502441,-2.868652,-5.432129
16650,0.023437,-0.161621,0.984985,2.624512,-2.807617,-5.554199
16662,-0.024658,-0.165527,0.983276,2.685547,-1.953125,-5.798340
16671,-0.050903,-0.147583,1.091064,2.258301,-1.770020,-5.981445
16681,-0.021484,-0.075928,1.204346,1.892090,-1.647949,-6.225586
16690,-0.111450,-0.030884,1.183716,1.708984,-1.403809,-6.103516
16701,-0.104980,-0.064209,1.082764,2.197266,-0.610352,-5.981445
16711,-0.078125,-0.098877,1.080078,2.685547,0.366211,-5.798340
16720,-0.015381,-0.124878,1.055298,2.624512,0.732422,-5.554199
16732,-0.001343,-0.065796,0.937866,1.647949,0.732422,-4.699707
16742,0.020630,0.034180,0.961182,0.915527,1.403809,-3.417969
16751,0.036255,0.017334,0.927002,0.305176,1.647949,-2.014160
16760,0.034058,-0.001587,0.932983,-0.061035,1.220703,-1.159668
16771,-0.053345,0.040283,0.948242,-0.244141,1.342773,-0.793457
16780,-0.021973,0.104492,0.935669,-0.244141,1.708984,-0.488281
16790,-0.030151,0.065796,0.922485,0.549316,1.892090,-0.061035
16802,-0.004639,-0.028076,0.911255,1.586914,1.525879,-1.586914
16811,0.004272,-0.126831,0.936768,2.319336,1.586914,-1.708984
16821,0.008545,-0.209351,0.960205,1.953125,1.464844,-1.831055
16830,0.036743,-0.102783,0.894653,1.037598,1.525879,-1.770020
16841,0.015625,-0.110718,0.901733,0.244141,1.464844,-1.586914
16851,0.002197,-0.176636,0.953979,0.061035,1.220703,-1.708984
16860,0.034302,-0.077515,0.888916,-0.183105,1.770020,-1.525879
16872,0.002563,-0.217041,1.045532,-0.183105,1.586914,-2.136230
16881,0.086304,-0.107666,1.014160,-0.061035,1.159668,-2.746582
16890,0.045166,-0.274658,0.968872,0.305176,1.159668,-3.112793
16900,0.101440,-0.262329,0.978760,-0.183105,0.793457,-3.845215
16911,0.112915,-0.105591,1.083008,-1.342773,0.244141,-3.906250
16920,0.081177,-0.168457,1.125854,-1.892090,-0.244141,-3.784180
16930,0.015869,-0.118774,1.018311,-2.258301,-0.488281,-3.967285
16942,0.008545,-0.120361,1.086426,-2.746582,0.244141,-2.990723
16951,0.003906,0.005615,1.165039,-3.234863,0.244141,-3.356934
16961,0.022583,-0.010254,1.162231,-3.112793,0.366211,-3.173828
16971,0.048950,-0.080811,1.035767,-2.868652,0.671387,-2.929688
16981,0.058594,-0.089844,1.061401,-2.624512,0.183105,-2.685547
16990,0.028809,-0.074951,0.989746,-2.380371,-0.549316,-2.502441
17003,0.011963,-0.081543,1.004150,-1.892090,-0.427246,-1.586914
17012,0.025757,0.009521,1.033691,-2.380371,-0.122070,-1.037598
17022,-0.031372,0.064697,1.009888,-2.685547,0.061035,-0.488281
17031,-0.083496,0.031982,1.023438,-2.685547,0.183105,0.000000
17040,-0.125000,-0.054077,0.996582,-2.197266,0.915527,0.671387
17051,-0.122192,-0.052979,0.878418,-2.014160,1.708984,0.915527
17060,-0.087646,-0.068237,0.777832,-1.708984,2.136230,0.671387
17073,-0.030518,-0.200684,0.709229,-2.258301,2.197266,-0.915527
17082,0.003174,-0.068115,0.805176,-3.417969,2.380371,-0.793457
17092,0.046387,0.033813,0.926147,-4.028320,2.441406,0.488281
17101,0.057861,-0.000610,1.013184,-3.967285,2.563477,2.258301
17111,0.043823,-0.138794,1.015259,-3.356934,2.563477,4.638672
17120,0.004761,-0.130737,1.114624,-2.807617,2.746582,6.469727
17131,0.006470,-0.019531,1.298584,-2.380371,2.868652,7.385254
17140,-0.013184,-0.025391,1.228271,-0.915527,2.197266,7.263184
17152,0.025024,-0.222412,0.991455,2.441406,0.915527,5.920410
17161,0.100830,-0.238770,0.921143,2.624512,0.488281,4.943848
17171,0.147949,-0.262939,0.883789,2.136230,-0.366211,4.211426
17180,0.178345,-0.213989,0.836670,1.037598,-0.976562,3.784180
17191,0.123901,-0.074219,0.808105,-0.366211,-1.342773,3.723145
17200,0.135742,0.037109,0.979492,-1.708984,-1.892090,3.417969
17211,-0.034546,0.027100,1.074463,-2.319336,-2.990723,2.197266
17221,-0.124146,-0.094482,1.173096,-1.831055,-2.563477,1.464844
17231,-0.081177,-0.040771,1.188354,-1.708984,-2.441406,0.366211
17241,-0.082275,-0.005859,1.166260,-1.464844,-2.624512,-1.770020
17250,-0.056763,-0.125732,1.093262,-0.610352,-2.929688,-2.441406
17261,0.012573,-0.051392,1.006714,-0.610352,-2.197266,-2.563477
17270,0.072388,-0.094727,0.979858,-0.488281,-1.831055,-1.525879
17280,0.071777,-0.223755,0.984741,-0.488281,-1.953125,-0.488281
17292,0.007446,-0.099731,0.960937,-1.159668,-1.586914,1.586914
17301,-0.052979,-0.071655,1.020264,-1.953125,-1.647949,2.624512
17311,-0.060669,0.084351,1.051025,-2.014160,-2.136230,2.380371
17321,-0.138428,-0.034546,1.067993,-0.366211,-1.831055,2.197266
17330,-0.170166,-0.096558,0.971924,1.525879,-1.586914,2.319336
17341,-0.128174,-0.168823,0.985474,2.380371,-0.915527,2.441406
17351,-0.078247,-0.195679,0.955322,2.563477,-0.122070,2.807617
17362,0.007690,-0.174927,0.746460,0.366211,-0.305176,2.685547
17371,0.022705,-0.110474,0.739258,-1.159668,-0.427246,3.051758
17381,0.030396,-0.085693,0.806519,-2.380371,-0.549316,3.173828
17391,0.016968,-0.092163,1.005371,-3.234863,-0.793457,3.662109
17400,-0.017700,-0.015137,1.108154,-3.845215,-1.464844,3.112793
17411,-0.041382,-0.064819,1.088013,-3.662109,-1.586914,2.685547
17420,0.014282,-0.134277,1.170898,-2.929688,-1.281738,1.525879
17432,-0.013062,-0.012573,1.138794,-1.464844,-1.892090,0.427246
17442,-0.022461,-0.136108,1.058350,-0.488281,-2.441406,-0.854492
17452,0.031128,-0.208252,1.004761,0.122070,-3.112793,-2.197266
17461,0.007813,-0.095703,1.029663,0.122070,-3.295898,-2.929688
17471,-0.003906,-0.067749,1.082642,0.122070,-3.295898,-2.746582
17480,0.041016,-0.050659,1.079224,0.305176,-2.807617,-2.624512
17492,0.017334,-0.100098,1.049072,0.915527,-2.258301,-2.075195
17502,-0.034058,-0.138794,0.989258,0.732422,-3.112793,-3.051758
17511,-0.004150,-0.153320,0.938965,0.366211,-3.601074,-3.723145
17521,0.032349,-0.107178,0.949707,-0.427246,-3.906250,-4.394531
17530,0.095337,-0.052368,0.972046,-1.281738,-3.845215,-4.089355
17541,0.057739,-0.034912,0.956787,-1.831055,-3.540039,-3.173828
17551,0.067505,-0.069580,0.951904,-2.197266,-3.295898,-2.380371
17563,0.016602,-0.072632,0.952026,-2.868652,-2.990723,-2.868652
17573,-0.081909,-0.086426,0.883789,-2.746582,-3.356934,-3.723145
17582,-0.095459,-0.096680,0.909912,-2.563477,-4.028320,-5.310059
17592,-0.074463,0.018066,1.020630,-2.624512,-3.845215,-6.530762
17602,-0.113159,0.060791,1.095093,-2.258301,-3.540039,-6.835937
17611,-0.069458,-0.047852,1.023193,-1.525879,-2.746582,-6.896973
17621,-0.032349,-0.095703,0.923828,-0.671387,-1.586914,-6.652832
17631,0.031372,-0.121094,0.908569,-0.671387,-0.793457,-6.774902
17641,0.048706,-0.173828,0.956299,-1.342773,-1.403809,-7.446289
17651,0.088013,-0.055664,0.919189,-1.647949,-1.831055,-8.178711
17661,0.160767,-0.151855,0.927246,-1.586914,-1.953125,-8.117676
17671,0.157959,-0.056885,0.941528,-2.136230,-2.136230,-8.361816
17680,0.080933,-0.106689,1.017822,-2.319336,-2.563477,-8.911133
17691,0.014893,-0.048706,1.056396,-2.624512,-2.990723,-9.155273
17701,0.055054,-0.059570,1.065552,-2.319336,-2.319336,-8.666992
17712,0.037842,-0.128662,1.141479,-1.586914,-2.563477,-9.277344
17722,0.020752,-0.258301,1.090820,-1.220703,-2.197266,-9.155273
17731,0.054077,-0.232910,0.984375,-1.831055,-1.831055,-9.094238
17741,0.078613,-0.219238,0.941284,-2.868652,-1.831055,-9.704590
17751,0.130981,-0.149658,0.891968,-3.967285,-2.075195,-9.399414
17761,0.175049,-0.082764,0.980713,-4.943848,-2.624512,-9.460449
17773,0.165894,0.081909,1.117920,-5.493164,-2.929688,-8.117676
17783,0.077393,-0.056274,1.175537,-4.394531,-2.685547,-7.751465
17792,0.027954,-0.036133,1.110474,-3.356934,-2.807617,-7.751465
17802,-0.060913,-0.044556,1.035400,-2.258301,-2.746582,-8.056641
17811,-0.048828,-0.105225,0.975586,-1.342773,-2.380371,-8.483887
17821,-0.018066,-0.084717,0.885254,-0.915527,-2.075195,-8.911133
17831,0.068604,-0.058105,0.863281,-0.854492,-1.953125,-8.850098
17840,0.040527,-0.132935,0.878418,-0.671387,-2.624512,-8.483887
17852,-0.036011,-0.112793,0.830933,-1.708984,-2.014160,-7.568359
17861,-0.084229,-0.050293,0.877808,-2.563477,-1.342773,-6.835937
17871,-0.125122,-0.050293,0.942017,-2.807617,-0.793457,-6.835937
17881,-0.166870,0.027222,1.004883,-3.112793,-0.244141,-6.835937
17891,-0.137573,0.033813,1.053955,-2.441406,1.037598,-6.164551
17901,-0.132690,0.002808,1.166992,-1.098633,2.258301,-5.859375
17910,-0.138916,-0.000854,1.175415,0.061035,2.685547,-6.103516
17922,-0.119751,-0.129395,1.101318,2.868652,3.723145,-6.286621
17931,-0.100098,-0.102783,1.191772,3.662109,4.516602,-6.469727
17941,-0.036377,-0.136597,1.228149,3.967285,5.004883,-6.286621
17951,-0.043701,-0.167114,1.132813,4.760742,5.432129,-6.042480
17961,-0.053223,-0.185303,1.058838,5.065918,5.493164,-5.615234
17970,-0.043579,-0.189697,1.013916,4.882812,5.859375,-4.455566
17983,-0.023560,-0.134033,0.829956,3.906250,5.981445,-1.342773
17993,0.046265,-0.148926,0.689697,3.234863,6.347656,1.220703
18003,0.084229,-0.119019,0.667236,2.197266,7.019043,4.455566
18012,0.146973,-0.152832,0.748169,1.159668,7.263184,8.056641
18021,0.118530,-0.083252,0.889160,0.061035,6.652832,10.620117
18031,0.109375,-0.003662,1.076294,-0.671387,5.920410,12.939453
18041,0.083130,0.071289,1.202759,-1.342773,5.554199,14.953613
18051,0.000366,0.090210,1.130371,-1.586914,5.004883,16.052246
18063,-0.134521,-0.020508,1.074341,-0.244141,4.028320,14.892578
18072,-0.119873,-0.020752,1.122559,0.549316,3.601074,13.183594
18082,-0.055176,-0.094238,1.116333,1.464844,2.624512,11.413574
18091,0.011230,-0.067505,1.019043,2.319336,1.892090,9.155273
18101,0.012085,-0.171143,1.045410,2.868652,0.915527,7.446289
18111,0.038330,-0.135498,1.029541,2.563477,0.610352,6.469727
18121,0.014893,-0.108154,0.998901,2.136230,0.366211,6.591797
18132,-0.029541,-0.292725,0.905151,2.502441,0.427246,6.652832
18142,-0.032471,-0.231323,0.949707,1.708984,0.183105,6.469727
18151,-0.081543,-0.237671,1.075439,0.549316,-0.366211,5.798340
18160,-0.082031,-0.187988,1.007813,0.000000,-0.732422,4.882812
18171,-0.033081,-0.313965,0.858154,0.000000,-0.671387,4.394531
18181,-0.056396,-0.373169,0.677734,-1.708984,-0.976562,4.272461
18193,-0.026001,-0.183228,0.707642,-7.080078,-1.281738,3.601074
18203,0.013794,-0.018311,0.875122,-9.582520,-1.281738,3.540039
18212,-0.073853,0.134521,0.976929,-11.169434,-1.464844,3.479004
18222,-0.062012,0.120117,1.142578,-10.986328,-1.220703,3.295898
18231,-0.143799,0.020020,1.158203,-9.277344,-1.220703,2.685547
18241,-0.134521,-0.149658,1.063843,-7.080078,-1.159668,2.075195
18251,-0.078125,-0.130371,1.091797,-5.493164,-0.671387,1.037598
18261,-0.022339,0.028442,1.166504,-2.868652,-1.037598,-1.220703
18271,-0.028931,-0.022583,1.136230,-1.464844,-1.403809,-2.319336
18281,0.037842,-0.142944,0.872803,-1.464844,-1.586914,-3.417969
18291,0.132568,-0.109009,0.894775,-1.770020,-1.403809,-3.784180
18301,0.135254,-0.026855,0.944824,-2.807617,-1.892090,-4.516602
18311,0.072021,0.002441,0.927246,-3.295898,-2.868652,-5.432129
18321,0.030762,-0.091431,0.906006,-3.356934,-3.295898,-6.042480
18333,-0.023437,-0.077759,1.042114,-4.150391,-3.479004,-7.690430
18343,-0.057129,-0.037476,1.111694,-4.089355,-3.784180,-8.605957
18352,-0.056641,-0.120605,1.088623,-3.540039,-2.685547,-8.483887
18362,-0.014160,-0.150635,1.050537,-3.540039,-1.892090,-8.300781
18372,0.004272,-0.129395,1.007202,-3.784180,-1.342773,-8.239746
18381,0.082275,-0.144287,0.979248,-4.089355,-1.037598,-8.361816
18391,0.091187,-0.147583,0.940430,-4.516602,-1.220703,-8.666992
18403,0.021362,0.008789,1.022949,-5.859375,-1.464844,-8.605957
18413,-0.015381,0.089844,1.032837,-5.798340,-1.342773,-8.422852
18423,-0.025879,0.038696,1.035278,-4.516602,-1.037598,-8.605957
18432,-0.072632,-0.071289,0.951294,-2.624512,-0.976562,-8.666992
18442,-0.051880,-0.018677,0.877930,-1.342773,-0.244141,-8.300781
18452,-0.061646,-0.087891,1.022583,0.244141,0.549316,-7.873535
18462,-0.075928,-0.072754,1.088745,1.708984,0.244141,-7.934570
18473,-0.041870,-0.194336,0.952026,3.845215,0.915527,-7.629395
18483,-0.072144,-0.222534,0.934326,3.723145,1.281738,-6.835937
18492,-0.069946,-0.180420,0.849365,3.051758,1.953125,-5.981445
18501,-0.026855,-0.145752,0.886597,2.075195,3.051758,-4.577637
18511,-0.024658,-0.088379,0.872559,1.220703,3.967285,-2.685547
18521,-0.022827,-0.096191,0.886353,0.244141,4.638672,-1.281738
18531,-0.042725,-0.085083,0.932251,-0.366211,4.821777,-0.793457
18541,-0.057617,-0.133057,1.034424,-1.586914,5.187988,-0.183105
18551,-0.040039,-0.083740,1.156860,-1.403809,5.371094,-0.793457
18561,-0.020264,-0.210327,1.038696,-1.281738,5.004883,-1.831055
18571,-0.051636,-0.199951,0.984375,-1.586914,4.577637,-3.112793
18581,0.043213,-0.102539,1.026611,-2.136230,4.638672,-3.662109
18591,0.048096,-0.061157,1.115845,-2.014160,4.821777,-3.723145
18601,0.116089,-0.142944,1.102173,-1.464844,4.211426,-3.845215
18613,0.167236,-0.241943,1.000977,-0.671387,3.234863,-2.136230
18623,0.255737,-0.054687,1.093872,-1.281738,3.112793,-1.342773
18633,0.262573,-0.079346,1.139893,-1.220703,2.807617,-0.061035
18642,0.176270,-0.048096,1.099243,-0.915527,1.831055,0.732422
18651,0.093262,0.027466,1.144409,-0.366211,0.915527,0.915527
18661,0.053467,-0.099365,1.217651,0.915527,0.183105,1.281738
18671,0.044678,-0.175293,1.114258,1.892090,-0.122070,0.915527
18681,0.084717,-0.231812,0.913452,2.624512,-0.366211,1.464844
18692,0.024292,-0.048950,0.997437,1.464844,-1.281738,1.586914
18702,-0.007080,-0.011719,0.956787,0.976562,-1.647949,2.014160
18711,-0.029785,-0.013916,1.032349,0.854492,-1.464844,2.624512
18722,-0.073853,0.025269,1.166870,0.488281,-1.220703,2.197266
18731,-0.120728,0.173096,1.137695,0.244141,-0.976562,1.464844
18741,-0.184326,0.057861,1.057007,1.342773,-0.610352,1.281738
18753,-0.080566,-0.185791,0.776489,3.234863,1.037598,-0.366211
18763,-0.012695,-0.339722,0.696533,3.295898,0.976562,-1.525879
18772,-0.000732,-0.320190,0.693115,1.831055,0.366211,-3.173828
18782,-0.010254,-0.144653,0.777466,-0.610352,-0.183105,-3.845215
18791,0.063599,0.064575,1.035767,-2.624512,0.061035,-3.784180
18801,0.016479,0.080688,1.163452,-2.380371,0.732422,-2.441406
18811,-0.065674,-0.073364,1.103271,-0.793457,1.159668,-0.793457
18821,-0.165649,-0.219238,0.979126,0.732422,2.685547,1.220703
18832,-0.034302,-0.104248,0.982544,0.732422,2.746582,1.708984
18842,0.063965,-0.108154,0.977661,1.342773,2.014160,2.258301
18851,0.046265,-0.131104,1.013062,1.831055,1.098633,3.967285
18862,0.154785,-0.022949,0.988403,1.464844,1.037598,6.469727
18871,0.198730,-0.062744,1.006226,1.037598,1.403809,9.887695
18881,0.185059,-0.064331,0.946533,0.488281,1.220703,13.061523
18893,0.029175,-0.191895,0.950439,-0.244141,-15.014648,15.136719
18902,0.030762,-0.053711,0.869507,-1.708984,-1.037598,14.099121
18912,-0.076294,-0.184692,1.017334,-2.258301,-2.380371,11.413574
18921,-0.054810,-0.048096,1.189453,-2.868652,-3.723145,8.361816
18931,-0.122437,-0.052246,1.079956,-3.295898,-4.272461,5.981445
18942,-0.126953,-0.091553,0.931030,-3.234863,-3.906250,4.638672
18951,-0.049927,-0.223022,0.937622,-3.356934,-3.417969,3.784180
18961,-0.059692,-0.081787,0.896118,-4.882812,-4.211426,1.403809
18971,-0.011841,-0.071777,1.118408,-5.493164,-4.455566,0.915527
18982,0.099609,-0.008301,1.265869,-5.554199,-4.455566,0.427246
18991,-0.039795,0.049927,1.166748,-4.577637,-4.699707,0.122070
19002,0.042358,-0.153687,1.151489,-2.868652,-4.577637,-0.671387
19011,0.020630,-0.179565,1.021851,-0.793457,-4.638672,-2.136230
19023,0.010498,-0.227173,0.945557,2.197266,-6.408691,-6.164551
19032,-0.025391,-0.286377,0.793091,2.075195,-6.774902,-7.568359
19042,-0.023193,-0.332153,0.832886,1.220703,-6.652832,-8.239746
19051,0.112305,-0.178955,0.940063,-0.366211,-6.042480,-7.934570
19062,0.051514,-0.089355,0.957520,-1.708984,-5.615234,-7.324219
19071,-0.025757,-0.070435,0.879883,-2.563477,-5.004883,-6.408691
19082,-0.066772,-0.010864,0.866577,-2.807617,-4.272461,-6.042480
19091,-0.055054,-0.130127,0.937134,-2.502441,-3.723145,-5.798340
19101,-0.081787,-0.196411,0.987427,-2.136230,-4.272461,-7.751465
19112,0.005005,-0.028687,1.085083,-2.014160,-4.272461,-8.239746
19122,0.035034,-0.046021,1.030884,-1.892090,-3.967285,-8.422852
19131,0.059326,-0.121338,1.004028,-1.708984,-3.601074,-8.422852
19142,0.027222,-0.054077,1.073853,-1.770020,-3.479004,-8.178711
19151,0.015869,-0.019165,1.148560,-1.464844,-3.662109,-8.300781
19163,0.009888,-0.063232,1.104492,0.244141,-3.417969,-8.911133
19172,-0.034058,-0.025635,1.012329,0.976562,-3.173828,-9.460449
19183,0.000610,0.015869,1.219604,1.403809,-2.990723,-9.948730
