timestamp,accX,accY,accZ,gyrX,gyrY,gyrZ
11,-0.118408,-0.095215,0.998047,0.976562,7.263184,6.713867
21,-0.121948,-0.204468,0.911865,1.037598,8.178711,7.568359
31,-0.138062,-0.051147,0.965576,0.305176,7.995605,8.422852
41,-0.126587,-0.112549,1.018188,0.549316,8.300781,8.605957
51,-0.108032,-0.045532,1.093506,1.037598,9.033203,8.728027
61,-0.062988,-0.111572,0.984497,1.281738,9.216309,8.483887
72,-0.062744,-0.306274,0.790283,1.464844,8.422852,8.911133
82,-0.063232,-0.094604,0.881958,0.244141,8.728027,10.986328
91,-0.058594,-0.072266,0.866333,-1.098633,9.765625,14.526367
101,-0.125488,-0.029297,0.984741,-1.770020,10.925293,18.615723
111,-0.130249,-0.099121,0.929077,-2.136230,11.291504,21.667480
121,-0.142334,-0.125122,0.924927,-2.441406,11.596680,23.193359
131,-0.018677,-0.062988,1.123169,-3.234863,11.718750,25.207520
140,-0.072021,0.007568,1.150513,-2.380371,11.596680,26.062012
151,-0.043823,-0.163696,1.085083,-1.647949,11.962891,27.343750
161,0.126709,-0.193970,0.980225,-1.220703,10.803223,27.343750
171,0.115967,-0.198242,0.933838,-1.770020,8.728027,27.587891
181,0.012085,-0.036865,1.062866,-2.319336,8.117676,29.113770
191,0.005615,-0.097900,1.017700,-2.502441,8.300781,30.700684
201,-0.050415,-0.120117,1.005371,-2.380371,8.361816,32.226562
213,-0.182739,-0.100586,1.085815,-1.281738,7.141113,31.127930
222,-0.122559,-0.003662,1.145386,-0.427246,7.324219,30.212402
232,-0.065918,-0.165649,1.127930,0.427246,7.263184,28.869629
241,-0.083740,-0.060791,1.012329,0.549316,5.798340,26.489258
251,-0.072021,-0.175049,0.986938,1.037598,4.943848,25.146484
261,-0.004517,-0.212402,0.923950,1.098633,4.760742,24.780273
271,0.061401,-0.128784,0.957275,0.793457,4.333496,25.268555
282,-0.016113,-0.067993,0.962891,-0.366211,4.272461,27.282715
292,-0.017944,-0.213989,1.014893,-0.122070,4.516602,28.076172
301,0.029297,-0.102905,0.993042,-0.061035,3.845215,26.916504
311,-0.032471,-0.202026,1.012817,0.305176,2.441406,24.780273
321,-0.010864,-0.100586,0.995239,0.061035,1.403809,22.766113
331,0.032227,-0.024292,1.096558,-0.305176,1.037598,21.667480
342,0.080200,-0.142944,0.963745,-0.122070,-0.305176,20.385742
351,0.077759,-0.107788,1.057129,-0.305176,-0.488281,19.714355
361,0.095947,-0.076294,1.037109,-0.244141,-0.183105,19.714355
371,0.151367,-0.039429,1.055420,-0.183105,-1.037598,18.798828
381,0.078125,-0.113892,0.980103,-0.183105,-2.685547,17.211914
392,0.145752,0.002075,1.094971,-0.244141,-3.540039,15.747070
401,0.145752,-0.103882,0.956909,0.122070,-4.333496,13.977051
413,0.049683,-0.119263,0.918213,0.427246,-6.225586,11.657715
423,0.015747,-0.056885,0.903809,0.000000,-6.408691,11.352539
432,0.066772,-0.035156,0.938477,-0.244141,-6.164551,11.047363
442,-0.049316,-0.099365,0.941284,-0.061035,-6.652832,10.192871
452,-0.096680,-0.124878,0.950439,-0.122070,-6.713867,9.155273
461,-0.000366,-0.117065,1.017822,-0.366211,-5.859375,7.995605
471,0.055786,-0.019043,1.051392,-0.549316,-6.225586,5.920410
483,-0.008667,-0.119385,0.994019,0.061035,-7.507324,0.000000
493,0.079834,-0.149780,0.923096,-0.061035,-7.751465,-2.319336
503,0.119873,-0.024536,1.004150,-0.122070,-7.568359,-4.089355
512,0.094482,-0.043335,1.043335,0.183105,-8.422852,-5.676270
522,0.019897,-0.149658,0.969482,0.854492,-8.544922,-6.958008
531,0.211060,-0.181396,0.988892,0.854492,-7.934570,-7.568359
541,0.151978,-0.204102,0.875122,0.366211,-9.399414,-8.850098
551,0.080811,-0.134521,0.905396,-0.793457,-9.765625,-9.399414
562,0.128906,-0.023804,1.084961,-3.295898,-7.873535,-8.666992
572,0.087158,-0.078003,1.117798,-4.150391,-7.202148,-9.521484
581,0.086426,-0.040771,1.108643,-4.089355,-8.117676,-11.779785
591,0.078491,-0.060059,0.992310,-3.173828,-8.728027,-14.526367
601,0.206055,-0.101929,0.935791,-2.685547,-9.704590,-16.479492
611,0.240723,-0.151978,0.973999,-2.624512,-9.948730,-17.333984
620,0.170654,-0.081787,0.944946,-3.051758,-10.375977,-16.723633
632,0.080322,-0.066162,0.964355,-3.417969,-8.178711,-14.343262
642,0.102783,-0.037964,1.040894,-3.295898,-7.446289,-14.526367
652,0.010376,-0.205200,0.938721,-2.563477,-8.239746,-16.540527
661,-0.054810,-0.137451,0.917358,-3.051758,-8.850098,-18.615723
671,-0.052246,-0.200317,0.913818,-3.784180,-7.812500,-19.042969
681,-0.020874,0.041870,0.987305,-4.516602,-6.958008,-18.493652
694,-0.059937,-0.084961,1.043335,-3.723145,-3.784180,-15.136719
704,0.013672,-0.159180,1.041260,-3.051758,-3.051758,-13.305664
713,0.052490,-0.166870,1.032959,-2.624512,-2.624512,-11.657715
723,0.058960,-0.058838,0.982910,-2.380371,-2.441406,-10.559082
733,0.042847,-0.058594,0.888062,-1.770020,-2.380371,-9.033203
743,0.100586,-0.161133,0.903320,-1.281738,-1.892090,-7.568359
752,0.119385,-0.229980,0.773560,-1.525879,-0.915527,-4.882812
762,0.053223,-0.166138,0.891846,-2.746582,-0.793457,-3.906250
772,-0.030762,0.044434,1.030273,-2.929688,0.122070,-3.051758
781,-0.030396,-0.058838,1.079834,-2.197266,1.403809,-2.502441
791,-0.099243,-0.174927,0.995239,-2.014160,1.281738,-3.112793
801,-0.076538,-0.108643,1.047974,-1.464844,1.342773,-3.845215
811,-0.065186,-0.162964,0.984863,-1.281738,1.220703,-4.150391
821,-0.044678,-0.057007,1.052002,-1.098633,1.220703,-3.662109
831,-0.045532,-0.172974,1.033325,-0.976562,1.525879,-0.183105
841,-0.076050,-0.164185,0.962891,-1.098633,3.356934,2.319336
851,0.042114,-0.236694,1.034424,-0.671387,4.089355,4.516602
861,0.062134,-0.089355,1.040527,-0.915527,4.394531,6.286621
871,0.032349,-0.183838,0.975342,-0.732422,4.150391,7.568359
880,0.041626,-0.192749,0.913330,-0.915527,3.295898,8.117676
891,0.035278,-0.195312,1.017212,-1.159668,3.295898,8.605957
900,-0.013428,-0.216919,0.928223,-1.586914,3.051758,9.094238
912,0.011841,-0.063599,0.982422,-2.624512,3.356934,9.948730
921,0.044556,-0.021118,0.999756,-2.563477,2.868652,9.521484
931,0.056152,-0.035278,1.061890,-2.380371,2.685547,9.094238
941,0.011963,-0.085571,0.978394,-2.075195,1.831055,7.812500
951,0.078003,0.041870,1.116821,-2.136230,1.220703,6.408691
961,0.053223,-0.022583,1.058105,-1.892090,0.854492,5.859375
971,0.091675,-0.007935,1.016479,-1.525879,0.610352,5.249023
982,0.122681,-0.111084,0.881958,-0.976562,0.061035,4.333496
991,0.081543,-0.043945,1.024780,-1.037598,-0.427246,3.662109
1001,0.066284,-0.144287,0.929199,-0.976562,-0.976562,2.868652
1011,0.071045,-0.096191,0.940918,-1.281738,-1.159668,1.708984
1021,0.062988,-0.039795,1.019775,-1.770020,-1.403809,0.793457
1030,0.037964,-0.126709,1.003784,-1.892090,-1.770020,-0.183105
1042,0.019165,-0.001709,1.050049,-1.281738,-1.831055,-0.732422
1052,0.050415,-0.087646,0.989990,-0.976562,-1.770020,-1.037598
1061,0.006226,-0.103271,1.026367,-0.610352,-1.770020,-1.037598
1070,0.005615,-0.083740,0.997925,-0.061035,-1.892090,-1.647949
1081,-0.036499,0.035034,1.059570,0.427246,-1.708984,-1.647949
1091,0.020508,-0.148071,1.053955,0.915527,-1.525879,-0.976562
1101,-0.031616,-0.154053,0.981323,1.281738,-1.159668,-0.671387
1113,-0.019165,-0.129028,0.980835,0.976562,-0.671387,1.525879
1123,0.029907,-0.066406,1.017212,0.793457,-0.366211,2.502441
1133,0.005493,-0.133301,0.962646,0.793457,0.061035,4.577637
1142,0.019653,-0.190674,0.940796,0.610352,0.122070,6.469727
1151,-0.011230,-0.163330,0.832153,-0.061035,0.427246,7.934570
1161,-0.051025,-0.085693,0.904541,-1.159668,0.488281,8.850098
1171,-0.067749,-0.017700,0.951660,-2.197266,-0.244141,9.338379
1183,-0.052368,0.103882,1.023315,-2.746582,1.098633,11.657715
1193,-0.073853,-0.030640,1.054321,-2.380371,1.708984,13.183594
1203,-0.125732,-0.053101,0.981812,-2.014160,2.136230,14.465332
1212,-0.092285,-0.022583,1.062134,-1.770020,2.624512,15.502930
1221,-0.063599,-0.154419,0.941650,-1.525879,2.380371,15.625000
1231,-0.053711,-0.032227,0.977295,-1.281738,1.892090,14.587402
1241,-0.022827,-0.157349,0.918335,-1.037598,1.342773,14.099121
1253,0.080566,-0.049438,0.900757,-1.831055,0.549316,13.916016
1263,0.049072,-0.143433,0.814087,-2.258301,-0.305176,14.526367
1272,0.047974,-0.152588,0.858887,-2.624512,-0.305176,14.709473
1282,0.099243,-0.065430,0.983643,-3.601074,-0.122070,14.892578
1292,0.064453,0.023193,1.136841,-3.967285,-0.427246,14.587402
1301,-0.013916,-0.090820,1.015869,-3.845215,-0.976562,14.038086
1311,-0.020142,-0.055786,1.092773,-3.295898,-1.403809,13.854980
1323,-0.009644,-0.210815,0.886353,-2.685547,-2.197266,12.268066
1333,-0.006226,-0.148804,1.059692,-2.990723,-2.807617,10.803223
1343,-0.053223,-0.127563,1.007446,-2.746582,-3.173828,9.826660
1352,-0.005371,-0.006958,1.110474,-2.563477,-3.356934,8.544922
1362,-0.016724,-0.118652,1.057861,-2.075195,-3.356934,8.117676
1372,-0.020874,-0.235229,1.000122,-1.647949,-3.417969,7.507324
1381,-0.010132,-0.197754,1.041870,-1.586914,-3.051758,6.408691
1391,0.015869,-0.212280,1.049194,-2.075195,-4.516602,2.929688
1402,0.048950,-0.193237,0.989868,-2.502441,-5.065918,0.854492
1413,0.111450,-0.263550,0.888062,-2.685547,-5.432129,-0.427246
1422,0.168945,-0.092407,0.990356,-3.601074,-5.615234,-1.831055
1432,0.133911,-0.131348,0.959961,-4.272461,-6.225586,-2.990723
1442,0.110596,-0.056152,1.030884,-5.004883,-6.530762,-4.028320
1451,0.074463,-0.027710,1.008057,-4.760742,-6.835937,-5.004883
1461,0.031372,-0.073364,0.982910,-3.662109,-7.263184,-7.080078
1471,0.025635,0.009521,0.975342,-3.173828,-7.019043,-7.568359
1481,0.020508,-0.066406,1.007935,-2.624512,-6.896973,-8.117676
1491,0.013916,-0.147583,0.899170,-2.502441,-6.652832,-8.666992
1501,0.001343,-0.095703,0.854614,-2.624512,-6.225586,-8.728027
1512,0.017334,-0.001831,0.961914,-3.112793,-5.920410,-8.544922
1521,0.036499,-0.072144,0.951294,-3.723145,-5.676270,-8.239746
1531,-0.004883,0.022949,1.014160,-4.333496,-5.676270,-8.117676
1542,-0.053101,-0.048462,1.059692,-3.356934,-4.333496,-7.751465
1552,-0.003540,0.021729,1.152222,-2.624512,-4.089355,-8.300781
1562,-0.016968,-0.187622,0.983887,-1.525879,-4.516602,-9.094238
1572,-0.034180,-0.145508,0.926270,-0.915527,-4.211426,-9.582520
1582,0.037964,-0.090088,1.005615,-0.915527,-3.784180,-9.887695
1591,0.077026,-0.154785,0.928833,-0.793457,-3.051758,-9.582520
1601,0.079102,-0.057983,0.983154,-0.732422,-2.868652,-9.338379
1613,0.027710,-0.091553,0.966064,-0.915527,-2.624512,-9.094238
1622,0.045288,-0.056885,1.055908,-1.403809,-2.319336,-9.033203
1632,0.022461,-0.126709,0.962036,-1.403809,-2.136230,-9.155273
1642,0.015625,-0.002686,1.014038,-1.586914,-1.953125,-9.643555
1651,0.006714,-0.114502,0.913086,-1.159668,-1.586914,-9.216309
1661,0.033691,-0.025024,0.952393,-1.159668,-1.403809,-9.338379
1674,-0.049316,-0.116943,0.878418,-2.075195,-1.342773,-9.643555
1683,-0.067993,-0.008667,0.943726,-3.051758,-0.549316,-9.155273
1693,-0.017822,-0.150757,0.783691,-3.417969,0.610352,-8.483887
1703,-0.094604,-0.074463,0.739014,-4.333496,1.098633,-7.568359
1712,-0.071533,0.004150,0.799316,-5.249023,1.647949,-6.652832
1721,-0.041992,-0.010254,0.869873,-6.225586,2.807617,-5.676270
1731,-0.046997,-0.020386,0.972900,-6.774902,3.662109,-4.028320
1741,-0.076416,0.086792,1.155762,-6.713867,3.784180,-2.868652
1753,-0.044312,-0.083496,1.069702,-5.065918,4.760742,-0.915527
1762,-0.073730,-0.026367,1.125366,-4.394531,5.065918,0.061035
1772,-0.046509,-0.106689,1.022461,-3.662109,5.004883,0.610352
1782,-0.021973,-0.065552,1.049927,-3.234863,4.882812,1.220703
1791,0.017578,-0.093628,1.060059,-2.929688,5.493164,2.319336
1802,0.049561,-0.138794,0.991455,-2.746582,5.920410,3.112793
1811,-0.006592,-0.079712,0.966064,-2.624512,5.493164,4.394531
1821,0.027710,-0.197266,0.987671,-2.746582,5.737305,5.004883
1831,0.038818,-0.112549,1.067505,-2.624512,5.493164,5.798340
1841,-0.013672,-0.124512,0.934326,-2.624512,5.371094,6.591797
1851,0.018066,-0.002686,1.020508,-2.746582,5.676270,7.324219
1861,0.051880,-0.129517,0.961670,-3.112793,5.920410,8.300781
1871,0.049927,-0.127197,1.023682,-3.601074,5.493164,9.277344
1881,0.015137,0.040894,1.070435,-4.089355,4.577637,9.643555
1891,0.022339,-0.153809,1.006104,-4.028320,4.455566,9.704590
1901,0.024414,-0.071655,1.051758,-3.723145,4.028320,9.460449
1911,0.010864,-0.143311,0.953857,-3.356934,3.662109,9.155273
1921,0.045410,-0.042603,1.038452,-2.990723,3.051758,8.422852
1932,0.029663,-0.224487,0.996094,-2.563477,2.685547,7.995605
1941,0.036865,-0.161499,1.022461,-2.624512,2.380371,7.019043
1953,0.040039,-0.203857,0.965454,-2.197266,1.647949,4.760742
1963,0.084106,-0.103760,0.962036,-2.075195,1.464844,3.845215
1972,0.057617,-0.140137,0.991211,-1.770020,1.159668,3.601074
1982,0.051147,-0.169434,0.927368,-1.831055,0.305176,2.929688
1991,0.034180,-0.040161,1.015869,-1.831055,0.305176,2.929688
2001,0.065308,-0.138306,0.951538,-1.342773,0.366211,3.173828
2011,0.009521,-0.082520,0.919189,-0.793457,0.183105,3.295898
2021,0.062988,-0.137329,0.811890,0.000000,0.488281,3.784180
2033,0.094849,-0.014648,1.042969,0.000000,-0.244141,3.845215
2042,0.022339,0.093262,1.207886,0.305176,-0.915527,3.479004
2051,-0.061035,0.230347,1.535034,0.915527,-1.220703,2.990723
2061,-0.090088,0.115479,1.544556,3.662109,-1.098633,3.051758
2071,-0.040405,-0.061768,1.381836,7.263184,0.427246,3.051758
2081,-0.033447,-0.285278,1.113281,9.277344,0.000000,2.868652
2094,0.051880,-0.353027,0.814331,8.850098,-1.342773,1.770020
2103,0.058350,-0.310303,0.736938,7.690430,-1.220703,2.929688
2118,0.000977,-0.177002,0.654419,3.662109,0.000000,4.943848
2128,-0.028564,0.090454,1.010864,1.892090,0.793457,6.164551
2137,-0.033936,0.012817,1.098633,0.793457,1.037598,6.896973
2147,-0.062378,-0.090942,1.107056,0.488281,1.159668,6.774902
2156,-0.079590,0.103760,1.215698,0.854492,1.281738,6.042480
2165,-0.077637,0.109863,1.265991,1.892090,1.403809,4.943848
2174,-0.034790,-0.163818,1.201172,3.295898,0.793457,4.028320
2184,-0.003418,-0.154297,1.040771,4.272461,0.488281,3.356934
2193,-0.000366,0.059204,1.061035,4.394531,0.122070,3.234863
2203,-0.001953,-0.080811,0.953491,4.516602,0.000000,3.662109
2212,-0.036987,-0.213989,0.788940,4.333496,0.305176,4.516602
2221,0.014893,0.009033,0.962036,3.906250,1.098633,5.676270
2231,0.020386,0.048096,1.065796,3.601074,1.159668,6.835937
2242,0.039795,-0.196167,0.976929,3.784180,1.281738,8.178711
2251,0.083618,-0.085571,1.009277,3.601074,0.854492,8.178711
2260,0.025879,-0.162598,0.861206,3.479004,-0.122070,7.385254
2271,0.056152,-0.117065,0.867676,3.356934,-0.732422,7.141113
2280,0.052368,-0.104980,0.823975,2.624512,-1.037598,7.080078
2291,0.012329,-0.078369,0.781006,2.014160,-0.732422,7.568359
2300,0.008667,-0.006836,0.877686,1.403809,-0.610352,8.605957
2312,-0.018433,-0.118530,0.878662,1.281738,-0.305176,10.253906
2322,-0.035400,-0.058838,0.949341,1.220703,0.000000,10.742188
2331,-0.040527,-0.099609,0.938232,1.403809,-0.427246,10.559082
2341,-0.035034,-0.138916,1.004639,1.586914,-0.976562,10.375977
2351,-0.019531,-0.338501,0.913086,1.220703,-0.976562,10.131836
2361,-0.037720,-0.338135,0.789307,-0.610352,-0.915527,9.582520
2374,-0.024170,-0.059814,1.078003,-6.530762,-1.586914,8.422852
2383,-0.036133,0.012207,1.095947,-7.629395,-1.647949,7.873535
2393,-0.064819,0.048218,1.177368,-7.507324,-1.098633,8.056641
2402,-0.052246,-0.050659,1.086304,-6.896973,-0.793457,7.873535
2412,-0.073975,-0.127441,1.099243,-5.432129,-0.610352,7.263184
2421,-0.031982,-0.130005,1.150757,-4.211426,-0.915527,5.981445
2431,-0.057983,-0.218018,1.057739,-3.479004,-1.281738,4.150391
2444,0.018555,-0.074097,0.920166,-3.295898,-2.014160,1.403809
2453,0.055176,-0.120728,0.813721,-3.417969,-1.892090,1.342773
2463,0.059814,-0.093140,0.864502,-4.089355,-2.258301,1.464844
2472,0.065918,-0.136108,0.828857,-5.249023,-2.075195,1.525879
2481,0.061279,0.048218,0.935181,-6.713867,-1.831055,2.075195
2491,0.024170,0.000244,0.974976,-7.324219,-2.136230,1.892090
2501,-0.010010,-0.152100,0.912354,-7.446289,-1.831055,1.464844
2511,0.008545,0.072144,1.019287,-7.446289,-2.197266,0.854492
2522,-0.036011,-0.141479,1.066895,-6.835937,-2.441406,0.732422
2532,-0.035767,0.035156,1.166626,-6.591797,-1.647949,1.220703
2542,0.009277,-0.066162,1.072998,-5.859375,-1.525879,1.342773
2551,-0.003418,-0.157471,0.992676,-4.760742,-1.342773,1.892090
2561,0.004517,-0.060425,1.008057,-4.089355,-1.464844,1.770020
2571,0.034790,-0.172363,0.968750,-3.662109,-0.976562,1.220703
2582,0.062134,-0.129639,0.984131,-3.479004,-2.136230,-1.098633
2592,-0.003784,-0.211914,0.900146,-3.234863,-2.258301,-2.380371
2601,0.088501,-0.065918,0.977173,-2.929688,-2.075195,-3.173828
2611,0.087891,-0.124512,0.938110,-2.502441,-2.502441,-3.784180
2621,0.023804,-0.163696,0.875610,-2.746582,-2.868652,-4.577637
2630,0.077393,-0.010010,0.973877,-3.173828,-2.441406,-4.882812
2641,0.085937,-0.100342,0.923950,-3.417969,-2.746582,-4.943848
2650,0.082275,0.013916,0.942993,-3.356934,-3.112793,-5.676270
2662,0.038330,-0.118286,0.962158,-2.990723,-2.868652,-6.164551
2672,0.074463,0.024048,1.094482,-2.746582,-2.197266,-6.469727
2681,0.051636,0.022461,1.070679,-2.197266,-2.502441,-6.713867
2691,-0.025757,-0.145996,0.935059,-1.525879,-3.051758,-7.324219
2701,0.025269,-0.057739,0.993774,-0.488281,-2.746582,-7.873535
2711,0.088135,-0.221313,0.912231,0.183105,-2.624512,-7.995605
2720,0.052124,-0.244141,0.833618,-0.305176,-2.868652,-8.361816
2732,0.022339,0.026245,0.968262,-2.563477,-2.380371,-8.666992
2742,-0.027954,0.028442,1.018433,-2.563477,-1.953125,-8.544922
2752,-0.062256,0.046143,1.107788,-1.464844,-1.342773,-8.789063
2761,-0.090454,-0.138550,1.147095,-0.549316,-1.281738,-8.850098
2771,-0.039795,-0.177124,1.084961,0.061035,-0.671387,-8.850098
2781,-0.068359,0.063232,1.225586,0.488281,0.122070,-8.666992
2791,-0.046387,-0.000610,1.114868,1.159668,0.488281,-7.873535
2802,0.051636,-0.103271,0.963135,2.563477,1.831055,-7.019043
2812,0.016846,-0.212280,1.029785,2.441406,2.319336,-5.859375
2821,-0.013916,-0.273926,0.919556,1.403809,2.624512,-4.577637
2831,-0.018188,0.052246,0.979614,0.183105,3.173828,-3.540039
2840,0.011719,0.111450,1.119263,-0.183105,3.723145,-2.319336
2851,-0.084229,-0.151611,0.919067,0.427246,3.784180,-1.464844
2863,-0.004395,0.017456,1.109497,0.122070,4.760742,-0.305176
2873,-0.086670,-0.119995,0.991821,0.244141,5.065918,0.183105
2882,-0.052856,-0.064087,1.011475,0.000000,5.493164,0.732422
2891,-0.006226,-0.090332,0.835937,-0.183105,5.615234,1.403809
2901,-0.020996,-0.109863,0.888184,-0.061035,5.798340,2.197266
2911,-0.051270,-0.033691,0.901367,-0.732422,6.103516,2.990723
2921,-0.015503,-0.110718,0.837769,-1.770020,6.591797,4.028320
2931,-0.016724,-0.038696,0.895752,-2.014160,7.202148,6.164551
2941,0.022949,-0.063232,0.808716,-2.075195,7.568359,7.812500
2950,-0.028076,-0.099365,0.800415,-2.075195,7.324219,8.911133
2961,0.045776,-0.142334,0.814453,-2.685547,7.446289,10.192871
2970,0.038208,-0.114624,0.880859,-3.662109,7.324219,11.352539
2981,-0.036255,0.033203,0.899902,-4.394531,6.958008,12.268066
2990,0.003296,0.065430,1.021606,-4.455566,6.835937,13.061523
3002,-0.011963,-0.173584,1.025757,-3.662109,6.958008,13.488770
3012,-0.024170,0.028076,1.168457,-3.967285,6.835937,13.549805
3021,0.017822,-0.006226,1.182617,-3.295898,5.981445,13.427734
3031,0.047119,-0.234985,1.047852,-1.831055,6.225586,13.427734
3041,0.066162,-0.212036,1.071655,-1.159668,5.676270,13.916016
3051,0.065430,-0.228516,1.047119,-0.671387,4.821777,13.793945
3061,0.081787,-0.310425,0.987305,-0.976562,3.967285,13.916016
3071,0.115723,-0.167725,1.044434,-1.647949,3.784180,13.916016
3082,0.036255,-0.079712,1.061279,-2.868652,2.929688,13.671875
3092,0.028564,-0.104492,1.108643,-2.685547,2.258301,13.366699
3101,-0.000732,-0.083618,1.159668,-2.624512,2.075195,12.451172
3111,-0.064575,-0.071289,1.146240,-2.563477,1.464844,11.718750
3120,-0.027344,-0.031982,1.093140,-2.258301,1.037598,10.742188
3130,-0.032349,-0.022339,1.014648,-1.953125,0.854492,9.887695
3142,-0.000488,-0.078613,1.053833,-3.051758,0.854492,9.033203
3152,0.014648,0.327271,1.286255,-3.295898,0.854492,9.094238
3161,0.012573,0.056519,1.141113,-2.075195,0.854492,9.399414
3170,0.051392,-0.038940,1.061523,-1.098633,1.342773,9.399414
3181,0.081299,-0.073364,0.964111,-0.366211,1.892090,9.582520
3190,0.087280,-0.227539,0.798096,-0.061035,0.976562,9.277344
3201,0.095825,-0.183105,0.749756,-0.976562,-0.122070,8.178711
3210,0.111938,-0.043213,0.767456,-2.563477,-1.037598,7.080078
3222,0.093262,0.057861,0.730347,-3.784180,-1.892090,6.530762
3231,0.069092,0.014404,0.833618,-3.601074,-2.197266,6.713867
3241,0.031494,-0.081543,0.952759,-3.662109,-2.380371,6.774902
3251,0.034058,0.005371,1.069336,-3.540039,-2.319336,6.530762
3261,0.004395,0.036133,1.120117,-3.051758,-2.563477,6.591797
3270,0.008179,0.047729,1.089233,-1.464844,-2.868652,6.469727
3282,-0.005981,-0.039917,1.134644,3.417969,-3.234863,6.347656
3292,0.001831,-0.268921,1.008179,4.638672,-3.173828,6.591797
3301,0.043945,-0.185669,1.016235,5.065918,-3.051758,6.835937
3311,0.039551,-0.396851,0.756226,5.065918,-3.112793,7.141113
3320,0.016968,-0.304321,0.728394,3.723145,-3.112793,7.019043
3331,0.064209,-0.112549,0.922729,2.258301,-2.929688,7.446289
3341,0.062744,-0.197021,1.003052,1.281738,-3.234863,7.690430
3350,0.037109,-0.078735,1.070923,0.488281,-3.295898,7.324219
3362,-0.042358,-0.103271,1.113159,0.610352,-4.028320,7.263184
3372,-0.038452,-0.264282,0.960205,1.098633,-3.479004,6.469727
3381,-0.029419,-0.484619,0.627197,1.831055,-3.967285,5.859375
3391,-0.001099,-0.447510,0.477295,0.122070,-3.295898,4.211426
3400,0.048096,-0.246582,0.531738,-3.845215,-3.784180,1.708984
3411,0.017334,-0.089844,0.697144,-7.873535,-4.211426,0.793457
3421,-0.015015,0.410645,1.254517,-10.620117,-4.272461,0.732422
3432,-0.033813,0.124390,1.349854,-6.591797,-2.502441,2.441406
3442,0.053223,-0.529297,0.862183,-4.699707,-1.892090,4.272461
3452,0.112793,-0.201782,1.015747,-6.286621,-1.831055,4.943848
3461,-0.069824,0.184204,1.265259,-7.507324,-2.624512,4.333496
3471,-0.137451,0.025879,1.167480,-6.225586,-2.502441,4.272461
3481,-0.043457,-0.301514,0.979126,-4.516602,-1.770020,3.845215
3491,-0.040039,-0.299561,0.840088,-5.187988,-2.441406,2.197266
3502,-0.051880,0.119629,0.968018,-6.896973,-1.831055,3.356934
3512,-0.040283,-0.115723,0.884399,-5.126953,-1.037598,4.577637
3522,0.030518,-0.023804,1.010742,-4.028320,-0.915527,5.554199
3531,-0.004395,-0.100830,1.116455,-3.356934,-0.793457,5.737305
3540,-0.057251,-0.203369,1.036499,-2.563477,-1.037598,5.615234
3551,-0.008789,0.038452,1.137695,-2.075195,-0.854492,5.065918
3561,-0.000122,-0.025513,1.069092,-1.098633,-1.281738,3.479004
3570,-0.082764,-0.306763,0.822144,-0.427246,-1.647949,3.112793
3580,0.077026,-0.229858,0.919067,-1.037598,-0.793457,3.479004
3591,0.061035,-0.308716,0.869385,-2.258301,-0.549316,3.784180
3600,0.023804,0.015625,0.994019,-3.417969,-0.549316,3.173828
3610,0.030884,0.051514,1.104858,-3.356934,-0.671387,3.417969
3621,0.076660,-0.135742,1.098389,-2.319336,-0.915527,3.234863
3630,0.056885,-0.108032,1.110962,-1.098633,-1.586914,2.319336
3640,0.017456,-0.090332,1.084106,0.305176,-2.075195,1.586914
3651,0.048462,-0.195312,1.038452,-0.610352,-2.441406,0.366211
3661,-0.005493,0.011230,0.979004,-1.159668,-2.319336,-0.793457
3671,0.103760,0.065552,1.007568,-1.098633,-2.563477,-1.708984
3681,0.138794,-0.004517,0.953369,-0.671387,-2.258301,-1.770020
3690,0.107666,0.070312,1.003662,-0.244141,-2.929688,-1.953125
3702,0.010132,0.060791,1.028931,1.647949,-2.990723,-1.647949
3711,0.033447,0.031982,1.008789,3.173828,-3.051758,-2.197266
3721,0.050415,-0.074463,0.961670,4.272461,-3.540039,-4.028320
3731,0.039307,-0.350952,0.852905,4.089355,-3.906250,-4.699707
3741,0.055786,-0.096069,0.941895,3.051758,-4.028320,-5.187988
3750,0.146118,0.080811,1.031860,1.831055,-3.906250,-5.065918
3761,0.124878,-0.130371,0.944214,1.281738,-3.784180,-4.394531
3770,0.093384,-0.117676,0.896362,1.342773,-3.906250,-4.516602
3781,0.007813,-0.203979,1.105713,1.586914,-3.723145,-5.859375
3791,-0.065918,-0.234741,1.016846,1.953125,-4.394531,-7.446289
3801,-0.066406,-0.064819,1.111450,2.563477,-4.211426,-8.972168
3810,-0.035400,-0.020630,1.100586,2.990723,-3.601074,-9.765625
3821,-0.057495,-0.203735,1.020874,3.723145,-3.295898,-10.070801
3831,-0.025879,-0.161255,1.064941,4.150391,-2.380371,-9.948730
3840,-0.046387,-0.056763,1.092651,4.211426,-1.831055,-9.338379
3851,0.014648,-0.211914,1.030151,3.234863,-0.488281,-8.178711
3860,-0.004883,0.016113,1.003052,2.685547,-0.122070,-7.263184
3870,0.007813,0.145264,1.099121,2.319336,0.061035,-6.469727
3880,-0.008057,-0.122437,0.935303,2.258301,0.671387,-5.249023
3891,-0.038208,-0.185303,0.850952,2.075195,1.281738,-4.028320
3900,0.018921,0.081177,0.975220,1.342773,2.319336,-2.563477
3912,0.019287,0.014526,0.954834,0.305176,2.563477,-0.610352
3921,-0.048096,-0.057251,0.983398,-0.305176,2.624512,-0.183105
3931,-0.042847,-0.006104,0.903076,-0.976562,2.929688,0.671387
3940,-0.020142,0.007080,0.920410,-1.098633,3.356934,1.525879
3950,-0.001953,0.026367,0.958984,-1.342773,3.417969,2.502441
3961,-0.011963,-0.147095,0.869995,-1.342773,4.211426,3.601074
3970,-0.009521,-0.036377,0.978516,-1.525879,4.333496,4.455566
3980,-0.005737,0.022461,1.045410,-1.525879,4.150391,4.943848
3991,-0.034424,-0.094849,0.927002,-1.159668,4.455566,4.516602
4001,-0.041382,0.028076,1.075806,-0.549316,4.150391,4.211426
4010,-0.034790,-0.179932,0.951782,-0.427246,4.333496,4.455566
4020,-0.084961,-0.144531,0.898560,-0.610352,4.699707,4.394531
4031,-0.021240,-0.125854,0.965454,-0.183105,4.943848,4.272461
4040,-0.035522,-0.244995,0.924072,-0.488281,4.943848,4.821777
4050,0.018555,-0.148804,0.999878,-1.342773,4.821777,5.371094
4062,0.037231,-0.233765,0.908081,-1.770020,4.882812,6.225586
4071,0.041748,-0.064209,1.017456,-2.441406,5.432129,7.202148
4081,0.061035,-0.080078,0.995117,-2.746582,5.371094,8.056641
4090,0.050659,-0.268555,0.911377,-3.295898,5.065918,8.666992
4101,0.049194,-0.119995,0.979858,-3.723145,4.577637,9.277344
4110,0.023560,-0.161987,0.965576,-4.272461,4.333496,9.521484
4120,0.015381,-0.237671,0.810913,-5.126953,3.540039,9.338379
4131,0.025269,-0.096436,0.980347,-5.981445,3.112793,9.826660
4141,0.009399,0.070801,1.057007,-8.422852,3.051758,10.131836
4150,0.008911,0.182373,1.156372,-8.728027,3.112793,10.498047
4160,-0.010742,0.005615,1.093384,-7.934570,3.295898,11.169434
4170,-0.023682,-0.027588,1.128540,-7.141113,3.356934,11.291504
4181,-0.042358,0.103882,1.153198,-6.347656,3.112793,11.108398
4190,-0.028564,-0.056152,1.135742,-5.554199,3.479004,11.108398
4200,-0.036133,-0.049683,0.951294,-4.394531,2.746582,9.521484
4211,-0.002563,-0.155518,0.831299,-3.906250,2.563477,9.216309
4221,0.002319,-0.078369,0.829468,-4.211426,2.685547,8.850098
4230,0.047363,-0.025635,0.909546,-4.760742,2.502441,8.483887
4240,0.043823,-0.106445,0.884155,-5.065918,2.685547,8.605957
4250,0.061768,0.043579,1.012573,-5.310059,2.441406,8.728027
4260,0.039063,-0.009766,0.985596,-4.760742,1.892090,8.605957
4272,0.013184,-0.032104,1.037476,-3.356934,1.159668,8.117676
4282,0.037598,-0.180542,1.020386,-3.051758,0.976562,8.056641
4292,-0.002441,-0.161621,0.946655,-3.173828,0.671387,7.629395
4301,0.027710,-0.008667,1.080688,-3.051758,0.549316,7.446289
4311,0.026245,-0.158569,0.946655,-2.746582,0.671387,8.239746
4320,0.032715,-0.158447,0.941650,-2.441406,0.610352,8.850098
4332,0.039673,-0.026978,1.034058,-2.258301,0.366211,9.826660
4341,0.039063,-0.109009,1.014893,-2.075195,0.183105,10.253906
4351,0.045166,-0.002930,1.114746,-1.892090,0.305176,10.559082
4361,0.012207,-0.172363,1.041382,-1.464844,0.366211,11.169434
4370,-0.000244,-0.159180,1.001343,-0.976562,0.244141,11.474609
4380,0.007080,-0.018921,1.107056,-0.671387,0.122070,11.352539
4391,-0.016113,-0.078979,1.083862,-0.061035,-0.122070,10.742188
4401,-0.068604,-0.096069,1.023315,0.061035,-0.915527,9.216309
4410,-0.031128,0.008789,1.056152,1.586914,-1.098633,8.605957
4420,-0.014771,-0.169189,0.940308,2.014160,-1.098633,8.056641
4430,-0.016968,-0.011353,0.931885,2.197266,-0.793457,8.178711
4440,0.017700,-0.012573,0.976074,2.624512,-0.854492,8.056641
4450,0.031250,-0.218994,0.899780,2.319336,-0.915527,7.751465
4461,0.004517,-0.086914,0.894653,1.770020,-0.976562,7.629395
4470,0.002930,-0.136475,0.906250,1.403809,-1.464844,7.263184
4480,-0.007813,-0.310425,0.831055,-0.976562,-1.220703,7.141113
4492,-0.016479,-0.074463,0.888062,-1.708984,-1.586914,7.019043
4501,-0.051147,-0.215576,0.801025,-2.136230,-1.403809,7.080078
4511,-0.014404,0.022827,0.932007,-2.807617,-0.732422,7.507324
4521,-0.011597,-0.110962,0.912598,-2.807617,-0.610352,7.507324
4531,-0.057617,-0.169434,0.921021,-2.929688,-0.366211,7.934570
4540,-0.025757,-0.035400,0.996948,-2.990723,-0.305176,8.178711
4550,-0.043335,-0.147949,1.052368,-2.685547,-0.488281,7.568359
4560,-0.040161,0.047852,1.098022,-2.075195,-0.549316,7.507324
4570,-0.008423,-0.184814,1.143921,-0.915527,0.000000,7.873535
4580,0.003906,-0.236206,1.037598,-0.610352,0.366211,8.239746
4590,0.015503,-0.114502,1.075562,-0.244141,-0.061035,7.995605
4599,-0.016602,-0.110718,1.097290,0.244141,-0.183105,8.178711
4610,-0.001465,-0.144531,1.020874,0.427246,-0.183105,7.995605
4619,0.022217,-0.126953,1.036743,0.366211,-0.305176,7.934570
4631,-0.047607,-0.074341,1.057739,0.549316,-0.854492,7.629395
4640,0.005005,-0.098145,1.121216,0.549316,-0.793457,7.446289
4650,-0.010742,-0.099365,1.082642,0.854492,-0.671387,7.446289
4659,0.005981,-0.130493,1.019775,1.098633,-1.037598,6.896973
4670,0.053589,-0.240112,0.952637,0.976562,-0.854492,6.286621
4679,0.064575,-0.262329,0.892090,-0.122070,-1.220703,6.042480
4692,0.094238,-0.042358,0.887329,-2.441406,-2.014160,4.760742
4702,0.127441,-0.156006,0.795776,-3.662109,-2.136230,4.699707
4711,0.149292,-0.112427,0.714600,-4.577637,-2.441406,4.150391
4721,0.057373,-0.044189,0.789307,-6.408691,-3.051758,3.784180
4730,0.047729,0.233887,1.072266,-7.873535,-2.868652,3.173828
4739,0.035278,0.155151,1.084351,-7.812500,-2.868652,2.502441
4750,0.021606,-0.087891,1.022583,-7.202148,-3.234863,1.708984
4759,-0.005981,0.016235,1.004639,-6.164551,-3.784180,0.244141
4771,0.004639,-0.144165,0.992065,-4.577637,-3.417969,-0.183105
4781,0.030640,0.068726,1.002808,-4.516602,-3.540039,-1.037598
4791,0.002686,-0.041626,0.966187,-3.906250,-3.417969,-1.770020
4800,-0.010742,-0.137329,0.845459,-3.295898,-3.356934,-2.319336
4810,0.044067,0.016113,1.069214,-2.746582,-3.417969,-2.685547
4820,0.062500,-0.037842,1.094971,-1.953125,-3.173828,-2.807617
4830,0.034058,-0.222412,1.010864,-1.342773,-2.990723,-3.051758
4839,0.041992,-0.056885,1.072388,0.305176,-2.685547,-3.173828
4850,0.027710,-0.301025,0.941650,0.793457,-2.990723,-3.173828
4860,0.010498,-0.204224,0.937012,0.427246,-3.112793,-3.112793
4870,0.083130,-0.037231,1.050171,0.061035,-3.112793,-3.356934
4880,0.068115,-0.149292,0.988037,-0.549316,-2.807617,-3.112793
4890,0.045288,-0.165527,0.948975,-1.342773,-2.746582,-3.234863
4900,0.002319,-0.009277,0.989136,-1.708984,-2.990723,-3.051758
4910,-0.061523,-0.124146,0.991699,-2.380371,-2.441406,-2.746582
4919,0.007568,0.030640,1.073364,-3.173828,-1.953125,-2.319336
4930,0.050781,-0.068237,1.103760,-3.723145,-1.770020,-1.831055
4940,-0.000244,-0.153809,0.969727,-3.723145,-1.098633,-1.525879
4950,-0.049927,0.041870,1.006226,-3.967285,-1.098633,-1.831055
4959,0.006714,0.002808,1.068970,-4.333496,-0.976562,-2.075195
4972,-0.024780,0.020874,1.100952,-4.089355,-0.732422,-3.356934
4982,-0.015625,0.060425,1.047119,-3.845215,-0.488281,-3.967285
4991,0.051514,-0.094116,0.940308,-2.990723,-0.122070,-4.211426
5001,0.030029,-0.035889,0.964966,-1.525879,0.000000,-4.150391
5010,0.007446,0.053101,1.005615,-1.037598,-0.122070,-4.455566
5020,0.028931,-0.147827,0.881470,-0.366211,0.244141,-4.577637
5030,-0.001343,-0.115479,0.894043,0.488281,0.549316,-4.577637
5042,-0.040649,-0.202881,0.809814,0.732422,0.549316,-4.211426
5052,-0.009644,-0.187378,0.913574,0.915527,0.976562,-3.662109
5062,-0.010132,-0.043579,1.015259,0.366211,1.647949,-2.746582
5071,-0.031738,-0.131226,0.972534,0.244141,2.136230,-1.586914
5081,-0.047485,-0.064941,0.953613,0.244141,2.441406,-0.732422
5090,0.008667,-0.013428,0.991577,0.549316,2.807617,0.732422
5100,-0.030029,-0.275635,0.969849,1.403809,3.479004,2.685547
5112,-0.062988,-0.104004,1.060059,1.098633,4.516602,5.432129
5121,-0.043091,-0.217651,1.016113,0.854492,4.882812,6.652832
5131,-0.035034,-0.222900,1.006836,0.244141,5.371094,7.934570
5140,-0.044434,-0.059082,1.101929,0.366211,5.187988,8.422852
5150,-0.048096,-0.107544,1.111938,0.610352,5.859375,9.338379
5159,-0.024902,-0.228882,1.093140,0.732422,5.798340,10.253906
5170,-0.034912,-0.229004,1.097900,0.915527,5.981445,10.803223
5179,-0.025024,-0.147461,1.074585,0.793457,5.798340,10.742188
5191,0.029297,-0.170532,0.989014,0.488281,5.187988,11.047363
5201,0.034668,-0.147583,0.913818,0.305176,5.004883,11.779785
5210,0.053223,0.055542,0.928345,-0.244141,4.943848,12.695313
5220,0.051514,-0.046997,0.951538,-1.098633,4.455566,13.610840
5230,0.054565,-0.126831,0.910156,-1.953125,4.394531,14.892578
5239,-0.003174,0.200684,0.921509,-2.441406,4.150391,15.319824
5252,-0.031494,-0.131592,0.923706,-1.892090,3.906250,16.357422
5261,-0.031616,-0.021851,0.978271,-2.563477,3.356934,15.686035
5271,0.000854,0.220581,1.151611,-2.807617,3.234863,15.502930
5280,-0.006836,-0.001831,1.045166,-2.014160,3.356934,15.930176
5290,-0.003296,-0.229614,0.989624,-0.854492,3.112793,15.808105
5299,-0.007202,0.012817,1.034790,-0.610352,2.624512,15.808105
5310,0.017578,0.102417,1.152344,-0.732422,2.624512,15.747070
5319,0.014404,-0.206421,1.013916,-0.427246,2.563477,15.319824
5331,0.048706,0.050049,0.992676,-0.366211,1.403809,15.014648
5340,0.092896,-0.114136,1.010498,-0.244141,0.549316,14.343262
5350,0.076660,-0.366089,0.932739,-0.427246,0.488281,13.977051
5359,0.114990,-0.071411,1.028198,-0.610352,-0.061035,13.793945
5370,0.095825,0.079956,1.130737,-0.671387,-0.671387,13.732910
5379,0.075073,-0.173340,1.027710,-0.183105,-1.281738,13.488770
5392,0.078613,-0.022949,1.058838,0.488281,-2.441406,12.817383
5401,0.026855,-0.045166,1.058105,0.244141,-3.051758,12.084961
5411,0.006104,-0.131470,1.022583,-0.183105,-4.150391,11.047363
5420,0.001953,-0.066040,1.035522,-0.305176,-3.845215,10.742188
5429,0.023315,0.011353,1.029907,-0.183105,-3.784180,10.437012
5440,0.018311,-0.137085,1.003906,0.122070,-3.845215,10.192871
5449,0.015747,-0.145386,0.980591,0.183105,-3.784180,9.826660
5462,0.032715,-0.147583,0.931885,-0.732422,-4.272461,7.995605
5472,0.026123,-0.180664,0.830444,-1.220703,-4.638672,6.958008
5481,0.002319,0.119019,0.964600,-1.403809,-5.004883,5.859375
5490,0.031006,-0.003418,1.027344,-1.098633,-5.065918,5.126953
5500,-0.003540,-0.201172,0.984741,-1.220703,-5.310059,4.333496
5510,0.023315,0.047852,1.042603,-1.281738,-5.432129,3.723145
5520,0.016724,0.086548,1.138062,-0.183105,-5.126953,3.723145
5530,0.020996,-0.274170,0.946899,0.671387,-4.699707,3.723145
5541,0.016724,0.030762,1.025879,0.793457,-5.004883,3.845215
5550,0.013794,-0.197754,0.979614,0.793457,-5.310059,3.601074
5560,0.032104,-0.293335,0.894653,0.610352,-5.249023,3.784180
5569,0.021973,-0.019775,0.937012,0.427246,-5.187988,4.028320
5580,0.008423,-0.072998,1.008301,0.610352,-4.943848,4.638672
5590,-0.019653,-0.265625,0.992798,0.732422,-4.760742,5.737305
5599,0.010864,-0.102173,1.026733,0.122070,-4.028320,6.225586
5611,-0.017944,-0.230713,0.982666,0.610352,-4.394531,6.347656
5621,-0.007568,-0.215942,0.887939,0.610352,-4.516602,6.103516
5630,0.047607,-0.093262,1.023071,0.549316,-4.455566,5.187988
5639,0.020264,-0.273560,0.953979,0.305176,-5.187988,3.479004
5650,-0.023682,-0.321167,0.810059,-0.671387,-5.920410,1.708984
5660,0.048340,0.001953,0.958740,-1.831055,-6.103516,0.000000
5672,0.033203,-0.244751,0.896118,-2.685547,-6.225586,-3.173828
5682,0.036255,-0.110229,0.974976,-3.173828,-5.981445,-4.272461
5691,0.114502,0.057739,1.126831,-3.479004,-6.042480,-5.126953
5701,0.051392,-0.079590,1.033447,-3.479004,-6.164551,-5.554199
5710,0.036499,-0.173706,0.976196,-3.173828,-5.981445,-5.981445
5720,0.065430,-0.108154,1.113159,-2.807617,-5.859375,-6.225586
5730,0.032349,-0.058472,1.027954,-2.807617,-5.737305,-6.713867
5740,0.005005,-0.105713,0.980835,-2.990723,-5.615234,-7.568359
5751,0.080811,0.062744,1.029663,-2.624512,-5.493164,-7.873535
5761,0.050903,-0.081909,0.974243,-2.075195,-5.676270,-8.117676
5770,0.043091,-0.125122,0.907227,-1.586914,-5.432129,-7.812500
5780,0.094849,-0.004150,1.018311,-1.281738,-4.760742,-7.446289
5790,0.140991,-0.170654,0.999512,-1.586914,-4.577637,-7.690430
5800,0.016846,-0.246216,0.788086,-2.319336,-4.943848,-8.239746
5809,0.060059,0.039795,0.888794,-2.868652,-4.882812,-8.728027
5821,0.048462,-0.227051,0.794556,-3.662109,-5.371094,-9.826660
5831,-0.030518,-0.090088,0.887817,-4.272461,-5.249023,-10.009766
5840,0.010254,0.025391,0.981079,-5.126953,-4.699707,-10.070801
5849,0.007446,-0.062622,0.961060,-5.249023,-3.601074,-9.277344
5860,-0.009766,0.038696,1.016602,-4.882812,-3.112793,-8.117676
5870,-0.046509,-0.054443,1.074097,-4.089355,-2.502441,-7.629395
5882,-0.084595,-0.027466,1.055786,-3.295898,-1.403809,-6.469727
5892,-0.025879,0.080688,1.119507,-3.173828,-0.915527,-5.920410
5901,-0.076050,-0.171875,0.921753,-2.685547,-0.427246,-5.187988
5911,-0.077515,-0.186890,0.865845,-2.502441,-0.183105,-4.943848
5920,-0.040161,0.028564,1.018555,-2.624512,0.488281,-4.333496
5929,-0.020508,-0.137817,1.021362,-3.173828,1.281738,-3.662109
5940,-0.041260,-0.164307,0.888672,-3.967285,1.892090,-3.540039
5950,-0.011475,0.129639,1.019165,-3.540039,2.258301,-2.441406
5960,-0.050537,-0.157593,0.827148,-3.356934,2.807617,-2.319336
5969,-0.061279,0.025024,0.957520,-3.417969,2.868652,-1.953125
5980,-0.059082,-0.101318,0.922119,-3.479004,3.295898,-1.342773
5989,-0.083008,-0.092163,0.895020,-3.967285,3.540039,-1.220703
6000,-0.042725,0.094727,1.019043,-4.089355,4.272461,-0.061035
6010,-0.027222,-0.080933,0.998901,-3.906250,5.004883,0.915527
6019,-0.099487,-0.154541,0.945190,-3.662109,5.371094,2.319336
6031,-0.029175,0.038452,1.135254,-4.089355,6.286621,5.676270
6040,-0.046387,-0.130493,1.062012,-3.540039,7.202148,7.202148
6050,-0.102661,-0.059448,1.095825,-2.990723,7.568359,8.911133
6060,-0.006104,0.018677,1.161499,-2.258301,7.507324,9.887695
6069,-0.018311,-0.178345,1.055786,-1.464844,7.568359,10.925293
6080,-0.012329,-0.187744,1.026123,-1.342773,7.019043,11.413574
6090,-0.019531,0.043091,0.977661,-1.464844,6.469727,11.962891
6101,0.059570,-0.190430,0.877441,-1.037598,6.530762,12.756348
6110,0.055786,-0.001709,1.013916,-1.159668,6.347656,13.488770
6120,0.037842,-0.033203,1.089844,-1.220703,6.286621,14.709473
6130,0.049194,-0.088867,1.076782,-0.915527,5.737305,15.258789
6139,0.006470,-0.039429,1.152832,-0.061035,5.493164,15.502930
6150,-0.075439,0.032227,1.116943,0.610352,5.004883,15.380859
6159,-0.054810,-0.143921,1.061035,1.586914,4.943848,14.892578
6171,-0.048096,-0.106934,1.017700,2.014160,4.577637,12.817383
6180,-0.046875,-0.055786,1.007202,2.075195,4.333496,12.268066
6189,0.010742,-0.281982,0.941406,1.953125,3.662109,11.596680
6200,0.024414,-0.331177,0.840088,1.892090,3.723145,11.047363
6210,0.059204,-0.064453,0.978638,1.647949,3.662109,11.230469
6219,0.072510,-0.059937,1.037109,1.098633,3.417969,10.803223
6231,0.091187,-0.331299,0.896606,1.037598,2.075195,9.826660
6240,0.098755,-0.016602,0.955566,1.037598,1.220703,9.155273
6250,0.061279,-0.190308,0.867432,1.098633,0.427246,8.056641
6259,0.037109,-0.296753,0.845215,0.915527,-0.244141,6.713867
6270,0.051514,-0.054810,0.949219,0.366211,-0.671387,5.859375
6280,0.055420,0.013916,0.967285,0.305176,-0.549316,5.493164
6289,0.033081,-0.127930,0.900635,0.915527,-0.671387,4.943848
6302,-0.010498,0.056152,1.123779,0.976562,-0.488281,4.821777
6311,0.001587,-0.052856,1.050537,0.915527,-0.488281,4.821777
6321,-0.000244,-0.213379,0.959106,1.037598,-0.671387,5.004883
6331,-0.019897,-0.042969,0.988037,0.610352,-0.427246,5.004883
6340,0.016968,0.105225,1.064453,0.183105,-0.122070,5.432129
6349,-0.031372,-0.119263,1.048462,-0.244141,-0.244141,5.493164
6359,0.002441,-0.241333,0.994263,-0.915527,0.183105,5.371094
6370,-0.009033,0.025269,1.088013,-1.342773,0.183105,5.371094
6380,-0.003296,0.041260,1.182983,-0.427246,0.183105,5.310059
6390,-0.000122,-0.198364,1.097412,0.671387,0.732422,5.554199
6400,0.020386,-0.187866,1.024048,1.342773,0.549316,5.859375
6409,0.033691,-0.004395,1.062866,1.281738,0.427246,5.859375
6420,0.053711,0.000366,1.014526,0.610352,-0.183105,5.371094
6430,0.005493,-0.235718,0.832397,0.061035,-0.854492,5.371094
6439,0.081787,-0.124023,0.840698,-0.671387,-0.793457,5.676270
6451,0.035889,-0.046509,0.985596,-2.868652,-0.793457,7.385254
6461,-0.016602,0.052124,1.047241,-3.784180,-0.366211,8.422852
6470,-0.004761,0.251587,1.222534,-3.723145,-0.122070,9.338379
6480,0.000000,0.103149,1.209106,-2.380371,0.000000,9.765625
6489,-0.034790,-0.168579,1.118530,-0.793457,-0.244141,10.070801
6499,-0.030518,-0.138306,1.107056,0.366211,-0.488281,9.765625
6512,-0.005737,-0.110718,1.019531,1.770020,-1.098633,9.338379
6521,0.012329,-0.404419,0.752075,2.319336,-1.220703,9.338379
6531,0.020996,-0.174316,0.765381,2.014160,-1.220703,9.094238
6540,0.082275,-0.005127,0.908203,1.159668,-1.220703,9.826660
6550,0.022583,-0.132202,0.891235,0.427246,-0.915527,10.681152
6559,0.056519,-0.077637,0.891235,0.061035,-1.159668,10.864258
6569,0.026001,-0.009399,1.025269,0.122070,-1.159668,11.474609
6581,0.022705,-0.160645,0.966919,0.976562,-2.197266,10.742188
6590,-0.005371,-0.122803,1.068604,1.037598,-2.563477,10.070801
6600,-0.004761,-0.092407,1.028320,1.098633,-2.685547,9.216309
6610,-0.005615,-0.193726,0.900513,1.098633,-2.746582,8.789063
6619,0.003052,-0.107544,0.942993,1.342773,-2.868652,8.605957
6630,0.039551,-0.073486,0.962402,1.159668,-3.234863,8.605957
6640,0.005127,-0.278320,0.855225,0.549316,-3.173828,8.728027
6652,0.061157,0.012573,1.044800,-0.671387,-3.601074,7.202148
6661,0.034668,-0.223389,1.013062,-1.098633,-3.662109,6.652832
6671,0.023437,-0.310425,0.973145,-1.525879,-4.089355,5.554199
6681,0.026733,0.009033,1.050659,-1.708984,-4.699707,4.760742
6690,0.059326,0.053223,1.124390,-1.586914,-4.638672,4.760742
6700,0.065796,-0.172607,1.030029,-1.770020,-5.004883,3.906250
6709,0.021606,-0.122559,0.946533,-2.197266,-5.371094,3.356934
6722,0.112061,-0.158203,1.001099,-1.647949,-5.126953,2.868652
6732,0.104736,-0.239014,0.921631,-2.197266,-5.310059,2.197266
6741,0.071777,-0.083862,0.989014,-2.441406,-6.042480,1.342773
6750,0.087524,-0.155762,1.038696,-2.441406,-6.774902,0.610352
6760,0.074341,-0.308472,0.930420,-2.990723,-6.958008,-0.122070
6770,0.033813,-0.045044,0.986694,-4.028320,-7.202148,-1.220703
6779,0.020874,0.138428,1.124390,-4.760742,-7.019043,-1.770020
6792,-0.021118,-0.074341,0.976196,-5.554199,-7.507324,-2.990723
6802,-0.034302,0.097290,1.047729,-5.371094,-6.835937,-3.540039
6811,-0.016235,0.049683,1.088867,-4.577637,-6.469727,-3.356934
6821,0.004517,-0.150757,1.012207,-4.272461,-6.591797,-4.089355
6831,-0.064209,-0.069580,0.998413,-3.662109,-6.591797,-5.249023
6840,-0.053833,0.053467,1.055542,-3.173828,-6.042480,-5.676270
6850,-0.007080,-0.094727,1.000366,-2.502441,-5.554199,-6.103516
6860,-0.005493,-0.133423,0.907593,-1.892090,-5.249023,-7.324219
6870,-0.064209,-0.100098,0.984009,-2.136230,-5.310059,-7.629395
6880,-0.010498,-0.139893,0.949219,-2.380371,-4.394531,-7.751465
6890,-0.002075,0.057983,0.992676,-2.075195,-3.540039,-7.446289
6900,0.008301,-0.012451,1.020142,-1.464844,-3.723145,-7.751465
6909,-0.043457,-0.154053,0.945923,-1.037598,-3.540039,-7.629395
6919,-0.019775,0.091553,1.296387,-0.854492,-2.807617,-6.896973
6932,-0.010986,-0.228394,0.905273,1.892090,-1.708984,-5.676270
6942,0.001953,-0.425903,0.620239,2.685547,-1.342773,-4.760742
6951,0.082520,-0.357056,0.550537,1.831055,-1.159668,-4.821777
6961,-0.011597,-0.268433,0.562256,-0.427246,-1.403809,-5.187988
6971,0.082397,0.114746,0.880371,-4.150391,-0.915527,-5.798340
6980,0.044678,0.533936,1.436401,-5.493164,-0.610352,-6.286621
6990,0.010498,0.119629,1.184448,-2.563477,-0.549316,-7.019043
6999,-0.091309,-0.497314,0.620239,0.610352,-1.220703,-6.530762
7009,-0.096558,-0.194824,1.022949,-2.197266,-1.220703,-7.873535
7020,-0.078613,-0.002808,0.948975,-2.319336,-0.122070,-7.324219
7030,0.010742,0.017822,0.839478,-2.258301,1.464844,-6.408691
7039,0.120361,-0.078003,0.850708,-2.197266,2.807617,-4.943848
7050,0.101318,-0.041260,1.010498,-1.708984,2.868652,-3.234863
7059,0.026611,-0.061768,1.145874,-1.586914,2.502441,-2.868652
7069,0.014160,-0.227295,1.038940,-2.136230,2.563477,-2.319336
7081,0.060181,-0.028442,1.113403,-1.647949,1.953125,-2.563477
7090,-0.030518,-0.105469,1.049316,-0.732422,1.464844,-2.624512
7100,0.016968,-0.158325,1.049805,-0.122070,2.197266,-2.380371
7110,0.018188,-0.076782,1.092163,-0.366211,2.380371,-1.770020
7119,-0.009033,-0.109497,1.014648,-0.793457,1.953125,-1.586914
7129,-0.039063,-0.129150,0.899658,-1.281738,2.502441,-1.586914
7144,-0.003296,-0.224243,0.932861,-0.671387,2.624512,-0.671387
7153,-0.045898,-0.395508,0.787476,-2.258301,2.441406,-0.610352
7163,-0.035645,-0.106201,0.852051,-3.906250,3.051758,-0.427246
7173,0.051270,0.151855,1.024414,-5.554199,3.662109,0.732422
7182,0.012329,0.019775,0.968262,-6.103516,4.028320,1.708984
7192,-0.033936,0.000366,0.945801,-5.554199,4.516602,3.417969
7202,-0.040161,-0.026855,1.017822,-5.554199,5.065918,4.211426
7211,-0.055176,-0.052734,1.084717,-6.103516,4.943848,4.455566
7221,0.001099,0.032837,1.058228,-6.835937,4.943848,4.699707
7230,-0.022827,0.015991,0.973267,-6.652832,5.126953,5.187988
7240,0.028076,0.042480,1.066895,-5.004883,4.821777,5.493164
7249,0.004272,-0.200073,1.007324,-3.906250,4.699707,6.103516
7259,-0.018311,-0.278442,0.856567,-3.417969,4.638672,6.896973
7269,0.066895,0.109985,0.889404,-2.929688,4.882812,7.751465
7279,0.049805,-0.273315,0.821045,-1.953125,5.004883,8.850098
7291,0.045044,0.029541,1.057129,-6.042480,3.845215,9.582520
7300,-0.019775,0.122803,1.128296,-7.019043,3.723145,9.399414
7309,-0.007690,-0.012817,0.956909,-6.774902,4.333496,9.826660
7319,-0.043823,0.187134,0.981201,-5.432129,4.516602,10.681152
7329,-0.055420,-0.044434,0.977417,-3.112793,3.662109,10.437012
7339,-0.152710,-0.302490,0.959229,-1.892090,3.479004,10.620117
7351,-0.153442,-0.048096,1.079834,-2.136230,4.516602,10.437012
7360,-0.043213,-0.182495,0.895020,-2.319336,5.004883,10.864258
7370,0.006348,-0.055298,0.972656,-2.441406,5.004883,11.291504
7380,0.013428,0.061401,1.052002,-2.258301,4.943848,12.023926
7389,-0.003906,-0.181030,1.005493,-2.502441,5.554199,13.671875
7399,0.018433,-0.149292,0.976562,-3.356934,5.493164,14.343262
7409,0.058716,0.029053,1.107422,-4.028320,5.249023,14.343262
7419,0.018921,-0.076538,1.017090,-4.333496,4.699707,14.160156
7431,0.012817,0.063232,1.064087,-4.028320,3.112793,12.268066
7440,0.007324,-0.129761,0.957153,-3.601074,2.685547,11.352539
7450,0.029907,-0.083618,0.965820,-3.845215,1.953125,10.559082
7459,0.048218,0.119141,1.024170,-4.028320,1.892090,10.864258
7470,0.061035,0.021362,1.005615,-3.845215,1.831055,11.230469
7479,0.031250,-0.066650,1.008789,-2.746582,1.953125,11.535645
7490,0.052124,0.035400,1.109619,-1.159668,1.647949,12.573242
7500,0.068115,-0.223267,0.977417,-1.220703,1.037598,12.817383
7510,0.015747,-0.005981,1.000732,-1.098633,0.488281,13.183594
7520,-0.007690,0.010864,0.989868,-0.732422,0.122070,13.427734
7529,-0.015747,-0.216919,0.842407,-0.061035,0.244141,13.854980
7539,-0.022217,-0.182739,0.925781,0.122070,0.305176,14.343262
7549,-0.029663,-0.046387,0.992798,-0.183105,0.244141,14.404297
7559,-0.055664,-0.218750,0.900146,-0.671387,0.000000,14.465332
7570,-0.049561,0.040039,0.958252,-1.098633,-0.305176,14.404297
7580,0.005127,-0.275513,0.912598,-0.366211,-0.061035,14.587402
7589,-0.018555,-0.178955,0.924194,-0.610352,-0.488281,14.099121
7599,0.007202,-0.034668,1.031616,-1.098633,-0.610352,13.549805
7609,0.021240,-0.158813,0.950195,-1.525879,-0.854492,12.939453
7619,0.053589,-0.058105,1.020508,-1.831055,-1.586914,12.207031
7630,-0.003052,0.088501,1.086060,-1.037598,-1.831055,11.291504
7640,0.012939,-0.225220,1.161133,-0.305176,-1.586914,11.718750
7650,0.052002,-0.058105,1.163818,-0.061035,-1.525879,11.718750
7659,0.033203,-0.052734,1.163086,0.122070,-2.319336,10.925293
7669,0.005493,-0.176147,1.065063,1.220703,-2.990723,10.070801
7679,0.019775,-0.141968,1.065918,1.831055,-3.723145,8.728027
7689,0.047119,-0.014771,1.093262,1.708984,-3.601074,7.751465
7700,0.064697,-0.089478,1.016846,1.464844,-4.150391,5.615234
7710,0.056152,-0.103638,0.992798,0.671387,-4.577637,4.760742
7720,0.029785,0.093750,1.029785,0.732422,-5.004883,3.662109
7729,0.047119,-0.076660,1.054932,1.403809,-5.187988,2.197266
7739,0.033325,-0.311401,0.984863,1.831055,-5.249023,0.915527
7749,0.021484,-0.090332,0.945190,1.708984,-5.798340,-0.610352
7760,0.017090,0.125244,1.041748,1.892090,-6.408691,-1.708984
7769,0.046021,-0.192749,0.916260,2.380371,-5.981445,-1.953125
7780,0.079224,-0.100830,0.780029,1.831055,-6.347656,-3.173828
7790,0.060425,-0.128540,0.797241,-0.915527,-5.981445,-2.929688
7800,0.056152,-0.102783,0.862427,-2.685547,-5.676270,-2.441406
7809,0.083862,0.120117,1.060547,-3.967285,-5.615234,-2.624512
7819,0.042358,-0.050293,1.095825,-3.601074,-5.554199,-2.929688
7829,0.009521,-0.246460,0.984375,-2.929688,-5.676270,-3.051758
7839,0.056152,-0.033325,1.050903,-2.197266,-5.432129,-3.234863
7849,0.071411,-0.026611,1.109131,-1.647949,-6.225586,-3.601074
7860,0.045654,-0.076294,0.887085,-1.770020,-6.103516,-4.089355
7870,0.111816,-0.052002,0.876953,-1.708984,-6.408691,-4.516602
7880,0.104736,-0.187988,0.769775,-2.380371,-6.164551,-4.638672
7889,0.116943,-0.081177,0.893188,-3.295898,-6.469727,-5.004883
7899,0.077515,0.020508,1.049072,-3.967285,-6.469727,-5.187988
7910,0.061523,-0.073608,1.004028,-4.150391,-6.469727,-5.676270
7920,-0.012817,0.035889,1.036499,-4.028320,-6.530762,-6.225586
7930,0.002563,-0.130737,1.029419,-3.845215,-6.408691,-6.835937
7939,-0.050659,0.016724,1.147461,-4.150391,-6.347656,-7.080078
7949,-0.064453,0.192505,1.237183,-4.272461,-5.798340,-7.385254
7959,-0.053101,0.105347,1.267090,-3.723145,-4.882812,-7.263184
7969,-0.021362,-0.139893,1.206787,-2.258301,-3.967285,-6.774902
7979,-0.012207,-0.190186,1.099243,-0.854492,-3.723145,-6.713867
7989,-0.050903,-0.061279,1.200439,-0.183105,-3.540039,-7.324219
7999,-0.026245,-0.147095,0.988159,0.061035,-2.990723,-7.568359
8009,0.012939,-0.164795,0.877930,-0.244141,-2.624512,-7.995605
8019,0.009155,0.003052,0.916138,-0.488281,-2.441406,-8.300781
8029,0.064453,-0.059326,0.966187,-1.220703,-2.319336,-8.422852
8038,0.004517,-0.206665,0.991821,-2.319336,-1.953125,-8.239746
8050,-0.013672,0.056274,1.011353,-2.868652,-1.403809,-8.483887
8060,-0.046509,-0.059326,0.953003,-2.014160,-0.915527,-8.178711
8069,-0.078247,0.006958,0.947388,-0.915527,-0.549316,-7.995605
8079,-0.092651,-0.067871,0.969238,0.000000,-0.061035,-7.690430
8089,-0.056519,-0.146606,0.814697,0.061035,0.915527,-7.324219
8098,-0.035034,-0.017822,0.888428,-0.061035,1.647949,-6.835937
8109,-0.011230,-0.145996,0.774170,0.366211,2.563477,-6.286621
8119,-0.019287,-0.192261,0.691528,0.061035,2.807617,-5.737305
8128,0.043457,-0.119019,0.837036,-2.014160,3.112793,-3.967285
8140,-0.038330,-0.018921,0.919434,-2.563477,3.356934,-2.868652
8150,-0.016602,0.048584,0.893555,-2.075195,4.516602,-1.647949
8159,-0.001343,-0.065796,0.968140,-1.220703,4.821777,-0.610352
8169,-0.087158,-0.106689,1.000488,-0.183105,5.065918,0.610352
8178,-0.073364,0.036011,1.160767,0.610352,5.371094,1.403809
8189,-0.046753,-0.104370,1.123169,1.464844,5.676270,2.319336
8198,-0.070190,-0.250366,1.062012,2.868652,6.164551,3.906250
8210,0.002808,-0.072266,1.086426,3.295898,6.774902,4.760742
8219,0.039673,-0.305542,1.020508,3.906250,6.774902,4.943848
8229,0.023926,-0.399536,0.957153,3.967285,6.042480,5.187988
8239,0.044922,-0.152588,0.995361,3.173828,5.859375,5.737305
8248,0.084351,-0.115479,1.011963,2.563477,5.737305,6.286621
8259,0.060059,-0.323486,1.023926,2.075195,5.371094,6.469727
8270,0.031494,-0.005493,1.111572,0.854492,5.249023,8.178711
8280,0.009644,-0.069824,1.121826,-1.586914,5.065918,8.850098
8289,-0.040405,-0.158936,1.063599,-2.319336,5.004883,9.704590
8299,-0.042725,-0.141479,0.965576,-2.746582,4.760742,9.948730
8308,-0.048950,0.004639,0.971558,-2.807617,4.760742,10.253906
8319,0.004517,-0.031250,0.938110,-3.112793,4.638672,10.742188
8329,-0.020752,0.010986,0.918823,-4.150391,4.455566,11.108398
8340,-0.011719,0.026855,0.984131,-5.004883,4.699707,11.840820
8349,0.028687,-0.011108,0.928833,-4.943848,4.638672,11.596680
8358,-0.052124,0.127930,1.020142,-4.089355,4.638672,11.779785
8369,-0.013306,0.080566,1.036499,-3.845215,4.394531,11.230469
8378,-0.001099,-0.036621,1.022827,-3.601074,3.906250,10.314941
8389,0.015625,0.030518,1.069824,-2.685547,3.662109,9.643555
8398,0.006226,0.028687,1.080811,-1.281738,3.234863,9.521484
8411,0.015015,-0.177979,0.926636,-0.244141,2.868652,9.033203
8420,0.039795,-0.104248,0.859497,0.061035,3.295898,9.521484
8429,0.048340,-0.223877,0.792236,-0.061035,3.234863,9.826660
8439,0.059326,-0.150513,0.783447,-0.976562,3.051758,9.887695
8449,0.059326,-0.176392,0.829224,-1.281738,2.197266,9.948730
8458,0.067505,-0.265747,0.838135,-1.708984,1.831055,9.887695
8470,0.025757,-0.094238,0.954712,-2.380371,1.464844,9.826660
8479,0.082642,-0.044922,0.985718,-2.197266,0.854492,9.887695
8490,0.050659,-0.152344,1.026978,-2.380371,0.122070,9.521484
8499,0.033569,0.030640,1.131592,-2.563477,0.183105,9.155273
8509,0.047363,-0.178711,1.030518,-2.685547,-0.366211,8.789063
8519,0.027832,-0.240845,0.993896,-3.234863,-0.427246,8.117676
8529,0.049561,0.057251,1.064209,-3.967285,-0.549316,7.568359
8540,0.031494,0.096313,1.062378,-3.723145,-1.281738,7.080078
8549,0.029541,0.022217,1.023560,-3.967285,-1.342773,6.958008
8560,0.030640,0.028687,1.061035,-4.211426,-1.159668,6.896973
8570,0.000366,-0.112671,0.939819,-4.272461,-1.281738,6.469727
8579,-0.002441,0.067871,0.966064,-4.821777,-1.586914,5.676270
8588,0.038574,0.022827,1.038818,-5.065918,-1.342773,5.493164
8599,-0.009644,-0.093750,0.904175,-4.882812,-1.403809,5.187988
8609,-0.015991,0.117920,1.025391,-4.638672,-1.647949,4.333496
8619,-0.032837,0.026855,1.030762,-3.784180,-1.586914,3.601074
8629,-0.020630,-0.026123,1.016479,-3.540039,-1.220703,3.417969
8639,-0.006958,-0.015991,1.040771,-3.051758,-1.098633,3.723145
8649,-0.050781,-0.266602,0.880371,-2.502441,-0.854492,4.028320
8658,-0.030640,-0.151611,0.925781,-3.051758,-1.098633,4.455566
8669,-0.023315,0.004272,0.976318,-3.112793,-0.488281,4.882812
8679,-0.041626,-0.211548,0.893921,-3.112793,-0.061035,5.310059
8689,-0.064453,-0.134155,0.946533,-3.356934,0.976562,6.286621
8700,-0.007935,-0.238037,0.956909,-3.173828,1.098633,6.835937
8710,-0.048462,-0.152222,0.970337,-2.990723,1.159668,7.202148
8719,-0.031860,0.037354,1.077637,-2.685547,1.159668,7.263184
8728,-0.001343,-0.201904,1.029907,-1.770020,1.342773,7.324219
8739,0.025269,-0.197754,0.932007,-1.342773,1.281738,7.263184
8749,-0.017456,0.010498,1.019653,-1.220703,0.915527,7.263184
8760,0.007446,-0.267090,0.902710,-0.671387,0.305176,7.385254
8770,0.026245,-0.106567,0.955933,-0.732422,0.915527,7.446289
8779,-0.021118,-0.156860,0.943848,-0.915527,0.976562,7.812500
8788,0.013062,-0.212646,0.881714,-1.525879,1.098633,8.117676
8798,0.003784,-0.014282,0.958252,-2.197266,1.342773,8.361816
8809,-0.015503,-0.065063,0.922363,-2.685547,0.915527,7.995605
8818,-0.083984,-0.199707,0.918457,-3.112793,0.732422,7.751465
8831,-0.020142,0.102417,1.091064,-3.112793,1.281738,7.812500
8840,-0.034790,-0.195923,1.043823,-2.990723,1.159668,8.300781
8849,-0.051758,-0.093994,1.108643,-2.746582,1.525879,8.544922
8859,-0.009888,0.179321,1.215454,-2.197266,1.647949,8.911133
8868,-0.032227,0.074829,1.222656,-0.854492,1.708984,9.216309
8879,-0.024658,-0.148193,1.079834,0.732422,1.892090,9.216309
8889,0.025635,-0.206421,1.060791,1.892090,1.953125,8.789063
8900,0.055664,-0.094116,0.930542,2.136230,1.647949,7.507324
8909,0.078857,-0.293457,0.844604,1.342773,0.549316,6.469727
8919,0.078247,-0.279785,0.763184,0.244141,0.122070,5.371094
8928,0.035889,0.042358,0.858887,-0.732422,-0.732422,4.394531
8939,0.041748,0.023804,0.898560,-1.770020,-0.854492,3.845215
8948,0.071777,-0.122925,0.910278,-2.807617,-0.549316,3.906250
8959,0.070923,0.036743,0.995239,-3.295898,-0.793457,3.356934
8968,-0.016235,0.050659,1.051270,-3.417969,-0.549316,3.417969
8980,0.027954,0.001709,1.068237,-2.319336,0.000000,3.112793
8989,0.048584,-0.007813,1.116089,-1.586914,-0.122070,3.479004
8999,0.021729,-0.193848,1.026611,-1.342773,-0.549316,2.685547
9008,0.003418,-0.157715,0.994751,-1.159668,-1.159668,2.197266
9019,0.056641,0.027466,1.047607,-0.854492,-0.732422,2.685547
9028,0.080566,-0.036499,1.041016,-0.671387,-0.488281,2.441406
9041,0.062012,-0.096191,0.974121,-1.342773,-0.488281,2.746582
9050,0.054932,0.116821,1.101440,-1.464844,-0.488281,2.868652
9059,0.016968,0.004028,1.084351,-1.037598,-0.915527,2.136230
9069,-0.003296,-0.238892,1.003662,-0.671387,-1.037598,1.342773
9078,0.009644,-0.068970,1.056885,-0.183105,-1.403809,0.305176
9089,0.017090,0.114136,1.111694,0.549316,-1.403809,-0.427246
9098,0.019653,-0.108154,1.008179,1.525879,-1.159668,-0.610352
9111,0.018921,-0.005493,0.947510,1.892090,-0.976562,-1.281738
9120,0.051880,-0.093262,0.930298,2.014160,-1.037598,-1.770020
9130,0.047241,-0.282593,0.788208,1.159668,-0.793457,-2.014160
9139,0.064697,-0.171631,0.832642,0.000000,-0.793457,-2.319336
9148,0.039795,-0.126587,0.931763,-1.098633,-0.915527,-2.868652
9159,0.002319,-0.230225,0.829712,-2.075195,-0.610352,-2.990723
9168,0.019043,-0.012207,0.905151,-3.356934,-0.366211,-2.929688
9181,-0.032593,-0.138794,0.984985,-4.211426,0.061035,-2.380371
9191,-0.057007,-0.019287,0.932495,-4.638672,1.037598,-1.647949
9200,0.032715,0.075073,1.102783,-4.028320,1.586914,-1.098633
9210,-0.040405,-0.138916,1.033081,-3.051758,1.525879,-0.122070
9219,-0.047363,-0.116943,1.006836,-2.563477,2.075195,0.305176
9228,0.007080,0.054199,1.078735,-1.708984,2.685547,0.854492
9239,0.040039,-0.069092,1.122070,-0.732422,2.746582,0.915527
9248,0.011719,-0.195312,1.013306,-0.671387,2.380371,0.854492
9260,0.083374,-0.038208,0.987671,0.000000,2.624512,1.220703
9269,0.083740,-0.105469,0.962158,-0.427246,2.868652,1.953125
9278,0.056519,-0.156494,0.929321,-1.220703,2.807617,2.563477
9289,0.033203,-0.049072,1.032837,-1.708984,2.929688,2.746582
9298,0.065918,-0.003174,1.076416,-1.403809,2.746582,3.173828
9309,0.020020,-0.163330,0.994263,-0.915527,2.563477,3.723145
9319,0.005981,-0.195923,1.017334,-0.671387,2.624512,4.638672
9328,0.060791,-0.052246,1.070435,-0.549316,2.868652,5.920410
9339,0.027222,-0.232056,0.989014,-0.305176,2.929688,6.530762
9348,-0.003662,-0.121704,0.939941,-0.183105,3.234863,7.507324
9359,0.066528,-0.088745,1.007324,0.061035,3.295898,8.300781
9368,0.021851,-0.268921,1.015381,-0.488281,2.929688,8.728027
9379,-0.020508,-0.293457,0.903564,-1.403809,2.746582,8.728027
9389,-0.007324,-0.048218,0.938965,-1.892090,3.356934,9.826660
9398,0.019531,0.057617,1.031982,-1.953125,3.295898,10.437012
9408,-0.043579,-0.170166,0.932739,-2.014160,3.173828,10.925293
9418,-0.058716,-0.024536,0.965088,-1.770020,3.356934,11.535645
9429,-0.028320,0.114380,1.103271,-1.770020,3.601074,12.268066
9439,-0.046143,-0.006470,1.010376,-1.770020,3.784180,12.695313
9448,-0.070068,-0.125732,0.908447,-1.586914,3.967285,13.305664
9460,-0.026978,0.062500,1.011230,-0.976562,4.272461,14.282227
9470,0.005249,-0.144165,0.907227,-0.244141,4.333496,14.709473
9479,-0.030762,-0.086060,0.856567,-0.061035,4.028320,14.770508
9489,0.041992,0.062500,0.985107,-0.244141,3.601074,15.136719
9499,0.039307,-0.058594,0.997681,-0.549316,3.662109,15.625000
9508,0.029053,-0.162476,0.924194,-0.549316,3.784180,15.930176
9520,0.027832,0.013672,0.986450,-0.610352,3.112793,16.601562
9529,0.028809,-0.104370,1.063599,-0.488281,2.624512,16.845703
9540,-0.008789,-0.214600,1.012207,-0.183105,2.258301,16.784668
9550,0.033081,0.010254,1.053955,0.183105,1.953125,16.601562
9559,0.054443,0.057739,1.119507,0.671387,1.647949,16.845703
9569,0.065430,-0.198608,1.036011,1.159668,1.403809,17.028809
9579,0.040039,-0.286255,0.950806,1.037598,0.488281,16.967773
9588,0.044434,-0.037842,1.000244,0.610352,0.122070,16.662598
9600,0.123169,-0.139648,1.023315,0.305176,-0.183105,17.150879
9609,0.063232,-0.281006,0.956909,0.000000,-1.525879,16.967773
9619,0.045410,-0.107666,1.030640,-0.427246,-2.075195,16.357422
9629,0.073853,0.021851,1.108887,-0.610352,-2.380371,15.441895
9639,0.024902,-0.109863,1.035522,-0.854492,-2.868652,14.770508
9649,0.036255,-0.117676,1.022339,-1.220703,-3.417969,13.549805
9659,0.038330,0.076904,1.111816,-1.525879,-3.540039,12.756348
9670,0.009521,-0.151855,1.040649,-1.281738,-3.967285,11.047363
9680,0.001587,-0.082397,1.017822,-0.671387,-4.272461,10.253906
9689,0.002319,0.020630,1.065918,-0.061035,-4.455566,9.582520
9699,0.014648,-0.038574,1.094360,0.549316,-4.943848,8.972168
9709,-0.003052,-0.196289,1.011108,0.671387,-4.821777,8.850098
9719,0.036133,-0.191528,0.961182,1.159668,-4.455566,9.094238
9728,0.073730,0.021851,1.036743,1.403809,-4.577637,9.338379
9740,0.079468,-0.335938,0.853394,1.647949,-4.882812,9.338379
9749,0.065552,-0.183960,0.864014,1.281738,-5.554199,9.033203
9759,0.066650,0.129272,1.013916,0.610352,-5.798340,8.300781
9769,0.050659,-0.061035,1.059326,0.732422,-6.469727,7.690430
9779,-0.000488,-0.267212,0.963257,1.159668,-6.652832,7.324219
9789,0.034180,-0.168701,1.020020,1.464844,-6.286621,6.713867
9800,0.055176,-0.036377,1.105347,2.868652,-6.774902,5.310059
9810,0.000854,-0.344116,0.864258,2.807617,-7.080078,4.089355
9819,0.075684,-0.252441,0.877808,2.502441,-6.713867,3.356934
9829,0.065308,-0.259766,0.725342,1.525879,-7.019043,2.502441
9838,0.018433,-0.359863,0.578735,0.244141,-7.385254,1.220703
9849,0.029541,-0.180542,0.737793,-1.770020,-7.446289,0.488281
9858,0.067139,-0.003418,0.925659,-3.784180,-7.507324,-0.549316
9869,0.003784,-0.065308,0.934937,-5.004883,-7.507324,-1.892090
9879,0.001343,-0.130737,0.982300,-5.920410,-6.774902,-3.417969
9889,0.068848,0.016113,1.061768,-6.225586,-7.385254,-4.455566
9899,-0.031616,0.032959,1.158569,-5.798340,-7.263184,-4.943848
9909,0.005859,0.051270,1.176880,-4.516602,-6.774902,-4.943848
9919,0.059204,-0.038574,1.059570,-3.295898,-6.286621,-4.821777
9929,0.026978,-0.174805,1.014648,-2.807617,-6.286621,-4.699707
9939,0.055176,-0.122314,0.999268,-2.624512,-6.103516,-4.760742
9948,0.069458,-0.041992,1.013184,-2.807617,-5.859375,-5.126953
9960,0.034302,-0.224121,0.858887,-3.417969,-5.981445,-5.554199
9970,0.076050,-0.068115,0.915161,-4.028320,-6.164551,-5.737305
9979,0.065918,0.191284,1.108032,-4.699707,-5.859375,-5.615234
9989,-0.012329,0.019165,1.093994,-5.126953,-6.103516,-6.164551
9999,-0.066895,-0.178589,0.939209,-5.065918,-5.615234,-5.859375
10008,0.000366,0.005615,0.966187,-4.882812,-4.943848,-5.615234
10020,-0.080200,-0.046021,1.071899,-4.577637,-4.455566,-5.920410
10030,-0.145020,-0.129883,1.043823,-4.333496,-3.662109,-5.859375
10039,-0.067993,-0.008057,1.111450,-4.150391,-2.807617,-5.371094
10049,-0.046631,0.060791,1.121216,-3.173828,-1.464844,-4.882812
10059,-0.097778,-0.126953,1.016724,-2.624512,-1.159668,-4.638672
10068,-0.093140,-0.207520,0.897217,-2.441406,-0.732422,-4.638672
10078,-0.032349,-0.045166,0.896484,-2.441406,0.183105,-4.333496
10090,0.011841,-0.128052,0.655273,-3.173828,0.366211,-3.967285
10100,0.040161,-0.000732,0.749756,-5.920410,0.793457,-3.417969
10109,0.010742,0.024292,0.818237,-7.202148,1.220703,-2.624512
10118,-0.008545,0.109375,0.966553,-7.507324,1.770020,-1.647949
10129,-0.014160,0.170166,1.033691,-6.896973,1.892090,-1.342773
10139,-0.034912,-0.003052,0.984985,-5.737305,2.319336,-0.915527
10150,-0.056641,-0.022461,1.061768,-2.563477,2.502441,-0.732422
10160,-0.028198,-0.136475,1.059814,-0.671387,3.173828,-0.122070
10169,-0.018921,-0.295898,0.931274,0.427246,3.662109,0.976562
10179,-0.023437,-0.090454,0.967773,0.793457,4.150391,1.770020
10189,0.014526,-0.080811,1.000854,0.915527,4.577637,2.136230
10199,0.031860,-0.177979,0.970093,0.427246,4.699707,2.746582
10208,0.000732,-0.152344,1.020752,0.244141,4.821777,2.746582
10219,0.026245,-0.048584,1.075928,0.366211,4.760742,3.051758
10230,0.035767,-0.320068,1.067993,0.305176,4.028320,3.540039
10239,0.009521,-0.269897,1.102783,0.854492,3.845215,4.455566
10249,0.015747,-0.028442,1.068481,1.037598,3.906250,5.615234
10259,0.020874,-0.123291,1.047852,1.403809,4.150391,6.652832
10269,0.054932,-0.223633,0.987915,0.854492,4.455566,7.690430
10279,0.034302,-0.160645,0.922485,0.122070,4.272461,8.911133
10288,0.085327,-0.065430,0.958252,-0.366211,4.211426,9.460449
10300,-0.004028,-0.106079,1.036865,-0.976562,3.845215,10.070801
10309,-0.008545,-0.051880,1.110962,-2.258301,3.417969,10.803223
10319,0.008057,-0.078369,1.099365,-1.892090,3.662109,11.230469
10329,0.002197,-0.117554,1.057129,-1.464844,3.967285,11.779785
10339,-0.066528,-0.145386,1.061523,-1.403809,3.845215,12.023926
10349,-0.031738,-0.081055,1.054443,-1.647949,3.906250,12.207031
10360,-0.026367,0.087402,1.131592,-1.892090,4.089355,13.061523
10370,-0.031982,-0.036865,1.024292,-1.220703,3.967285,12.756348
10379,0.030640,-0.141357,0.949463,0.122070,3.723145,12.573242
10389,-0.020386,-0.095215,0.984863,1.403809,3.051758,12.145996
10399,0.029907,-0.020508,1.016602,2.685547,2.075195,11.169434
10409,0.004272,-0.274048,0.817261,3.356934,1.953125,10.559082
10419,0.076416,-0.334717,0.776733,3.540039,1.953125,10.009766
10430,0.071167,-0.124878,0.845093,2.624512,0.976562,8.666992
10439,0.068604,-0.152344,0.934204,2.014160,0.854492,8.117676
10450,0.030151,-0.161865,1.027588,1.586914,0.427246,7.385254
10459,0.043701,-0.048584,1.096436,1.220703,0.244141,7.141113
10468,-0.010010,0.067993,1.148438,1.098633,0.122070,6.835937
10479,0.042236,-0.052124,1.137207,1.403809,0.366211,6.713867
10489,0.003052,-0.261230,1.050049,2.136230,0.610352,7.141113
10499,0.044189,-0.233032,0.984009,2.319336,0.671387,7.263184
10510,0.099609,-0.099609,0.985474,1.892090,-0.427246,6.958008
10520,0.070068,-0.221313,0.831665,0.854492,-0.549316,7.019043
10529,0.088257,-0.085815,0.862793,0.366211,-0.915527,7.080078
10538,0.089844,0.122314,0.989136,-0.427246,-1.159668,7.202148
10549,0.014648,-0.012573,1.037476,-1.098633,-1.403809,7.934570
10558,0.030762,-0.165283,0.917847,-1.586914,-1.342773,8.544922
10570,0.007202,0.060791,0.959229,-1.953125,-1.281738,9.704590
10580,-0.015381,-0.185913,0.793823,-1.892090,-1.403809,9.765625
10589,0.011963,-0.149170,0.764648,-2.868652,-1.647949,9.582520
10599,-0.037598,-0.016235,0.803833,-4.089355,-2.197266,9.460449
10609,-0.026733,-0.006226,0.820435,-5.126953,-2.075195,9.643555
10618,-0.023682,0.053101,0.913452,-5.920410,-1.708984,10.192871
10629,0.028931,0.081665,0.967285,-6.225586,-1.525879,10.803223
10640,-0.001831,-0.056396,0.999878,-6.103516,-1.403809,11.474609
10650,-0.040894,-0.013550,1.091187,-6.286621,-1.647949,11.230469
10659,-0.060547,0.106689,1.239258,-5.981445,-1.708984,11.108398
10669,-0.005859,-0.130859,1.133911,-5.065918,-1.525879,10.864258
10679,0.003418,-0.281982,1.005005,-4.211426,-1.464844,11.047363
10689,0.039429,-0.045288,1.057495,-3.417969,-1.525879,11.047363
10699,-0.005005,-0.014404,1.054688,-2.868652,-2.075195,10.986328
10708,0.019775,-0.235229,0.994995,-2.319336,-2.380371,10.742188
10720,0.062744,0.039063,1.087769,-2.075195,-2.258301,9.704590
10729,0.038452,-0.049561,1.080566,-2.197266,-3.112793,9.521484
10739,0.043701,-0.302124,1.037109,-1.770020,-3.417969,9.338379
10748,0.073364,-0.209717,1.062866,-2.136230,-3.356934,9.033203
10759,0.046021,-0.025146,1.122803,-2.441406,-3.540039,8.544922
10768,0.011475,-0.023682,1.081665,-2.319336,-3.723145,7.751465
10780,0.010376,-0.098999,0.982910,-2.319336,-4.150391,6.286621
10789,0.064209,-0.011841,0.928833,-2.563477,-5.065918,4.821777
10800,-0.057739,-0.143921,0.848511,-3.356934,-5.249023,3.723145
10810,-0.067505,-0.094604,0.905396,-3.601074,-4.943848,2.746582
10820,-0.017456,0.154053,1.000000,-3.540039,-4.516602,1.953125
10829,-0.033936,-0.079712,0.956787,-3.051758,-4.577637,1.281738
10839,-0.064209,-0.405273,0.843628,-2.624512,-4.333496,0.854492
10849,-0.027710,-0.100952,0.929321,-3.173828,-4.089355,0.183105
10860,-0.038330,-0.143921,0.896362,-3.662109,-3.662109,0.671387
10870,-0.004028,-0.170898,0.855591,-3.051758,-3.479004,0.976562
10880,0.067139,0.087280,0.956299,-2.685547,-2.746582,1.770020
10889,0.045166,-0.012207,1.049927,-1.831055,-2.685547,2.807617
10899,0.027466,-0.194092,0.964844,-0.671387,-2.868652,3.173828
10908,0.032715,-0.180542,1.026855,0.427246,-2.685547,3.906250
10920,0.109375,-0.037598,1.109863,2.136230,-2.929688,4.394531
10930,0.078979,-0.329102,1.032715,2.929688,-3.295898,4.333496
10939,0.046631,-0.290771,1.007080,2.929688,-3.601074,3.784180
10949,0.049072,-0.173584,0.956421,2.685547,-3.845215,2.929688
10958,0.034058,-0.124878,0.962158,2.014160,-4.211426,2.258301
10968,0.109131,-0.169678,0.955200,1.098633,-4.455566,1.770020
10979,0.045166,-0.173706,0.969360,0.000000,-4.699707,1.403809
10988,0.018921,-0.022949,1.020752,-0.610352,-5.065918,0.305176
11000,0.029419,-0.113281,1.125610,-0.854492,-4.882812,-0.305176
11010,-0.012573,-0.202026,1.102173,-0.671387,-4.821777,-1.403809
11019,-0.080688,-0.083984,1.140381,-0.732422,-4.699707,-1.586914
11029,-0.002686,0.063965,1.147705,-0.915527,-4.211426,-2.319336
11039,0.017944,0.020874,0.954834,-0.732422,-4.333496,-2.868652
11048,0.036743,-0.097046,0.873291,-1.098633,-4.699707,-3.417969
11059,0.017456,-0.170532,0.763672,-2.014160,-4.699707,-3.417969
11069,0.085327,0.047241,0.819946,-4.760742,-3.845215,-3.234863
11078,0.056030,0.126465,1.014038,-5.432129,-4.028320,-3.540039
11089,-0.043945,0.057373,0.979492,-4.760742,-3.540039,-3.662109
11098,0.011719,0.058350,1.002197,-3.540039,-3.173828,-3.967285
11109,-0.026245,0.009766,1.105469,-2.624512,-3.234863,-4.638672
11119,-0.053223,-0.091064,1.135498,-1.953125,-3.051758,-5.310059
11129,-0.090088,-0.009155,1.082275,-1.281738,-2.624512,-5.432129
11139,-0.009155,0.073975,1.101929,1.647949,-1.953125,-5.126953
11148,-0.028564,-0.235352,0.937500,2.624512,-1.892090,-5.126953
11159,-0.025513,-0.258667,0.918701,3.173828,-1.281738,-4.821777
11169,0.021118,-0.080322,0.949707,3.295898,-0.793457,-4.455566
11178,0.064209,-0.058838,1.006470,3.173828,-0.610352,-4.150391
11189,0.079590,-0.367920,0.824829,2.929688,-0.549316,-3.784180
11199,0.012939,-0.310791,0.792725,1.953125,-0.793457,-4.028320
11208,0.014648,-0.026367,0.955444,-0.183105,-0.671387,-4.943848
11220,0.026001,-0.252808,0.863770,-1.037598,-0.732422,-4.943848
11230,0.003174,-0.044434,0.927490,-1.892090,-0.732422,-5.187988
11240,0.064575,0.116455,1.070679,-2.075195,-0.305176,-4.760742
11249,0.044922,-0.105103,1.053223,-1.708984,0.366211,-4.150391
11259,-0.011719,-0.282471,1.018555,-1.464844,0.244141,-3.662109
11269,-0.007568,-0.072876,1.080933,-1.953125,0.366211,-3.234863
11278,0.046753,-0.022339,1.044556,-1.892090,1.098633,-1.281738
11288,0.024536,-0.090698,0.875244,-2.319336,1.037598,-0.366211
11299,0.039063,0.066162,0.978149,-2.929688,0.915527,0.488281
11308,0.053467,-0.127808,0.992432,-3.479004,1.464844,1.403809
11319,0.008789,-0.107422,0.946899,-4.089355,2.014160,2.197266
11328,0.021118,0.130859,1.032837,-4.333496,1.770020,2.624512
11338,0.024780,0.078247,1.098022,-3.234863,1.892090,2.990723
11350,0.014893,-0.198853,0.986938,-2.380371,2.014160,2.807617
11359,-0.026123,-0.005005,1.067383,-1.220703,1.281738,2.807617
11368,0.029053,0.064331,1.156250,-0.427246,1.098633,2.563477
11379,0.002686,-0.159180,1.059937,-0.122070,1.098633,2.624512
11388,-0.013184,-0.314331,0.928223,0.122070,1.037598,2.746582
11398,-0.032715,-0.235840,0.854736,-0.122070,0.732422,2.746582
11409,0.001709,-0.079468,0.958374,-0.549316,1.403809,3.112793
11418,-0.033203,-0.015625,1.010620,-0.915527,1.770020,3.723145
11430,0.009888,-0.265625,0.918335,-1.708984,2.075195,4.638672
11439,0.003052,-0.122803,1.053467,-2.136230,1.770020,4.882812
11448,-0.050903,-0.011353,1.092773,-3.234863,1.281738,4.821777
11459,-0.031738,-0.138062,1.031372,-3.662109,1.586914,5.187988
11468,-0.016235,-0.141357,1.057495,-3.112793,1.953125,5.310059
11478,-0.005493,0.131348,1.105713,-3.234863,1.953125,5.493164
11491,-0.025391,-0.041504,1.059814,-2.075195,2.319336,5.737305
11500,0.008301,-0.120972,1.032593,-1.281738,2.685547,5.676270
11509,-0.026978,0.035156,1.004395,-0.610352,2.563477,5.676270
11519,0.002319,0.134888,0.997803,-0.305176,2.319336,5.249023
11528,0.021729,-0.014160,1.003540,-0.061035,2.197266,5.493164
11539,0.025391,-0.283813,0.824341,0.061035,2.319336,5.920410
11548,-0.043823,-0.119873,0.772827,-0.488281,2.380371,6.286621
11561,-0.059326,-0.144531,0.677490,-1.892090,2.197266,7.080078
11570,-0.045776,-0.118774,0.721191,-3.234863,2.807617,7.507324
11579,-0.044312,0.090454,0.900635,-4.699707,3.234863,8.056641
11589,-0.053467,0.117065,0.995605,-4.943848,3.051758,8.789063
11598,-0.090698,-0.000488,1.043213,-4.150391,3.234863,9.643555
11608,-0.095581,-0.001831,1.087158,-2.807617,3.356934,10.253906
11618,-0.069580,-0.065063,1.164429,-1.525879,3.967285,11.230469
11631,-0.014648,-0.260498,1.059692,-0.183105,4.211426,12.023926
11640,0.038086,-0.054687,1.032227,0.610352,3.784180,12.390137
11650,0.111084,-0.109619,1.022949,1.220703,3.540039,12.634277
11659,0.114502,-0.343384,0.902344,1.159668,2.685547,12.695313
11668,0.127441,-0.250000,0.861694,0.366211,1.953125,12.634277
11678,0.101318,0.008789,1.021362,-0.915527,1.098633,12.451172
11689,0.094482,0.071167,1.116821,-1.953125,0.183105,12.145996
11698,0.068604,-0.107300,1.117310,-2.441406,-0.183105,11.474609
11709,0.015015,-0.014160,1.209595,-1.770020,-0.549316,10.864258
11719,0.000000,0.065674,1.218384,-1.037598,-0.854492,10.009766
11728,0.005249,-0.072876,1.192749,0.000000,-1.342773,8.911133
11739,0.017578,-0.108276,1.117798,0.488281,-1.831055,7.385254
11748,-0.014404,-0.026367,0.974976,0.610352,-2.624512,5.981445
11759,-0.045654,0.004761,0.949829,0.671387,-2.929688,5.493164
11768,0.006470,-0.011841,1.016357,-15.075684,-2.319336,5.676270
11780,-0.012939,-0.140503,0.926392,-0.671387,-1.770020,6.103516
11789,-0.015625,-0.147583,0.934814,-1.037598,-1.586914,6.286621
11799,0.006958,-0.075073,0.928711,-1.403809,-1.770020,6.347656
11808,-0.021973,-0.224243,0.790527,-1.708984,-2.075195,5.371094
11818,-0.059570,-0.151367,0.830078,-1.770020,-2.319336,4.516602
11828,0.012817,-0.008789,0.837280,-2.380371,-2.380371,4.211426
11838,0.012451,-0.160278,0.786255,-2.868652,-2.136230,4.638672
11849,-0.001953,0.069580,0.922241,-2.990723,-1.953125,5.493164
11859,0.020142,-0.083862,0.968384,-2.136230,-1.647949,6.164551
11868,-0.014404,-0.158447,1.046997,-1.342773,-1.403809,6.347656
11878,0.022461,-0.086304,1.124268,-0.671387,-1.464844,6.286621
11888,0.015503,-0.128296,1.119751,0.366211,-1.708984,6.164551
11898,0.022827,-0.341553,1.052612,1.220703,-1.892090,5.798340
11909,-0.015869,-0.319458,0.970947,0.976562,-2.563477,3.845215
11919,-0.015869,-0.144531,1.093872,1.159668,-2.380371,3.234863
11928,-0.036743,-0.154907,1.057129,0.793457,-2.136230,2.319336
11938,-0.022339,-0.159058,1.032837,0.976562,-1.831055,1.708984
11948,-0.009277,-0.228882,1.080933,1.159668,-1.281738,2.075195
11958,0.038086,-0.228149,1.143555,1.037598,-1.464844,2.258301
11968,-0.029297,-0.120850,1.152100,0.854492,-1.647949,2.197266
11978,-0.034424,-0.042480,1.112793,0.976562,-1.647949,2.075195
11989,0.066284,-0.047119,1.053589,1.037598,-1.464844,2.807617
11999,0.057983,-0.046875,1.000732,0.549316,-1.953125,2.929688
12008,0.041382,0.048584,1.020752,-0.488281,-2.380371,3.417969
12018,0.068970,0.151611,1.031006,-1.342773,-2.746582,4.089355
12028,0.009766,0.081055,0.941650,-1.586914,-2.807617,4.577637
12038,0.065063,-0.015625,0.912476,-1.892090,-2.014160,5.187988
12049,0.040283,0.049561,0.966797,-2.380371,-2.685547,4.943848
12058,0.010742,-0.010620,1.008667,-2.746582,-3.417969,3.967285
12068,-0.024414,-0.153320,0.824951,-2.746582,-3.417969,2.929688
12079,0.005005,0.035767,0.867432,-2.929688,-3.417969,1.403809
12088,-0.001709,-0.029175,0.868774,-3.540039,-3.417969,0.427246
12099,-0.013306,-0.127075,0.857422,-3.784180,-3.234863,-0.671387
12108,-0.035767,0.099243,0.980469,-3.723145,-3.234863,-1.953125
12118,-0.029907,0.112915,1.096313,-2.868652,-2.746582,-3.417969
12129,-0.036133,-0.185303,0.926636,0.000000,-2.624512,-5.920410
12139,-0.011230,-0.043945,1.030640,1.220703,-2.258301,-6.591797
12148,0.020752,-0.214355,0.960571,1.708984,-2.258301,-7.324219
12158,-0.005737,-0.365845,0.805176,1.220703,-2.563477,-7.873535
12169,0.094849,-0.233887,0.758301,0.366211,-1.953125,-7.995605
12180,0.095825,-0.147339,0.749146,-2.258301,-1.403809,-7.263184
12190,0.075684,-0.043335,0.905151,-3.479004,-0.854492,-6.958008
12200,0.040649,0.085815,1.068115,-4.272461,-0.732422,-6.835937
12209,0.011963,-0.078247,1.140259,-4.211426,-0.427246,-6.835937
12219,-0.059082,-0.132568,1.148804,-3.845215,-0.671387,-6.835937
12229,-0.078247,-0.013916,1.233154,-3.234863,-0.305176,-6.469727
12238,-0.082397,-0.087280,1.226318,-2.136230,0.549316,-5.615234
12248,-0.026978,-0.148193,1.105835,-1.037598,1.281738,-4.638672
12258,0.021362,-0.103394,1.075928,-0.366211,1.953125,-1.525879
12269,0.065796,-0.128418,0.966553,-1.403809,1.892090,-0.305176
12279,0.099609,-0.076538,0.974243,-2.502441,1.586914,0.549316
12288,0.096436,-0.040771,1.018921,-3.479004,1.464844,1.708984
12298,0.057861,-0.032104,1.057251,-3.723145,1.403809,2.502441
12308,0.027100,-0.046997,1.014160,-4.394531,1.770020,3.295898
12318,0.024414,-0.191895,0.896484,-4.577637,1.831055,4.150391
12329,0.024536,-0.085205,0.958862,-5.126953,1.708984,5.004883
12338,-0.035400,0.000610,1.038696,-4.882812,1.831055,4.516602
12349,-0.060669,-0.103882,0.896729,-4.394531,1.525879,4.150391
12358,0.013428,0.059082,0.979370,-3.662109,1.770020,4.272461
12368,-0.011719,0.027222,1.007080,-2.868652,1.708984,4.211426
12378,0.002563,-0.146851,0.918457,-2.197266,1.525879,4.211426
12388,0.018066,-0.116821,0.933228,-1.708984,2.075195,4.089355
12400,0.038208,-0.299072,0.792236,-0.915527,1.342773,3.540039
12409,0.038452,-0.328247,0.709717,-1.342773,1.037598,3.295898
12419,0.047974,-0.219238,0.798462,-2.014160,0.915527,3.051758
12428,0.033569,-0.126465,0.873657,-3.173828,0.732422,2.868652
12438,-0.004272,-0.094238,0.867920,-4.089355,0.671387,2.990723
12448,-0.002441,0.020752,0.989136,-3.967285,0.976562,3.417969
12458,-0.009644,-0.082642,1.062866,-3.356934,1.342773,3.540039
12470,-0.130981,-0.087524,1.129761,-1.892090,1.586914,3.906250
12480,-0.084717,0.061157,1.238525,-1.098633,1.953125,4.211426
12489,-0.052124,-0.119751,1.164673,-0.061035,2.197266,4.943848
12498,-0.010986,-0.264282,0.981079,0.488281,2.258301,5.554199
12509,-0.038818,-0.206421,0.869995,0.549316,2.563477,6.042480
12518,0.022461,-0.025146,0.907715,-0.061035,2.624512,6.530762
12528,0.053711,-0.028564,0.982300,-1.037598,3.051758,7.263184
12540,0.012207,-0.055542,0.921997,-3.723145,2.502441,7.385254
12550,0.038940,0.103638,1.045898,-4.272461,2.685547,7.812500
12559,0.020264,0.036255,1.074097,-4.211426,2.868652,8.178711
12568,-0.010986,-0.079590,1.054932,-4.333496,2.258301,7.690430
12579,0.017822,0.044189,1.133789,-4.455566,1.831055,7.141113
12588,-0.023437,0.146606,1.131592,-4.089355,1.708984,7.080078
12598,0.026855,0.010376,1.050415,-3.295898,1.586914,7.080078
12610,0.027954,0.008057,1.035156,-1.770020,1.403809,7.324219
12620,-0.029785,0.024780,1.062866,-1.281738,1.403809,7.568359
12629,0.049072,-0.138306,0.979736,-0.976562,0.732422,7.995605
12638,0.028442,-0.254639,0.838501,-0.732422,0.549316,8.178711
12648,0.072998,-0.147827,0.819946,-0.793457,-0.061035,8.605957
12659,0.053711,-0.165405,0.801392,-1.342773,-0.305176,8.728027
12668,0.064819,-0.221313,0.771118,-2.868652,-0.366211,9.094238
12678,0.079590,-0.049316,0.857300,-4.516602,-0.122070,9.887695
12689,0.013428,-0.033203,0.905151,-5.065918,-0.671387,9.704590
12699,0.008911,-0.009155,0.962280,-5.065918,-1.037598,9.277344
12708,0.039307,0.051270,1.128906,-4.760742,-1.281738,8.728027
12719,-0.061768,-0.137573,1.025879,-3.662109,-2.014160,7.873535
12728,-0.007446,-0.166016,1.011108,-2.685547,-2.075195,7.385254
12739,0.004272,0.032715,1.083984,-1.708984,-1.770020,7.141113
12748,0.027588,-0.089111,1.004395,-0.732422,-1.831055,5.920410
12759,0.024292,-0.130005,0.958008,-1.525879,-2.319336,5.126953
12769,0.010010,0.000977,1.031860,-2.136230,-2.319336,4.516602
12778,0.011230,-0.333130,1.010254,-2.319336,-2.380371,3.967285
12788,0.031860,-0.314697,0.921753,-3.051758,-2.502441,3.417969
12798,0.003174,0.030396,1.015747,-3.601074,-2.746582,2.990723
12808,-0.019775,-0.000732,1.164185,-3.479004,-2.502441,2.624512
12820,-0.008179,-0.188599,1.042358,-2.624512,-2.502441,1.220703
12830,-0.095947,-0.000854,1.113770,-2.014160,-2.929688,0.610352
12839,-0.075439,0.022461,1.104370,-1.525879,-2.563477,0.488281
12849,-0.065063,-0.234375,1.088135,-0.854492,-1.281738,1.098633
12858,-0.050415,-0.289917,0.957397,-0.549316,-1.098633,1.281738
12868,-0.109985,-0.092773,0.901978,-0.610352,-0.671387,1.342773
12878,-0.082153,-0.064697,0.957275,-0.366211,0.061035,2.197266
12890,-0.046509,-0.167358,0.882690,-2.502441,0.915527,3.356934
12900,-0.109741,0.071167,1.013428,-3.662109,0.915527,3.967285
12909,-0.055298,0.111694,1.041138,-4.211426,1.708984,5.187988
12918,-0.063721,-0.143921,0.964355,-4.150391,2.563477,6.835937
12928,-0.089111,-0.077881,0.970215,-4.150391,2.746582,8.300781
12938,-0.068481,0.172241,1.091064,-3.784180,3.479004,9.277344
12948,-0.056396,0.047607,1.176392,-2.990723,3.601074,10.192871
12959,-0.012207,-0.158936,1.010742,-0.671387,3.173828,10.742188
12968,-0.054932,0.033081,1.002319,0.366211,3.295898,10.864258
12978,0.010376,-0.058960,1.016357,0.854492,2.868652,10.864258
12987,0.015625,-0.237671,0.922485,0.915527,2.624512,10.681152
12998,-0.026245,-0.204224,0.887817,0.732422,2.502441,10.437012
13008,0.035522,-0.024414,0.934937,0.549316,2.136230,10.314941
13017,0.043091,-0.090942,0.919434,0.244141,1.892090,10.009766
13029,-0.010742,-0.324341,0.767212,-0.976562,1.098633,8.178711
13038,-0.020508,0.023682,0.979248,-1.831055,0.854492,7.629395
13048,-0.008789,-0.059448,0.948730,-2.319336,0.732422,7.080078
13058,-0.037231,-0.154541,0.913208,-2.685547,0.488281,6.469727
13068,0.015137,-0.042847,1.023560,-2.685547,0.915527,6.835937
13078,0.006714,0.025879,1.123657,-2.624512,1.403809,7.141113
13088,0.026733,-0.089966,1.083130,-2.685547,1.098633,6.958008
13098,-0.000244,-0.136108,1.037354,-2.380371,0.793457,6.530762
13109,0.098022,0.008789,1.112915,-1.586914,-0.061035,6.347656
13119,0.100586,-0.176880,1.030640,-1.098633,-0.671387,5.981445
13128,0.117798,-0.292969,0.953735,-1.159668,-0.793457,5.249023
13138,0.085449,-0.153809,0.927856,-1.708984,-1.342773,4.333496
13148,0.122437,0.120850,1.015991,-2.502441,-2.136230,3.173828
13158,0.094604,0.134033,1.062744,-2.624512,-2.563477,1.892090
13168,0.085449,-0.119507,0.997681,-2.441406,-2.746582,-14.709473
13179,0.022827,0.042358,0.978149,-2.380371,-3.234863,-1.037598
13189,0.016846,0.123901,1.083984,-2.502441,-3.479004,-1.525879
13198,-0.005005,-0.073975,1.035034,-2.319336,-3.662109,-2.136230
13208,-0.026001,-0.160767,0.977539,-2.136230,-2.807617,-2.502441
13217,0.043335,-0.076782,1.015259,-1.647949,-2.319336,-2.441406
13228,0.056152,-0.019531,1.090820,-1.464844,-2.258301,-2.990723
13238,-0.017212,-0.119385,1.035278,-1.464844,-2.624512,-3.723145
13249,0.098511,-0.070801,0.985596,-0.976562,-2.380371,-5.004883
13259,0.088745,-0.092896,0.991577,-0.610352,-2.502441,-5.126953
13268,0.045410,-0.194458,0.950562,-0.976562,-2.868652,-5.554199
13278,0.082031,-0.117554,0.955078,-1.831055,-2.746582,-5.676270
13287,0.061401,-0.023682,1.038940,-2.014160,-2.319336,-5.187988
13298,0.029175,-0.000488,1.053101,-1.892090,-2.868652,-5.065918
13307,0.027466,-0.062988,1.021240,-1.647949,-2.502441,-5.187988
13319,-0.008789,-0.034058,1.047974,-0.122070,-1.708984,-4.333496
13329,0.033203,0.130737,1.089233,0.549316,-1.464844,-3.662109
13338,0.078003,-0.102173,1.049194,1.281738,-0.427246,-2.990723
13348,0.072266,-0.268066,0.944458,1.525879,-0.732422,-2.990723
13358,0.053223,-0.187988,0.905640,1.647949,-0.915527,-2.990723
13368,0.048340,-0.044922,0.935547,1.586914,-1.342773,-3.234863
13378,0.114868,-0.013428,0.989136,1.220703,-1.342773,-3.662109
13389,0.062744,-0.395752,0.761230,0.122070,-1.525879,-3.234863
13398,0.065552,-0.142456,0.850098,-1.037598,-1.098633,-2.563477
13408,0.119751,-0.033203,1.023315,-1.586914,-1.098633,-2.075195
13417,0.035889,-0.135864,1.023560,-1.831055,-1.586914,-1.403809
13428,-0.051880,-0.139282,0.952881,-1.586914,-1.403809,-0.976562
13437,-0.006592,-0.003784,0.960327,-0.915527,-1.098633,-0.427246
13449,-0.043579,-0.019043,1.063843,-0.366211,-0.427246,1.037598
13458,-0.037964,-0.242920,0.675171,-1.098633,0.122070,1.342773
13469,0.038086,0.033203,0.852539,-1.953125,0.671387,1.831055
13478,0.044189,0.011230,0.927734,-2.746582,0.854492,2.685547
13488,-0.000488,-0.139526,0.850708,-3.845215,0.549316,2.929688
13498,0.006470,-0.097168,0.895752,-5.004883,0.610352,3.295898
13507,-0.000854,-0.010620,1.103271,-5.676270,0.854492,3.784180
13519,0.004883,0.155273,1.253662,-5.493164,1.037598,4.211426
13528,-0.122681,-0.215820,0.939697,-5.554199,1.220703,4.089355
13539,-0.047852,0.206055,1.267456,-5.859375,1.770020,4.211426
13548,-0.035156,-0.005005,1.069946,-5.126953,1.586914,4.638672
13557,-0.069092,-0.164429,1.014160,-4.577637,1.708984,3.723145
13568,-0.038330,-0.048950,0.996216,-4.760742,1.708984,3.601074
13577,-0.019897,0.101929,1.010254,-4.455566,2.258301,4.455566
13589,0.015137,0.096558,1.088501,-3.906250,2.563477,6.408691
13598,0.038574,-0.236816,1.020142,-4.333496,3.051758,7.507324
13608,0.017090,-0.083740,0.997437,-4.516602,2.746582,7.812500
13617,-0.014648,0.092285,1.059814,-4.455566,2.502441,8.605957
13628,-0.019287,0.055420,1.109253,-4.089355,1.770020,8.911133
13638,-0.054565,-0.089478,1.048828,-3.723145,1.403809,9.216309
13647,-0.054443,-0.168945,1.045532,-2.929688,2.197266,10.131836
13659,-0.006104,-0.011108,1.035278,-2.624512,2.441406,11.962891
13669,0.004761,-0.080322,1.048340,-1.892090,2.868652,13.000488
13678,-0.038696,-0.219116,1.006592,-1.403809,2.746582,13.610840
13688,0.004272,-0.180542,1.046143,-1.159668,2.746582,13.671875
13698,0.046021,-0.010864,1.077148,-0.732422,2.807617,13.549805
13708,0.046631,-0.099121,1.081177,0.000000,2.441406,13.366699
13717,-0.023682,-0.165894,1.025879,0.549316,1.525879,12.390137
13729,-0.046143,-0.118774,0.983887,1.525879,0.488281,10.620117
13738,-0.000122,0.038452,1.057739,2.319336,0.488281,10.192871
13748,0.012329,0.072632,1.033691,2.929688,0.305176,9.948730
13757,0.032715,-0.034302,1.017212,4.150391,0.244141,10.314941
13768,0.048950,-0.178955,1.003296,5.615234,0.183105,11.047363
13778,0.050171,-0.253418,0.974487,6.225586,-0.366211,10.925293
13788,-0.011963,-0.115845,0.931152,6.347656,-1.159668,10.131836
13799,0.029419,-0.130493,0.949829,5.920410,-1.647949,9.460449
13809,-0.029907,-0.148926,0.895996,5.432129,-1.647949,9.216309
13818,-0.024292,-0.264771,0.927002,5.737305,-1.586914,9.216309
13827,-0.039185,-0.197754,1.034912,5.493164,-1.281738,9.643555
13838,-0.107788,0.071533,1.028198,5.065918,-1.464844,9.338379
13848,-0.039429,-0.177856,1.001953,5.798340,-1.342773,9.399414
13858,-0.002075,-0.388916,1.015503,5.920410,-1.281738,9.216309
13869,-0.007813,-0.194214,0.966675,4.577637,-2.197266,7.995605
13879,0.055420,-0.186035,1.002563,4.272461,-2.502441,8.300781
13888,0.099731,-0.158447,0.928955,3.234863,-2.868652,7.995605
13897,0.028687,-0.192139,0.899170,2.319336,-3.356934,7.324219
13908,0.037354,-0.288940,0.977783,1.525879,-3.479004,7.385254
13918,0.031006,-0.200073,0.999146,0.488281,-2.868652,7.324219
13927,0.018311,-0.057129,1.017822,-0.183105,-3.234863,6.347656
13940,0.017822,-0.120361,1.041382,-0.427246,-3.662109,4.394531
13950,0.052002,-0.119629,1.025513,-0.915527,-3.845215,3.479004
13959,-0.009644,-0.164917,1.004517,-1.098633,-4.272461,2.197266
13968,0.001831,-0.104004,0.972168,-1.464844,-4.516602,0.793457
13978,0.030518,0.039063,0.962402,-2.136230,-4.455566,-0.061035
13987,0.071777,0.049194,0.960571,-2.746582,-4.333496,-0.671387
13998,0.061401,-0.006226,0.964111,-3.479004,-4.699707,-1.525879
14007,0.040894,-0.018799,0.980835,-4.455566,-4.943848,-1.831055
14019,0.014038,0.126099,1.026123,-4.943848,-5.249023,-2.563477
14028,0.096436,0.032349,1.042114,-4.882812,-5.432129,-3.051758
14038,0.069702,-0.167603,0.953003,-4.943848,-5.126953,-3.173828
14048,0.069458,-0.067993,0.892456,-5.310059,-5.737305,-3.540039
14058,0.039795,0.152954,0.979126,-5.371094,-5.859375,-3.784180
14067,0.077148,0.003906,0.967529,-5.554199,-5.859375,-3.967285
14079,0.036987,-0.216797,0.877197,-6.286621,-5.432129,-5.554199
14089,-0.007690,0.080200,1.078857,-6.652832,-5.432129,-6.408691
14098,-0.009766,0.064453,1.168579,-6.408691,-5.371094,-7.324219
14107,-0.028564,-0.135376,1.042358,-5.676270,-5.004883,-8.605957
14118,-0.068115,-0.174194,0.957031,-5.004883,-4.638672,-9.033203
14128,0.000977,0.053589,1.070923,-4.760742,-3.967285,-9.277344
14137,0.007690,0.078613,1.088989,-4.516602,-3.601074,-9.643555
14149,-0.004883,-0.110474,1.001221,-3.784180,-2.746582,-9.826660
14159,-0.008423,0.006226,0.969116,-3.173828,-2.624512,-9.521484
14168,0.058105,-0.011719,1.090942,-2.563477,-2.502441,-9.399414
14178,-0.008545,-0.136597,1.047607,-2.319336,-1.953125,-9.094238
14188,-0.026978,-0.177368,0.968018,-1.708984,-1.586914,-8.728027
14197,-0.051636,-0.095703,0.964111,-1.098633,-0.671387,-7.873535
14208,0.008057,0.005737,0.959961,-0.610352,-0.366211,-7.385254
14217,-0.017700,-0.233398,0.822754,-0.366211,0.061035,-6.835937
14229,-0.014648,0.031982,0.856934,-1.892090,0.610352,-6.164551
14239,-0.009644,0.008667,0.849609,-2.502441,1.220703,-4.943848
14248,-0.007446,-0.193604,0.755371,-2.929688,1.831055,-3.479004
14258,-0.014648,-0.090454,0.834595,-3.417969,2.441406,-1.647949
14267,-0.024170,0.082397,1.008423,-3.845215,3.112793,0.122070
14278,-0.045288,-0.082520,1.052002,-3.967285,3.662109,1.586914
14287,-0.033447,-0.104736,1.033081,-3.784180,4.028320,2.136230
14299,-0.055908,0.120605,1.155640,-3.417969,3.967285,3.356934
14308,-0.094360,-0.093506,1.085327,-1.159668,4.333496,3.906250
14318,-0.037476,-0.272339,1.052734,-0.305176,4.760742,4.516602
14327,0.000366,-0.171387,1.111938,0.000000,5.249023,5.249023
14338,0.019531,0.033691,1.103516,0.183105,5.004883,5.798340
14348,0.040649,-0.000854,1.092651,0.793457,4.760742,6.408691
14360,0.045776,-0.245483,0.952271,1.892090,4.272461,8.605957
14369,0.068237,-0.243774,0.967896,1.708984,4.272461,9.155273
14379,0.037964,-0.066040,1.019897,0.976562,3.967285,9.582520
14388,-0.008423,0.043823,1.075684,0.488281,3.479004,9.338379
14398,-0.043945,-0.035645,1.036133,0.244141,2.868652,8.911133
14407,-0.057617,-0.154663,1.014038,0.488281,3.112793,8.544922
14418,-0.084717,-0.200684,1.038330,0.915527,3.234863,8.117676
14427,-0.052246,-0.112671,1.100098,0.976562,3.051758,7.507324
14439,-0.006226,-0.161255,1.007568,1.220703,3.479004,7.019043
14448,-0.003662,-0.200195,0.928223,1.220703,3.662109,7.019043
14457,0.008545,-0.252319,0.842041,0.610352,3.051758,6.896973
14468,0.045532,-0.032227,0.854614,-0.976562,2.441406,6.469727
14478,0.078857,0.065674,0.927612,-2.563477,2.136230,6.835937
14487,0.034668,-0.111450,0.788208,-3.784180,2.441406,7.019043
14499,-0.008911,-0.022461,0.767090,-4.943848,2.868652,7.873535
14508,-0.006592,0.022095,0.957520,-4.333496,2.624512,8.239746
14518,-0.051880,-0.041992,0.944946,-4.089355,2.502441,7.812500
14528,-0.046753,0.085449,1.021118,-3.784180,2.624512,7.446289
14537,-0.046509,0.046875,1.100830,-3.051758,2.746582,7.324219
14548,-0.036865,-0.118896,1.059814,-2.258301,2.441406,6.896973
14557,-0.036011,-0.153442,0.970093,-1.098633,3.051758,6.958008
14569,-0.011963,-0.085937,1.020386,-0.122070,3.051758,7.263184
14578,0.017212,-0.194702,0.983643,0.000000,2.685547,7.446289
14589,0.032593,-0.273315,0.877319,-0.488281,2.441406,7.446289
14598,0.038452,-0.099854,0.927856,-1.159668,2.441406,7.568359
14607,0.033813,0.031128,1.056152,-1.525879,2.075195,7.873535
14618,0.039673,-0.068970,1.102661,-1.647949,1.770020,8.056641
14627,-0.010132,-0.205200,1.095459,-1.708984,1.525879,8.178711
14639,0.012329,-0.152832,1.132080,-1.220703,1.586914,8.666992
14648,0.090820,0.049927,1.182129,-0.427246,1.159668,8.911133
14658,0.092773,-0.062012,1.119629,0.366211,0.610352,8.911133
14668,0.138428,-0.232422,1.009033,0.488281,-0.061035,9.216309
14678,0.147827,-0.243286,0.880493,-0.122070,-0.610352,9.094238
14687,0.149292,-0.045166,0.880737,-1.220703,-1.220703,9.277344
14698,0.165405,-0.278442,0.393188,-2.380371,-2.014160,9.338379
14707,0.161865,-0.120850,0.520752,-5.920410,-3.051758,8.728027
14719,-0.041748,0.424683,1.208008,-9.887695,-3.112793,7.812500
14728,-0.069092,0.096313,1.151489,-9.582520,-2.258301,7.507324
14738,-0.048340,-0.172729,0.958252,-7.934570,-1.953125,6.225586
14747,-0.027100,0.077026,1.107056,-7.507324,-3.601074,4.211426
14758,-0.045898,0.116577,1.235474,-6.530762,-4.760742,2.563477
14767,-0.104126,-0.020386,1.099365,-3.906250,-4.028320,3.112793
14779,-0.030396,-0.000488,0.999390,-0.366211,-2.563477,4.760742
14788,-0.041382,-0.248901,0.874146,0.244141,-2.624512,5.310059
14798,-0.034058,-0.269775,0.886719,0.427246,-2.380371,5.615234
14807,-0.001221,-0.092896,0.877197,0.244141,-1.770020,6.042480
14818,-0.025757,-0.085449,0.895142,0.000000,-1.892090,5.920410
14828,-0.035156,-0.246704,0.904297,0.244141,-2.380371,5.676270
14838,-0.041748,-0.240967,0.958252,0.427246,-1.953125,5.798340
14848,-0.020508,-0.074219,1.051392,0.122070,-2.075195,5.920410
14859,-0.027344,-0.287354,1.052856,-0.061035,-1.342773,6.347656
14869,-0.036743,-0.263794,1.015747,-0.183105,-0.854492,6.652832
14878,-0.048096,-0.161133,1.015137,0.000000,-1.159668,6.530762
14888,0.015869,-0.173950,1.034424,0.000000,-1.342773,6.469727
14897,0.008789,-0.272095,1.048218,-0.610352,-1.220703,6.347656
14908,-0.023682,-0.108643,1.026978,-1.647949,-1.708984,6.042480
14917,-0.008545,-0.089966,1.032349,-2.014160,-1.525879,5.798340
14929,0.043457,-0.145020,0.992065,-2.563477,-1.708984,4.577637
14938,-0.024780,-0.015015,1.003418,-3.540039,-2.502441,3.601074
14948,0.044189,0.063477,1.071899,-3.784180,-2.319336,2.868652
14957,0.066040,0.056152,1.058594,-3.967285,-1.892090,2.563477
14968,0.096924,0.041260,0.979248,-4.211426,-2.685547,2.197266
14978,0.039063,0.185669,1.009277,-4.333496,-3.295898,1.770020
14987,0.077271,0.000488,1.044800,-2.685547,-2.746582,1.464844
14999,0.080811,0.188965,1.050903,-0.915527,-3.967285,-0.671387
15008,0.030884,-0.070557,1.004517,0.610352,-4.394531,-1.281738
15018,0.081177,-0.304077,0.932739,2.136230,-4.272461,-2.014160
15027,0.065430,-0.133057,0.942871,1.342773,-4.089355,-2.624512
15037,0.056641,0.049072,0.979492,0.610352,-4.272461,-3.356934
15048,0.091919,-0.182983,0.862061,0.610352,-4.455566,-4.028320
15057,0.074585,-0.341797,0.727783,0.183105,-5.004883,-4.516602
15069,0.029663,-0.014282,1.041016,-1.403809,-5.065918,-6.103516
15078,0.053711,-0.183350,1.095581,-2.014160,-5.065918,-6.347656
15088,-0.022705,-0.275513,0.977661,-2.258301,-4.943848,-6.408691
15098,0.015991,-0.078979,0.999878,-2.197266,-4.882812,-6.896973
15107,-0.024902,-0.020996,1.145142,-1.220703,-4.638672,-6.835937
15117,0.015381,-0.175903,1.128174,-0.732422,-3.906250,-6.958008
15129,-0.041992,-0.247437,1.026611,-0.427246,-3.417969,-7.629395
15139,0.046875,0.042236,1.036499,-0.671387,-3.234863,-8.117676
15148,0.046509,0.103516,1.041260,-0.793457,-3.295898,-8.605957
15158,0.008545,-0.074219,1.012939,-0.732422,-3.234863,-8.850098
15167,0.024902,-0.192871,0.972290,-0.976562,-2.807617,-9.155273
15178,0.006958,-0.057983,0.946167,-1.525879,-2.624512,-9.216309
15187,0.011108,0.163086,1.001587,-1.831055,-2.319336,-8.850098
15199,0.054687,0.140015,1.025391,-1.770020,-1.281738,-7.385254
15208,0.010620,-0.019043,1.049927,-1.525879,-0.793457,-6.774902
15218,-0.026733,0.057983,1.105957,-1.159668,-0.549316,-6.347656
15228,0.018555,0.058716,1.098511,-0.610352,-0.366211,-5.920410
15237,-0.041138,-0.081421,1.009644,0.061035,-0.305176,-5.554199
15248,-0.036987,-0.104004,0.933838,0.854492,0.061035,-5.187988
15258,-0.033081,-0.016479,0.945435,1.586914,0.671387,-4.638672
15267,0.027222,-0.095825,0.988892,1.831055,1.464844,-4.272461
15278,-0.015625,-0.202759,0.800049,1.281738,1.953125,-3.723145
15288,0.028320,0.025269,0.938599,-0.488281,1.770020,-3.173828
15297,0.006348,-0.009155,1.041626,-1.037598,2.075195,-2.685547
15308,-0.027100,-0.200073,0.974731,-1.464844,2.197266,-2.197266
15317,-0.094238,-0.146606,0.926636,-1.586914,2.685547,-1.281738
15328,-0.065430,0.063477,1.044312,-1.403809,3.295898,-0.366211
15338,-0.049683,-0.040405,1.037354,-1.098633,4.150391,1.892090
15349,-0.016846,-0.127441,0.957520,0.122070,4.211426,2.746582
15359,-0.038696,0.006592,1.034180,0.549316,4.272461,3.845215
15368,-0.047363,-0.088257,0.998291,0.488281,4.516602,4.760742
15377,-0.022461,-0.226440,0.913940,0.183105,4.943848,6.164551
15388,-0.008667,-0.122559,0.907104,-0.183105,5.554199,7.934570
15397,-0.005249,0.037842,1.002075,-0.427246,5.615234,9.826660
15409,-0.059692,-0.055176,0.979126,-0.732422,6.103516,12.756348
15418,-0.051392,-0.024536,1.048950,-0.915527,6.347656,13.732910
15428,-0.055786,-0.006836,1.106079,-1.098633,5.920410,14.160156
15438,-0.082397,-0.158936,1.020996,-0.793457,5.737305,14.831543
15447,-0.067017,-0.197021,0.979370,-0.366211,5.676270,15.319824
15458,-0.034424,0.010010,1.054443,-0.305176,5.493164,15.502930
15467,-0.040894,0.069946,1.137573,-0.183105,5.187988,15.258789
15479,-0.061279,-0.221802,0.939087,-0.854492,5.432129,15.014648
15488,-0.046143,-0.038574,0.908325,-1.708984,5.126953,15.075684
15498,-0.055420,0.044067,0.921143,-2.014160,4.577637,14.892578
15507,-0.015747,-0.059814,0.981689,-2.685547,4.577637,14.831543
15518,-0.010864,-0.210815,0.901001,-3.356934,4.211426,15.197754
15527,-0.004517,-0.066895,0.902466,-3.906250,4.028320,14.709473
15538,-0.001953,0.043091,1.000977,-4.577637,3.723145,15.014648
15547,0.003418,-0.077271,0.965698,-4.821777,3.112793,15.136719
15559,0.010376,0.197266,1.132324,-5.371094,2.929688,15.319824
15568,-0.015869,0.070312,1.096680,-4.760742,2.746582,15.625000
15578,0.023682,-0.181152,1.035889,-4.150391,2.502441,15.319824
15587,0.046753,-0.081665,1.058960,-3.540039,2.136230,15.075684
15598,0.040527,0.133301,1.112427,-2.929688,1.220703,14.282227
15607,0.096802,-0.020508,1.090332,-2.136230,0.610352,13.793945
15617,0.116943,-0.265015,0.967896,-1.708984,-0.183105,13.916016
15629,0.147705,0.008911,0.974609,-1.281738,-1.586914,13.366699
15639,0.160767,-0.067749,1.037109,-1.220703,-2.502441,13.183594
15648,0.155518,-0.269775,0.949829,-1.098633,-3.479004,12.451172
15658,0.124878,-0.195557,0.881104,-1.342773,-4.577637,11.596680
15668,0.110840,0.019531,0.972290,-1.647949,-5.615234,10.375977
15677,0.097778,-0.038452,1.043213,-1.953125,-6.164551,9.033203
15687,0.062256,-0.201416,0.948486,-2.197266,-6.835937,7.934570
15697,0.021240,-0.108887,0.960449,-1.831055,-7.324219,5.004883
15708,0.045044,0.022217,0.989380,-1.464844,-7.568359,3.295898
15717,0.026855,-0.194092,0.962646,-1.342773,-8.178711,1.647949
15728,0.015015,0.002686,1.016968,-1.708984,-9.094238,-0.610352
15737,-0.003784,-0.035156,0.974365,-1.770020,-9.704590,-2.380371
15747,0.037964,-0.231201,0.910767,-2.319336,-9.765625,-3.906250
15759,0.078125,-0.048462,0.993896,-3.540039,-9.826660,-6.225586
15768,0.060547,-0.087524,1.046021,-2.929688,-9.643555,-6.958008
15778,0.059692,-0.293457,0.958984,-2.380371,-9.643555,-7.629395
15787,0.029785,-0.037109,0.954102,-2.136230,-9.521484,-8.422852
15798,0.021484,0.084473,1.013550,-1.953125,-9.277344,-9.033203
15807,0.013184,-0.269043,0.866333,-1.586914,-9.338379,-9.216309
15818,-0.006226,-0.240356,0.861938,-1.892090,-8.850098,-9.643555
15827,0.009766,0.086426,0.964233,-2.319336,-8.117676,-9.399414
15839,-0.029297,-0.243286,0.897827,-1.831055,-7.385254,-8.361816
15848,-0.016968,-0.109619,0.968506,-1.892090,-6.774902,-7.568359
15858,-0.025757,-0.068970,1.076660,-1.464844,-5.920410,-6.591797
15868,-0.084351,-0.152344,0.957886,-1.647949,-5.737305,-6.164551
15877,-0.063477,-0.188721,0.913940,-1.708984,-4.821777,-5.249023
15887,-0.034302,-0.067017,0.992432,-1.953125,-4.089355,-4.089355
15899,-0.037842,-0.058960,0.952759,-3.295898,-3.356934,-2.197266
15908,-0.091919,-0.142578,0.976196,-3.723145,-2.868652,-1.464844
15918,-0.085083,0.116821,1.100586,-3.723145,-2.563477,-0.854492
15927,-0.078369,0.006836,1.150269,-3.051758,-1.770020,0.122070
15938,-0.027100,-0.263550,1.130615,-2.380371,-1.525879,0.122070
15947,-0.009521,-0.126343,1.158203,-1.953125,-1.037598,0.305176
15958,-0.026978,0.101440,1.169434,-1.342773,-1.342773,0.366211
15967,0.000732,0.002563,1.124390,-0.488281,-1.342773,0.244141
15979,0.064209,-0.154175,0.909668,-0.061035,-1.525879,0.793457
15988,0.058472,-0.129639,0.886719,-0.061035,-1.892090,0.793457
15997,0.073364,0.036987,0.951904,-0.854492,-2.441406,1.220703
16007,0.096558,0.127686,0.991943,-1.953125,-2.624512,1.403809
16017,0.052002,-0.141602,0.861084,-2.197266,-2.929688,1.403809
16028,0.045166,-0.203491,0.854492,-2.014160,-3.051758,1.281738
16037,0.012207,0.053223,1.006226,-2.319336,-3.173828,0.610352
16049,-0.061035,-0.239258,0.762329,-2.441406,-3.784180,-1.220703
16058,0.030151,-0.050415,0.873901,-2.868652,-3.845215,-2.197266
16068,0.039429,-0.056030,0.947632,-3.417969,-3.967285,-2.868652
16077,0.004395,-0.148071,0.850464,-3.906250,-4.333496,-4.089355
16087,-0.050659,-0.058105,0.880005,-4.211426,-4.455566,-4.821777
16098,0.010376,0.051880,1.057617,-4.089355,-4.089355,-5.187988
16107,-0.026245,-0.056152,1.037354,-3.784180,-3.967285,-5.493164
16117,-0.052490,-0.235352,0.936768,-1.831055,-3.234863,-6.103516
16128,-0.013672,-0.105469,0.979004,-1.464844,-2.929688,-6.713867
16137,0.056763,-0.222656,0.930054,-1.892090,-3.479004,-7.629395
16148,0.046143,-0.099121,0.912476,-2.441406,-4.028320,-8.911133
16158,0.057251,0.074951,0.974731,-2.502441,-4.272461,-9.826660
16167,0.079712,0.045776,1.054321,-2.380371,-3.967285,-10.498047
16180,0.076782,-0.167603,0.944702,-2.197266,-3.295898,-10.498047
16189,0.068115,0.002075,1.072144,-2.441406,-3.112793,-10.559082
16199,0.010864,0.082397,1.114624,-2.746582,-3.540039,-11.230469
16208,-0.036377,-0.032593,1.045288,-2.624512,-3.417969,-12.023926
16218,-0.000854,-0.074463,1.077026,-2.258301,-3.173828,-12.695313
16228,-0.008789,0.000366,1.122314,-2.075195,-2.807617,-12.695313
16238,-0.039795,-0.011597,1.113647,-1.892090,-2.136230,-12.573242
16248,-0.044434,-0.067261,1.078247,-2.136230,-1.770020,-11.962891
16257,-0.013916,-0.009644,1.086792,-2.014160,-0.854492,-11.596680
16267,0.039673,-0.104858,1.049927,-2.075195,-0.610352,-11.047363
16277,0.031128,-0.122070,1.080322,-2.441406,-0.610352,-10.742188
16288,0.032471,-0.062988,1.067993,-2.685547,-0.854492,-10.437012
16297,-0.007324,0.013428,0.999268,-2.075195,-0.793457,-9.826660
16307,0.034912,-0.015625,1.005615,-1.708984,-0.549316,-9.338379
16319,0.054810,-0.069214,1.024902,-1.403809,0.610352,-8.178711
16328,0.003662,-0.042847,0.895020,-1.342773,0.610352,-8.239746
16338,-0.002808,0.151855,0.970215,-1.342773,0.854492,-7.934570
16348,-0.034058,-0.103760,0.894897,-0.976562,1.220703,-7.385254
16357,-0.104248,-0.210937,0.776245,-0.549316,2.014160,-6.713867
16367,-0.048706,0.015747,0.939697,-0.549316,2.868652,-5.798340
16377,-0.039673,-0.002197,1.025513,-0.366211,3.234863,-4.333496
16387,-0.086304,-0.172607,0.918701,-0.244141,3.784180,-2.929688
16399,-0.037842,0.026611,0.937012,0.427246,5.432129,-0.549316
16408,-0.024292,-0.134277,0.904785,0.793457,5.798340,0.854492
16418,-0.074707,-0.268188,0.909058,0.732422,5.676270,1.708984
16427,-0.092773,-0.065552,0.951660,0.793457,5.371094,2.075195
16437,-0.059814,0.007568,1.076660,0.976562,5.798340,2.685547
16447,-0.038452,-0.172607,1.070679,1.708984,5.493164,3.601074
16460,-0.057251,-0.196289,1.026978,2.319336,6.713867,4.394531
16470,-0.052979,-0.127197,1.069092,2.441406,6.530762,4.333496
16479,0.019897,-0.164429,0.982910,2.075195,6.225586,3.723145
16489,0.053955,-0.273926,0.931396,1.708984,6.042480,3.967285
16498,0.056885,-0.275146,0.927246,0.915527,5.432129,4.028320
16508,0.011963,-0.019653,1.071899,-0.061035,5.004883,3.906250
16517,-0.040161,0.117554,1.165771,-0.915527,5.065918,4.089355
16529,-0.055664,-0.008179,1.126221,-0.976562,5.371094,4.272461
16538,-0.019287,-0.083496,1.119629,-0.854492,5.920410,4.455566
16548,-0.010376,0.026001,1.133423,-0.854492,5.798340,4.272461
16557,-0.002441,0.002930,1.087891,-1.159668,5.249023,4.028320
16567,0.008301,0.008911,1.031860,-1.220703,4.882812,4.089355
16578,0.036621,0.057495,0.989502,-1.098633,4.821777,4.516602
16587,0.076782,0.053589,0.975586,-1.342773,4.638672,4.882812
16597,0.041870,0.032104,1.014648,-1.708984,4.638672,5.432129
16609,0.022095,-0.021484,0.998413,-2.319336,4.760742,6.469727
16618,0.011353,-0.100342,0.855347,-1.953125,4.211426,6.530762
16628,0.020996,0.094971,0.929199,-1.464844,3.723145,6.591797
16638,0.013306,0.063721,0.960571,-0.610352,3.540039,6.774902
16647,-0.010986,-0.203613,0.848999,-0.427246,3.356934,7.202148
16657,-0.009766,-0.213989,0.866455,-0.671387,2.258301,8.056641
16667,-0.001953,-0.087891,0.913086,-0.976562,2.197266,8.911133
16677,-0.030762,-0.056152,0.958740,-1.159668,3.112793,11.779785
16688,0.002563,-0.119629,1.034546,-0.549316,3.112793,13.061523
16698,-0.005249,-0.046509,1.090820,0.244141,3.234863,14.038086
16707,0.014648,-0.039185,1.142578,0.915527,2.746582,14.709473
16717,0.002930,-0.225830,1.033447,1.708984,1.892090,15.319824
16728,0.044556,-0.288330,0.909546,2.563477,1.586914,15.258789
16737,0.038696,-0.135376,0.922485,2.563477,0.610352,14.770508
16749,0.011597,-0.148193,0.945923,1.403809,-1.037598,13.122559
16759,0.042969,-0.138306,0.968506,0.671387,-1.647949,12.084961
16768,0.004150,-0.103638,0.972900,0.488281,-1.892090,10.559082
16778,0.029663,-0.090454,0.967041,0.488281,-2.563477,8.728027
16787,0.008423,-0.234375,0.955811,0.305176,-3.051758,6.652832
16798,0.023926,-0.197021,0.938721,-0.366211,-3.601074,4.638672
16807,-0.021606,0.060181,1.045776,-1.159668,-4.455566,2.563477
16819,-0.022705,-0.219482,0.949097,-1.464844,-4.089355,0.244141
16829,0.003662,-0.302002,0.894409,-1.647949,-3.906250,0.183105
16838,-0.004150,0.062988,1.020630,-2.258301,-3.845215,-0.122070
16848,-0.022217,0.110596,1.107666,-2.563477,-4.028320,0.000000
16858,-0.023437,-0.106079,1.112549,-2.624512,-3.601074,-0.061035
16867,-0.024292,-0.178955,0.996948,-2.746582,-3.723145,-0.183105
16877,-0.008789,-0.072998,1.046875,-2.258301,-3.662109,-0.488281
16889,0.039307,-0.026855,1.144531,-1.892090,-3.723145,-0.854492
16898,-0.023071,-0.160278,1.072632,-1.403809,-3.540039,-0.671387
16908,-0.027344,-0.202026,0.921753,-0.671387,-4.211426,-1.098633
16918,-0.048218,-0.094604,0.940552,-0.549316,-4.211426,-1.281738
16927,0.034302,-0.091919,1.015381,-0.488281,-3.723145,-1.098633
16937,-0.042847,-0.201904,0.920166,-0.671387,-3.784180,-1.586914
16947,-0.012817,-0.160400,0.859985,-0.854492,-3.295898,-1.770020
16959,0.035400,-0.021973,0.985107,-1.525879,-2.380371,-1.159668
16968,0.011108,-0.244141,0.940186,-1.953125,-2.502441,-1.281738
16978,-0.033325,-0.212891,0.889282,-2.380371,-2.746582,-1.159668
16988,-0.026245,0.032471,1.006104,-3.173828,-2.929688,-1.586914
16998,-0.035156,0.106445,1.052734,-3.540039,-2.685547,-2.197266
17007,-0.033691,-0.151001,0.916626,-3.295898,-2.136230,-2.075195
17017,0.021484,-0.150024,0.915161,-3.356934,-1.953125,-1.647949
17029,-0.011719,-0.005859,1.056763,-3.356934,-1.953125,-1.586914
17038,0.012695,-0.151855,0.990845,-3.173828,-1.892090,-1.159668
17048,0.052979,-0.055542,1.041016,-2.746582,-2.075195,-1.098633
17058,0.037598,0.086914,1.087036,-2.380371,-2.563477,-1.281738
17067,0.020874,-0.064819,1.065308,-1.770020,-2.624512,-1.281738
17078,0.052246,-0.237793,0.972168,-1.586914,-2.929688,-1.770020
17087,0.054810,-0.143066,0.854858,-1.586914,-3.112793,-2.258301
17099,0.044189,-0.094971,0.915405,-2.014160,-4.028320,-3.540039
17108,0.036743,-0.252319,0.870605,-2.807617,-3.601074,-3.723145
17118,0.023804,-0.068115,0.998901,-3.295898,-3.784180,-4.089355
17127,0.005127,0.134644,1.099731,-3.295898,-3.479004,-4.394531
17137,-0.045410,0.008789,1.087036,-2.502441,-3.112793,-4.455566
17148,-0.016602,-0.252686,1.062134,-1.464844,-3.112793,-4.699707
17158,-0.057495,-0.154053,1.123657,-0.854492,-2.929688,-5.432129
17167,-0.037231,0.036377,1.160156,0.061035,-2.868652,-6.103516
17177,0.001099,-0.088379,1.025391,0.549316,-2.929688,-6.408691
17187,0.014893,-0.221558,0.944214,0.549316,-3.112793,-6.896973
17197,0.015015,-0.228271,0.913330,0.610352,-2.746582,-7.019043
17208,0.020752,-0.015259,0.981567,-0.122070,-2.807617,-7.263184
17218,0.011108,0.045898,0.985840,-0.854492,-2.746582,-7.446289
17227,0.032715,-0.159058,0.827148,-1.037598,-2.380371,-7.324219
17237,0.008789,-0.030151,0.822876,-1.403809,-1.953125,-7.324219
17248,-0.034302,-0.085205,0.941162,-1.586914,-2.319336,-7.446289
17258,-0.029175,-0.031372,0.951660,-2.502441,-2.319336,-7.751465
17268,-0.029541,0.121216,1.068237,-2.563477,-1.464844,-7.507324
17278,-0.017456,0.084473,1.073486,-1.953125,-1.281738,-7.446289
17288,0.002319,-0.196289,0.990967,-1.281738,-0.793457,-6.835937
17297,0.007690,-0.250732,0.915894,-0.793457,-0.305176,-6.286621
17307,0.004639,0.053467,0.991943,-0.915527,-0.488281,-6.042480
17319,0.036987,-0.253418,0.847046,-1.159668,-0.122070,-5.859375
17328,0.024414,-0.126099,0.844482,-1.525879,-0.183105,-5.798340
17338,0.030151,0.075195,0.997925,-1.586914,-0.305176,-5.859375
17348,0.017212,-0.094238,1.015137,-1.770020,-0.427246,-5.493164
17357,-0.010864,-0.261230,0.946167,-2.075195,-0.244141,-5.126953
17367,-0.008301,-0.083618,0.985962,-2.014160,0.244141,-4.821777
17377,0.012817,0.023560,1.021606,-1.281738,0.488281,-3.967285
17387,0.040894,-0.163940,0.912109,-1.464844,0.610352,-3.723145
17397,-0.018799,-0.012695,0.999390,-1.586914,0.305176,-3.417969
17407,0.011230,-0.139038,0.971313,-2.136230,0.183105,-3.601074
17417,-0.015381,-0.216553,0.919434,-2.624512,0.244141,-3.356934
17428,0.012573,-0.066162,0.990967,-2.746582,0.305176,-2.807617
17437,0.063721,-0.029419,1.057861,-2.441406,0.732422,-1.892090
17449,0.049805,-0.238892,1.045532,-3.234863,-0.427246,-2.807617
17458,0.020386,0.010376,1.157471,-3.479004,-0.793457,-3.173828
17468,0.028320,0.054687,1.165771,-3.479004,-0.915527,-3.295898
17477,0.040283,-0.111816,1.134399,-3.295898,-0.915527,-3.173828
17487,0.044189,-0.115845,1.118164,-2.929688,-1.281738,-3.234863
17498,0.043335,-0.006348,1.130981,-2.441406,-0.915527,-2.929688
17508,0.007568,-0.017944,1.104004,-1.953125,-0.854492,-2.685547
17519,-0.023682,-0.084717,0.948608,-1.037598,-1.220703,-3.295898
17529,0.012451,-0.107056,0.941650,-1.098633,-1.098633,-3.540039
17538,-0.012329,-0.097900,0.908325,-0.976562,-0.915527,-3.540039
17548,-0.022949,-0.010376,0.941040,-1.159668,-0.549316,-3.967285
17558,-0.050415,-0.145142,0.866455,-1.831055,-0.488281,-4.211426
17567,-0.074463,-0.135742,0.883423,-2.685547,-0.122070,-4.699707
17577,-0.067505,0.062500,0.957764,-3.295898,0.061035,-4.821777
17587,-0.078003,-0.044312,1.007324,-4.028320,0.793457,-4.760742
17599,-0.127197,0.043457,0.894165,-3.417969,1.586914,-4.699707
17608,-0.083374,0.064697,1.008179,-2.685547,2.014160,-4.272461
17618,-0.077026,-0.186890,0.849487,-2.563477,2.258301,-3.540039
17627,-0.094116,-0.139771,0.849731,-2.685547,2.868652,-2.624512
17637,-0.052490,0.017212,0.924316,-2.685547,3.295898,-1.708984
17650,-0.025269,-0.125000,0.905029,-2.441406,4.089355,1.708984
17659,-0.040161,0.048584,1.014038,-2.502441,4.516602,2.990723
17669,-0.022705,0.046753,1.059692,-2.258301,4.760742,4.760742
17678,-0.038208,-0.127808,1.059448,-1.525879,4.516602,6.164551
17688,-0.003906,-0.171265,0.998047,-0.610352,4.882812,6.774902
17697,0.009521,-0.010498,1.075317,-0.061035,4.394531,7.629395
17707,0.028687,-0.048096,1.099487,0.183105,4.028320,8.056641
17717,0.047607,-0.197510,0.996216,0.061035,3.417969,8.117676
17729,0.028320,0.025024,0.998413,-0.793457,2.563477,9.094238
17738,-0.002197,0.014282,1.014893,-0.915527,2.746582,10.314941
17748,0.026611,-0.252319,0.969971,-1.037598,3.112793,10.986328
17757,-0.015747,-0.215820,0.987061,-1.586914,3.051758,10.803223
17768,-0.021118,0.103760,1.111816,-2.380371,2.441406,10.253906
17777,-0.059814,0.045166,1.156372,-2.746582,1.708984,9.338379
17787,-0.033936,-0.213745,1.085693,-2.624512,1.281738,8.361816
17799,-0.034546,0.047607,1.065796,-2.502441,0.610352,6.958008
17808,-0.014282,0.115601,1.136963,-2.502441,0.366211,6.896973
17818,-0.047485,-0.024048,1.059448,-2.685547,0.061035,6.530762
17827,-0.016113,-0.158325,0.901367,-2.563477,-0.244141,6.164551
17837,-0.007324,-0.021973,0.936523,-2.258301,0.061035,6.286621
17848,0.041138,0.072266,1.045898,-2.319336,-0.610352,6.042480
17857,-0.018066,-0.085815,0.942871,-2.258301,-1.037598,5.371094
17869,-0.042603,-0.082520,0.957153,-1.770020,-1.037598,4.699707
17878,-0.001099,0.008911,0.994873,-1.098633,-1.159668,4.516602
17888,-0.042114,-0.179687,0.897217,-1.098633,-1.281738,3.723145
17898,-0.003052,-0.218506,0.910278,-0.854492,-1.403809,3.601074
17907,0.018921,-0.017334,0.955811,-0.488281,-1.403809,4.028320
17917,0.003540,-0.051147,0.924316,-0.732422,-2.136230,3.784180
17928,-0.033203,-0.226685,0.896606,0.183105,-1.831055,4.394531
17938,0.027710,-0.044678,1.028687,0.732422,-1.770020,4.516602
17948,0.000122,-0.259644,0.966675,0.854492,-2.319336,4.150391
17958,0.003784,-0.303101,0.894897,0.915527,-2.563477,3.417969
17967,0.038696,-0.094116,1.013306,0.671387,-3.051758,2.746582
17978,0.052124,0.012207,1.098633,0.183105,-3.173828,1.708984
17987,0.044678,-0.166138,1.025391,-0.183105,-3.234863,0.732422
17999,0.061890,-0.299683,0.973877,0.000000,-4.272461,-0.976562
18008,0.070557,0.055176,1.152710,-0.549316,-4.821777,-2.197266
18019,0.010132,-0.084839,1.128784,-0.305176,-5.615234,-3.173828
18028,0.064819,-0.221069,1.059204,0.183105,-6.042480,-4.577637
18037,0.104858,-0.178101,1.067749,0.610352,-6.164551,-5.676270
18047,0.071045,-0.085693,1.035278,0.549316,-7.202148,-6.958008
18057,0.092041,-0.096069,1.040894,0.244141,-7.690430,-7.995605
18067,0.083740,-0.146240,1.044922,-0.488281,-7.690430,-8.483887
18077,0.125000,-0.156738,0.997070,-1.770020,-7.934570,-10.803223
18088,0.098877,0.042603,1.046265,-2.319336,-7.995605,-11.657715
18098,0.058594,0.118286,1.125122,-2.685547,-8.666992,-13.427734
18107,0.030273,0.001221,1.081787,-2.502441,-9.399414,-15.014648
18118,-0.017334,-0.102539,1.011841,-1.647949,-9.216309,-16.540527
18127,0.026001,0.016724,0.978271,-1.037598,-9.521484,-17.822266
18137,0.022095,0.129517,1.067017,-0.549316,-8.789063,-18.371582
18148,0.007324,-0.288696,0.833252,0.122070,-7.873535,-19.470215
18158,-0.053711,-0.101929,0.819214,-0.122070,-6.835937,-20.202637
18168,-0.017944,0.101929,0.940430,-0.793457,-6.652832,-21.179199
18178,-0.060425,0.004761,0.969849,-0.915527,-6.103516,-21.850586
18187,-0.049194,-0.189331,0.854004,-1.220703,-5.432129,-22.460937
18198,-0.122925,-0.088257,0.883179,-1.220703,-4.394531,-22.949219
18208,-0.073608,0.058716,0.983154,-1.281738,-3.967285,-22.583008
18217,-0.114746,-0.114990,0.878418,-0.915527,-1.464844,-21.789551
18227,-0.044434,0.066406,1.008179,-1.342773,-0.427246,-20.629883
18238,-0.073364,-0.031616,1.036499,-1.342773,0.183105,-19.042969
18247,-0.046021,-0.088135,1.016846,-0.732422,1.464844,-17.272949
18257,-0.068848,-0.030029,1.052979,0.000000,2.258301,-15.136719
18267,-0.020996,0.004395,1.133179,0.732422,2.990723,-13.244629
18277,-0.066772,-0.160400,1.039673,0.976562,3.479004,-11.413574
18287,-0.036011,-0.273193,0.953369,0.854492,4.638672,-8.544922
18298,0.009399,0.031494,0.936890,0.366211,5.126953,-7.019043
18308,0.004150,-0.136597,0.964355,-0.366211,5.798340,-5.676270
18317,-0.003052,-0.278320,0.944458,-1.403809,6.042480,-4.699707
18327,-0.082642,-0.055786,1.002686,-2.136230,5.920410,-3.662109
18337,-0.091675,0.164673,1.105835,-2.136230,6.591797,-2.746582
18349,-0.092407,0.059937,1.138672,-1.037598,7.629395,-0.549316
18358,-0.087891,-0.139160,0.902466,-0.854492,8.117676,0.549316
18368,-0.083618,0.056519,0.984009,-1.281738,8.789063,2.014160
18377,-0.057739,-0.043579,0.950439,-1.586914,8.911133,3.112793
18388,-0.063477,-0.102051,0.904419,-2.258301,9.033203,3.784180
18397,-0.005981,-0.047485,0.921631,-2.929688,8.789063,4.638672
18407,-0.002686,-0.097778,1.052490,-3.173828,8.972168,5.187988
18419,-0.055420,-0.191650,1.031006,-3.845215,8.239746,5.798340
18428,0.018677,0.093872,1.093506,-3.295898,8.239746,5.920410
18437,0.035156,0.012085,1.072876,-2.380371,7.934570,5.920410
18447,0.049927,-0.242676,0.934814,-1.770020,7.995605,5.798340
18458,0.057373,-0.185669,0.860840,-1.586914,7.080078,5.126953
18467,0.052490,0.033081,0.974487,-1.647949,5.981445,4.577637
18478,0.077759,-0.119263,0.997559,-2.014160,5.554199,4.089355
18487,0.005249,-0.296143,0.864502,-2.685547,4.821777,3.723145
18498,0.029175,0.070068,1.052856,-2.624512,4.760742,3.479004
18508,0.015503,-0.091064,1.062500,-2.502441,4.272461,3.479004
18517,-0.034180,-0.222412,0.984009,-2.136230,4.028320,3.051758
18527,-0.019165,-0.109619,1.016602,-1.770020,4.150391,2.807617
18537,-0.050293,-0.005859,1.032104,-1.220703,3.723145,2.685547
18547,-0.048462,-0.076660,1.024170,-1.220703,3.479004,2.380371
18558,-0.013184,-0.199585,0.889160,-1.770020,4.333496,2.441406
18568,-0.002686,0.002930,1.075195,-2.197266,4.272461,2.624512
18577,-0.065430,-0.055786,1.049805,-2.441406,3.784180,2.563477
18587,-0.036621,-0.041870,1.065308,-2.075195,4.394531,2.685547
18598,0.008057,-0.031738,1.127075,-1.342773,4.760742,2.990723
18607,-0.022095,-0.034180,1.108154,-0.915527,4.455566,3.234863
18617,-0.019409,-0.092285,1.064453,-0.854492,4.028320,2.929688
18627,-0.063110,-0.058105,1.113281,-0.793457,4.150391,3.234863
18639,-0.056152,0.058716,1.065308,0.610352,4.577637,4.089355
18648,-0.057861,-0.061890,1.005493,1.403809,4.699707,4.333496
18658,-0.054321,-0.176147,1.004272,2.014160,4.211426,4.821777
18668,-0.030518,-0.191162,0.980591,1.892090,4.516602,5.310059
18677,-0.016724,-0.108521,0.929810,1.770020,4.333496,5.554199
18687,0.004395,0.056030,0.955322,1.464844,4.394531,6.103516
18697,0.009155,-0.022583,0.952271,1.281738,4.272461,6.835937
18707,0.015137,-0.250610,0.926758,0.305176,3.784180,8.300781
18718,0.015991,0.086182,0.981079,0.000000,3.479004,8.911133
18727,0.031494,0.018433,0.976440,0.122070,2.807617,9.460449
18738,0.051147,-0.147705,0.902954,0.183105,2.746582,9.887695
18747,0.091187,-0.128418,0.916260,-0.183105,2.197266,10.498047
18758,0.046875,-0.037231,1.002197,-0.122070,1.647949,10.498047
18767,0.053711,-0.111938,0.980103,-0.183105,1.770020,10.437012
18779,0.073608,-0.068237,1.017578,-0.488281,1.281738,9.643555
18788,0.044922,0.022949,1.100220,0.061035,0.000000,8.483887
18797,-0.014771,-0.121704,1.046265,0.366211,-0.976562,7.385254
18807,-0.030518,-0.201782,0.949341,0.732422,-1.342773,5.981445
18818,-0.024170,-0.086426,0.920776,0.793457,-1.708984,4.943848
18828,0.044312,0.010254,0.998901,0.732422,-1.708984,4.638672
18839,0.020996,-0.159912,0.951538,-0.427246,-2.258301,3.356934
18848,-0.013550,-0.081299,0.909424,-0.549316,-2.014160,3.051758
18858,0.012573,0.021362,1.069092,-0.488281,-2.075195,2.441406
18868,-0.051758,-0.114990,1.021729,-0.854492,-2.807617,1.220703
18877,-0.047729,-0.303589,0.906494,-1.159668,-3.112793,0.244141
18887,-0.042114,-0.160400,0.977051,-1.647949,-2.563477,0.122070
18897,-0.013306,0.064819,0.973755,-2.319336,-2.563477,-0.610352
18909,-0.043457,-0.180664,0.906128,-3.173828,-2.197266,-0.488281
18918,0.024536,0.093506,1.022461,-4.394531,-1.831055,-0.244141
18928,-0.013794,-0.036743,1.085449,-4.577637,-1.525879,0.244141
18937,-0.052246,-0.259766,1.077271,-4.821777,-1.525879,0.244141
18947,-0.032715,-0.037842,1.123413,-4.943848,-1.220703,0.244141
18958,-0.025391,0.061401,1.190674,-3.967285,-1.159668,0.610352
18967,-0.012695,-0.041138,1.163208,-3.234863,-0.915527,0.244141
18977,-0.018188,-0.122192,1.130127,-2.685547,-1.342773,-0.488281
18987,-0.003296,-0.116211,1.062500,-1.586914,-1.892090,-1.342773
18998,0.005859,-0.062988,0.945190,-1.403809,-1.647949,-1.342773
19007,0.070923,-0.049561,0.971680,-1.281738,-1.708984,-0.976562
19018,0.083008,-0.237061,0.946411,-1.464844,-2.014160,-1.220703
19027,0.021484,-0.122925,0.905762,-1.831055,-1.892090,-1.342773
19037,0.018188,0.075928,0.987061,-1.892090,-2.014160,-1.831055
19049,0.048340,-0.019409,1.039063,-0.793457,-2.441406,-2.746582
19058,-0.029297,-0.073486,0.886597,-0.976562,-2.929688,-3.723145
19068,-0.009155,0.054932,0.987549,-0.854492,-3.051758,-3.967285
19077,-0.002319,-0.141968,0.931396,-0.976562,-2.868652,-4.150391
19087,-0.017944,-0.204712,0.883057,-1.464844,-2.502441,-4.577637
19098,-0.026611,0.012573,0.956543,-1.770020,-2.136230,-4.699707
19107,0.015259,0.059570,1.062378,-1.708984,-1.770020,-4.333496
19117,0.005371,-0.187378,1.043457,-1.342773,-1.586914,-3.967285
19129,-0.033569,-0.024048,1.045532,-1.098633,-2.075195,-5.798340
19138,0.030273,-0.013794,1.092529,0.061035,-2.197266,-6.164551
19148,0.057739,-0.182495,1.022705,0.305176,-1.892090,-6.469727
19157,0.041504,-0.150513,1.001587,0.488281,-2.197266,-6.713867
19167,0.022095,-0.090210,0.952393,1.220703,-2.380371,-6.835937
19178,0.031982,-0.050903,0.961914,1.708984,-2.014160,-6.958008
19187,0.040894,-0.201172,0.920288,1.586914,-1.953125,-7.202148
19199,0.035645,-0.087891,0.825195,1.342773,-1.708984,-7.446289
