timestamp,accX,accY,accZ,gyrX,gyrY,gyrZ
11,-0.000122,-0.005493,1.140869,-1.342773,3.417969,3.723145
21,-0.030273,-0.149658,0.987427,-0.610352,3.295898,2.868652
31,0.023926,-0.085937,1.055664,-0.366211,2.258301,1.403809
41,0.007446,-0.170410,0.914307,-0.671387,1.647949,0.488281
51,0.023804,-0.030273,1.001831,-1.037598,1.159668,0.061035
63,-0.004272,-0.068604,0.974121,-0.610352,2.258301,0.427246
73,0.014160,-0.100464,1.027222,-0.610352,2.014160,0.305176
83,0.021729,-0.155762,0.865112,-0.610352,1.953125,-0.122070
93,0.044922,0.006226,1.030396,-1.098633,1.647949,0.244141
102,-0.029053,-0.086426,0.913574,-1.098633,1.159668,0.610352
112,-0.031738,0.040283,1.066162,-1.037598,1.403809,0.793457
122,-0.025513,-0.061523,1.052368,-0.610352,2.075195,0.976562
131,0.004150,-0.116943,0.931274,-0.061035,1.647949,0.244141
141,0.033325,-0.184570,0.837402,-0.671387,0.793457,0.183105
152,-0.020142,-0.118652,0.892456,-1.159668,1.159668,1.342773
162,-0.015869,-0.182007,0.873901,-1.586914,1.892090,3.417969
172,-0.015991,-0.113037,0.936157,-2.014160,2.746582,5.249023
181,-0.026611,-0.154663,0.878174,-2.441406,2.258301,6.958008
191,-0.010986,-0.060547,0.942017,-2.929688,2.014160,8.361816
201,-0.021851,-0.123779,0.922852,-3.295898,2.075195,10.070801
212,-0.061279,0.000366,1.157715,-3.112793,2.380371,10.009766
222,-0.048706,-0.052246,1.124023,-2.258301,2.563477,9.216309
232,0.000977,0.007690,1.133545,-1.159668,2.014160,7.995605
241,0.048706,-0.230835,1.024780,-0.244141,1.586914,6.286621
251,0.030518,-0.186646,0.892334,-0.122070,1.159668,4.882812
261,0.036133,-0.188965,0.960327,-0.732422,-0.122070,4.882812
271,-0.000366,-0.151611,0.946045,-2.258301,0.366211,7.507324
280,-0.056519,0.069580,1.120605,-1.586914,3.479004,8.666992
291,-0.077637,-0.092896,1.082886,-1.464844,1.464844,9.216309
301,-0.060303,-0.122803,1.045898,-0.793457,1.708984,7.446289
311,-0.061035,-0.249023,0.945190,-0.732422,1.159668,5.920410
321,-0.019897,-0.072144,0.988892,-1.403809,0.610352,4.211426
331,-0.068115,-0.082275,0.966064,-2.197266,0.427246,3.479004
341,-0.026367,0.010376,0.990723,-2.807617,0.671387,3.417969
352,0.031250,-0.064941,0.968262,-2.807617,0.732422,3.051758
362,0.050415,-0.028198,0.995361,-3.234863,0.366211,2.746582
371,0.048218,-0.037964,0.959473,-3.601074,-0.488281,1.831055
381,0.008423,0.110107,1.049683,-3.479004,-0.244141,0.671387
391,0.023682,-0.000610,1.031616,-2.990723,-0.732422,-0.427246
401,0.061890,-0.002808,1.024048,-2.380371,-0.549316,-2.014160
413,0.047119,-0.046875,0.978882,-2.014160,-2.441406,-6.164551
423,0.052979,-0.055176,0.889526,-2.014160,-2.624512,-6.774902
432,0.063599,-0.100464,0.895996,-2.075195,-2.136230,-6.896973
442,0.033691,-0.181274,0.824219,-2.136230,-2.258301,-6.713867
452,0.056396,-0.123047,0.827271,-2.807617,-2.807617,-5.981445
461,0.049683,-0.028320,1.048584,-3.356934,-1.464844,-4.394531
471,0.012939,-0.033325,0.978882,-3.417969,-1.342773,-3.356934
481,0.321411,-0.251343,1.066406,-2.624512,-1.403809,-1.281738
491,0.357666,-0.757935,1.017090,-2.197266,-5.798340,-0.366211
501,-0.344116,0.008667,0.878174,-1.403809,-6.591797,0.305176
512,-0.295898,-0.120972,0.679810,0.732422,-3.234863,1.770020
521,0.002563,-0.339844,0.878296,1.586914,0.427246,4.638672
531,0.119995,-0.434326,0.943359,0.244141,1.525879,7.324219
541,-0.025391,0.013550,1.071167,-2.319336,-0.793457,7.568359
551,-0.319702,0.085693,1.026489,-2.868652,-1.892090,6.774902
561,0.020874,-0.261597,0.905029,-1.831055,0.732422,6.591797
572,0.011475,-0.228882,0.905273,-3.234863,-0.427246,5.859375
581,0.064331,0.100830,1.084961,-4.638672,-0.732422,6.164551
591,0.062744,-0.044434,1.137695,-4.882812,-0.244141,7.812500
601,0.126099,0.024780,1.121460,-3.845215,-0.366211,7.385254
611,0.112793,-0.031494,1.195435,-2.563477,-1.403809,6.286621
623,0.149536,-0.059326,1.177002,-2.380371,-3.845215,1.647949
633,0.200928,-0.026001,1.100708,-2.380371,-4.943848,0.061035
642,0.173096,-0.142090,0.879272,-1.708984,-6.286621,-1.525879
652,0.172974,-0.044922,0.927490,-1.342773,-7.263184,-2.197266
662,0.181274,-0.134644,0.854004,-1.525879,-7.690430,-3.295898
671,0.162842,-0.028198,1.009888,-2.197266,-7.812500,-3.967285
681,0.088989,0.058594,1.064453,-2.685547,-8.544922,-4.943848
693,0.005493,-0.077515,0.925049,-1.098633,-9.277344,-7.812500
703,-0.047852,-0.187134,0.833862,-0.976562,-9.277344,-10.192871
713,-0.007813,-0.187744,0.785645,-2.319336,-9.216309,-12.207031
722,-0.010864,-0.044067,0.878540,-3.723145,-9.094238,-13.671875
732,0.001709,0.138428,1.007446,-4.882812,-9.033203,-14.648438
741,0.064697,0.128418,1.083618,-4.150391,-8.544922,-13.977051
751,0.108643,0.089478,1.093506,-2.868652,-8.178711,-13.977051
763,0.107910,0.017090,1.019409,-2.014160,-8.911133,-13.244629
773,0.191895,-0.027710,1.071533,-1.831055,-8.911133,-13.366699
782,-0.018188,-0.164795,0.966675,-1.159668,-8.483887,-12.817383
792,-0.080566,-0.136475,0.922485,-1.037598,-7.629395,-13.000488
802,-0.004028,-0.197388,0.786255,-0.793457,-6.713867,-14.831543
812,0.076782,-0.313232,0.804565,-0.976562,-7.019043,-17.822266
821,-0.078735,-0.249756,0.832397,-2.563477,-8.850098,-21.850586
831,-0.120361,0.000000,0.925171,-3.417969,-8.911133,-26.123047
841,-0.133545,0.050171,1.089844,-2.685547,-7.080078,-26.794434
851,-0.017700,-0.012817,0.908447,-2.624512,-5.249023,-25.695801
861,-0.029175,-0.053711,0.978638,-2.624512,-4.760742,-24.658203
871,-0.104248,-0.065796,0.914429,-2.502441,-3.784180,-23.437500
881,-0.086792,0.055786,0.976318,-2.563477,-2.258301,-22.033691
891,-0.043823,0.020142,1.126953,-1.831055,-1.159668,-21.301270
901,-0.101196,-0.137451,1.037842,-0.976562,-0.671387,-19.226074
911,-0.070068,-0.090942,1.095337,-0.549316,-0.061035,-17.639160
921,-0.045776,-0.114380,0.818604,-1.342773,0.854492,-15.014648
931,-0.020630,-0.151611,0.880981,-2.197266,1.708984,-11.901855
941,-0.055908,-0.092651,0.998901,-2.990723,3.234863,-7.873535
951,0.010742,0.037231,1.187866,-3.295898,4.821777,-3.967285
961,-0.011719,-0.106445,1.175659,-2.868652,5.737305,-0.854492
971,-0.064453,0.058228,1.139648,-2.563477,5.310059,4.089355
982,-0.197754,-0.215698,0.890381,-2.136230,6.103516,4.516602
992,-0.151245,-0.023804,1.024658,-2.746582,7.019043,4.882812
1001,-0.219971,-0.078735,1.099731,-2.319336,6.530762,4.577637
1011,-0.204590,0.132812,1.117065,-1.953125,6.530762,4.211426
1021,-0.072510,0.038574,1.203857,-0.854492,7.812500,5.187988
1031,-0.023437,-0.146973,0.940918,0.061035,7.995605,6.164551
1043,-0.075439,-0.176758,1.003540,0.244141,7.812500,8.666992
1053,-0.049194,-0.047363,1.007324,0.366211,7.751465,9.765625
1062,-0.026733,-0.020386,1.118286,1.159668,8.605957,9.948730
1072,-0.100586,-0.341675,0.880371,2.258301,7.812500,9.155273
1081,-0.117554,-0.379150,0.734985,1.892090,7.263184,7.385254
1091,-0.051636,-0.343872,0.663574,0.671387,7.019043,5.310059
1102,-0.049683,-0.281372,0.766357,-1.342773,6.164551,3.479004
1111,-0.059570,-0.079224,0.811646,-2.563477,5.981445,2.075195
1121,-0.028076,0.067017,0.982300,-1.831055,6.774902,2.441406
1131,0.071655,-0.032349,0.961304,-1.953125,6.286621,2.685547
1141,0.018066,-0.058228,0.982666,-1.953125,5.737305,2.319336
1151,-0.029663,-0.046387,0.950562,-1.708984,5.493164,2.319336
1161,-0.001587,0.089233,1.127197,-1.342773,5.798340,1.831055
1171,-0.014893,-0.036499,1.042358,-0.671387,5.859375,0.549316
1181,-0.027832,-0.111206,1.049072,-0.305176,4.943848,-3.051758
1190,-0.034668,-0.012939,1.101563,0.000000,4.760742,-5.065918
1201,-0.025146,-0.063232,0.999023,-0.061035,4.150391,-6.469727
1211,-0.007324,-0.076538,1.051270,0.061035,4.150391,-7.446289
1221,-0.016968,-0.188843,0.954834,0.122070,4.577637,-7.202148
1231,0.062622,-0.114624,1.078613,-0.122070,4.699707,-7.202148
1241,0.006592,-0.169434,0.989868,-0.427246,4.821777,-6.408691
1251,0.035889,-0.036865,1.064209,-0.488281,5.737305,-3.051758
1262,-0.012573,-0.102295,1.093262,0.183105,6.591797,-0.488281
1272,-0.054687,0.038574,1.142944,0.671387,7.507324,1.159668
1281,-0.114380,-0.069214,1.068115,0.427246,6.774902,2.258301
1292,-0.115601,-0.146851,0.941162,0.671387,7.507324,3.417969
1301,-0.047241,-0.042603,0.966309,0.305176,7.202148,4.211426
1311,-0.035645,-0.163818,0.903320,-0.244141,7.690430,6.103516
1323,-0.032227,0.191772,1.210938,-0.915527,7.995605,10.498047
1333,-0.041504,0.022583,1.093262,-0.488281,9.094238,13.427734
1342,0.007568,0.060181,1.198486,0.427246,9.399414,14.770508
1351,0.002563,-0.016113,1.084351,1.403809,9.094238,14.831543
1361,0.006226,-0.367676,0.843140,1.647949,8.178711,14.831543
1371,0.041260,-0.387573,0.653564,0.305176,7.141113,14.038086
1381,0.030151,-0.169312,0.703003,-2.258301,5.859375,13.427734
1393,0.026978,0.044434,1.048462,-4.699707,5.920410,14.160156
1403,-0.032593,0.102051,1.164307,-3.540039,5.798340,14.404297
1412,-0.068848,0.014404,0.990601,-2.197266,5.004883,13.549805
1422,-0.009644,-0.089478,0.983398,-0.854492,4.516602,12.145996
1431,-0.063354,-0.169678,0.858887,-0.427246,3.784180,10.253906
1441,-0.071899,-0.089111,0.851440,-0.793457,3.295898,8.789063
1452,-0.048096,-0.003906,0.991699,-0.671387,3.662109,7.751465
1461,-0.024902,-0.082153,1.077148,1.037598,3.906250,7.202148
1471,-0.028564,-0.167725,0.924805,1.342773,3.784180,6.591797
1481,-0.013062,-0.204712,0.877197,0.854492,3.417969,5.859375
1491,0.072632,-0.091187,0.912109,0.183105,3.540039,5.798340
1501,0.073364,-0.148804,1.000488,-0.061035,3.112793,5.371094
1510,0.041870,-0.103638,1.003906,0.000000,2.502441,4.882812
1521,0.055542,-0.095581,1.007446,-0.183105,2.258301,4.333496
1533,0.105469,-0.148804,1.041870,-0.976562,1.464844,3.662109
1543,0.106201,-0.125488,0.977539,-1.281738,0.488281,3.173828
1552,0.109619,-0.067261,1.095825,-1.037598,1.037598,3.112793
1562,0.111816,-0.180664,1.121582,-0.671387,0.488281,3.173828
1571,0.067017,-0.171631,0.979004,-0.854492,0.366211,3.234863
1581,0.033325,-0.026001,1.064575,-0.976562,-0.122070,3.479004
1591,0.003784,-0.154053,1.040771,-0.915527,-0.305176,3.234863
1601,-0.044067,-0.161133,1.036865,-1.220703,0.427246,4.455566
1612,-0.008667,-0.078125,1.031250,-1.831055,1.037598,5.737305
1622,0.101807,-0.038452,1.095459,-1.953125,0.915527,7.202148
1631,0.035156,-0.063354,1.063477,-1.586914,0.793457,7.568359
1641,-0.024048,-0.174683,0.932251,-1.953125,-0.183105,8.239746
1651,-0.016113,0.006592,1.018311,-2.502441,-0.854492,8.483887
1661,-0.030029,-0.066406,1.080566,-2.807617,-0.732422,9.094238
1673,-0.037598,0.058350,0.990356,-3.479004,-0.793457,10.986328
1682,-0.005981,-0.009399,0.931152,-2.990723,0.061035,12.817383
1692,0.048096,-0.062012,0.877197,-2.563477,-0.061035,13.854980
1701,0.021484,-0.141235,0.894653,-2.380371,-1.098633,14.587402
1711,0.039063,-0.053467,0.971558,-2.258301,-1.525879,15.563965
1721,0.023804,0.050781,1.067749,-1.525879,-1.037598,16.113281
1731,0.045532,-0.119385,1.022827,-0.183105,-0.976562,16.418457
1740,0.020874,-0.172119,0.953857,0.183105,-2.014160,12.878418
1752,-0.025146,-0.202271,0.814087,-0.610352,-3.723145,10.803223
1762,-0.005127,-0.133911,0.869263,-0.976562,-4.394531,7.812500
1771,0.012085,-0.156982,0.921631,-0.976562,-4.882812,5.859375
1781,0.015381,-0.186157,0.923340,-1.098633,-5.249023,3.967285
1791,0.067505,-0.140747,0.896484,-1.647949,-5.004883,2.746582
1801,0.067139,-0.095337,0.939819,-2.502441,-5.493164,2.258301
1811,0.083618,0.045898,1.106934,-2.746582,-5.126953,1.342773
1822,0.052124,-0.033813,1.182251,-1.525879,-6.042480,-0.244141
1832,0.032593,0.026367,1.163208,-0.915527,-5.737305,-2.136230
1842,0.064209,-0.106689,1.075562,-0.732422,-6.347656,-4.333496
1852,0.053223,-0.044312,0.993530,-0.488281,-7.690430,-6.469727
1861,0.061646,0.051025,1.092651,0.183105,-7.690430,-7.812500
1871,0.010986,-0.120605,0.931274,0.976562,-7.629395,-8.361816
1883,0.075806,-0.139160,1.010498,-0.122070,-6.530762,-6.347656
1893,-0.024048,-0.092651,0.976074,-1.464844,-5.859375,-4.150391
1902,-0.060059,0.121094,1.195801,-1.770020,-4.699707,-1.525879
1912,-0.003296,-0.086060,1.038452,-0.671387,-3.540039,0.366211
1921,0.010498,-0.309082,0.887451,-0.427246,-4.089355,1.037598
1931,-0.027832,-0.285767,0.794067,-2.136230,-5.981445,0.732422
1940,-0.070190,-0.080444,0.888062,-3.662109,-5.920410,1.037598
1953,-0.016113,0.079590,1.013672,-4.699707,-4.455566,4.882812
1963,0.087036,0.061401,1.045410,-3.845215,-3.479004,6.103516
1973,0.061401,-0.089600,1.025879,-3.051758,-3.662109,7.324219
1982,0.111572,-0.178467,0.976440,-3.356934,-4.943848,7.141113
1992,0.105835,0.012695,0.938721,-3.906250,-5.859375,5.554199
2001,0.070557,0.039307,1.030640,-3.417969,-7.019043,4.028320
2011,0.028809,0.032227,1.046387,-2.197266,-7.568359,1.770020
2023,0.083008,-0.293213,0.929687,-0.793457,-8.300781,-2.807617
2033,0.105469,-0.192993,0.915405,-1.831055,-9.826660,-5.249023
2042,0.077515,-0.087891,0.944824,-2.441406,-9.765625,-6.469727
2052,0.048828,0.032837,1.110962,-2.319336,-9.826660,-7.995605
2061,0.014160,-0.059937,1.021484,-1.281738,-10.253906,-9.338379
2071,-0.007324,-0.222656,0.978271,-0.061035,-9.826660,-11.413574
2081,0.014282,-0.172607,1.073608,0.244141,-10.192871,-14.343262
2090,-0.000977,-0.081055,1.029297,-0.122070,-10.437012,-18.615723
2102,-0.112305,0.011841,1.102661,2.685547,-9.948730,-20.385742
2112,-0.095459,-0.332275,0.931274,4.150391,-8.605957,-21.728516
2122,0.004395,-0.402710,0.804321,4.028320,-7.934570,-22.521973
2131,0.065796,-0.305786,0.828369,2.441406,-7.934570,-22.155762
2141,-0.002319,-0.222412,0.799561,0.976562,-7.446289,-20.690918
2151,-0.031982,-0.013428,0.969971,-0.061035,-6.591797,-17.944336
2161,-0.023926,-0.106689,0.982666,-0.366211,-3.417969,-11.779785
2171,-0.039551,-0.056152,1.128906,-0.610352,-2.746582,-10.314941
2180,-0.057495,-0.221069,1.009888,-0.915527,-2.136230,-9.521484
2191,-0.062500,-0.151733,0.938721,-1.342773,-1.892090,-9.887695
2201,-0.021362,-0.100586,0.869385,-1.770020,-1.342773,-10.009766
2211,-0.065186,-0.125488,0.862671,-2.136230,-1.342773,-10.192871
2220,-0.026123,0.016235,1.015747,-3.417969,-1.037598,-9.155273
2233,-0.091431,0.135864,1.125977,-3.417969,-0.122070,-6.652832
2243,-0.129272,0.094727,1.126831,-2.014160,-0.244141,-5.737305
2252,-0.090332,-0.166382,0.895630,-1.159668,1.342773,-5.310059
2262,-0.053467,-0.031860,0.937012,-1.342773,1.770020,-4.821777
2272,-0.038696,0.146118,1.144165,-1.403809,1.403809,-5.310059
2281,-0.081665,-0.038574,1.089844,-0.976562,1.708984,-5.065918
2291,-0.022095,-0.004761,1.130249,0.061035,2.807617,-5.004883
2301,0.003540,0.030273,1.126099,1.281738,2.502441,-6.042480
2312,-0.042725,-0.188354,0.882446,0.549316,2.075195,-6.591797
2322,-0.003174,0.086182,1.148682,0.610352,2.258301,-7.324219
2331,-0.087158,-0.118042,0.965332,1.220703,2.502441,-7.324219
2341,-0.071655,-0.214111,0.953857,1.525879,2.502441,-7.324219
2350,-0.070679,-0.201050,0.943237,1.525879,3.540039,-7.385254
2361,-0.080811,-0.234863,0.930908,0.732422,4.211426,-6.835937
2371,-0.082397,-0.021729,1.043335,0.000000,4.760742,-5.737305
2380,-0.100708,-0.020630,1.038940,0.915527,6.042480,-4.821777
2391,-0.053101,-0.109497,0.907227,0.732422,6.164551,-4.211426
2401,-0.034302,-0.145996,0.893188,-0.427246,5.920410,-3.845215
2411,-0.026489,0.014648,0.932861,-1.525879,5.859375,-3.295898
2421,0.011353,-0.069702,0.935059,-1.770020,6.408691,-2.319336
2431,0.017090,-0.064941,0.867187,-2.319336,5.798340,-1.647949
2441,0.022949,0.019897,0.986084,-2.868652,5.859375,0.671387
2452,0.058350,0.094238,1.131836,-2.990723,6.591797,1.403809
2461,-0.022705,0.052612,1.081543,-2.014160,5.859375,1.464844
2471,-0.007813,-0.162354,0.951660,-1.525879,5.676270,0.854492
2481,0.029663,-0.135742,0.866089,-1.220703,5.981445,0.122070
2491,0.054565,-0.136108,0.908203,-1.708984,5.981445,-0.488281
2501,0.003174,-0.032227,0.921143,-2.319336,4.882812,-0.854492
2511,-0.008911,-0.023315,0.927979,-1.647949,5.737305,0.671387
2523,-0.031250,-0.177368,0.951050,-1.159668,5.859375,1.464844
2532,-0.108643,-0.162109,0.855591,-1.525879,5.065918,2.136230
2542,-0.057129,-0.060059,0.916992,-2.136230,5.615234,2.990723
2552,-0.081665,-0.086792,0.949463,-2.380371,5.920410,4.272461
2562,-0.108032,-0.020386,1.109253,-2.075195,6.896973,5.187988
2571,-0.161255,0.083496,1.165161,-1.953125,7.019043,6.958008
2581,-0.165161,-0.206665,1.089111,-1.342773,8.483887,7.812500
2592,-0.033325,-0.035034,1.075195,-1.342773,8.117676,8.483887
2602,-0.085937,-0.209961,0.874512,-1.831055,7.446289,8.544922
2611,-0.010498,-0.150269,0.878418,-2.319336,7.080078,9.338379
2621,0.026367,-0.215820,0.958374,-2.868652,7.751465,10.925293
2631,0.023926,-0.156494,0.996094,-3.845215,8.544922,12.451172
2643,0.011719,-0.149902,0.940552,-4.821777,7.812500,14.038086
2652,0.034668,-0.139771,0.954712,-5.371094,6.530762,14.160156
2661,-0.025391,-0.148926,1.045166,-5.615234,5.249023,13.854980
2671,-0.050537,0.036621,1.113892,-5.126953,5.554199,12.512207
2681,-0.012329,0.068359,1.190308,-4.333496,6.225586,12.268066
2691,-0.010376,-0.249390,1.040161,-3.662109,5.126953,11.169434
2701,-0.011963,-0.062500,0.980835,-3.601074,4.821777,9.704590
2711,0.057129,0.103027,1.063843,-3.723145,3.601074,8.544922
2723,0.139771,-0.136353,1.001343,-2.258301,2.990723,7.446289
2733,0.127563,-0.142578,0.985596,-2.136230,2.868652,6.652832
2742,0.075073,-0.176392,0.897217,-2.136230,1.220703,5.615234
2752,0.069580,-0.067627,1.002319,-1.892090,0.305176,5.004883
2761,0.035767,-0.170410,0.954956,-1.647949,-0.183105,4.882812
2771,0.055542,-0.180054,0.902954,-1.831055,-0.122070,5.920410
2781,0.041504,-0.110229,0.907227,-1.770020,0.366211,7.080078
2791,0.060669,-0.145508,0.896362,-2.197266,0.488281,10.009766
2803,-0.021362,-0.001709,1.037231,-2.441406,0.305176,10.864258
2812,-0.025513,-0.005249,1.076904,-1.647949,0.122070,11.779785
2822,-0.018555,0.015259,1.094360,-0.915527,0.305176,11.108398
2832,-0.037354,-0.122559,1.028198,-0.061035,0.122070,9.887695
2841,-0.043335,-0.151245,0.993164,0.000000,-0.549316,8.178711
2851,-0.040894,0.023560,1.105835,0.244141,-1.647949,6.103516
2863,0.007080,-0.137207,1.047363,1.708984,-1.586914,3.417969
2872,0.021118,-0.018555,1.078369,1.831055,-1.281738,2.380371
2882,0.018677,0.034790,1.161865,1.953125,-1.647949,1.647949
2891,-0.046265,-0.152222,1.046997,2.258301,-1.220703,1.342773
2902,-0.003540,-0.158081,1.050049,2.380371,-0.671387,0.793457
2911,0.060791,-0.021851,1.123779,2.197266,-1.037598,0.244141
2921,-0.033081,-0.117554,0.955200,1.953125,-1.953125,-0.427246
2933,0.033691,-0.102905,0.859375,1.708984,-1.586914,-0.427246
2943,0.040649,-0.191528,0.762085,1.342773,-1.464844,0.305176
2952,0.047363,-0.172607,0.754761,0.549316,-1.403809,1.770020
2962,0.071777,-0.145874,0.840332,-0.610352,-1.831055,3.479004
2971,0.015015,0.038208,0.910400,-1.342773,-1.342773,5.859375
2981,0.004517,0.062622,1.065308,-1.281738,-1.220703,8.300781
2991,-0.090088,-0.050903,1.002686,-0.793457,-0.854492,10.437012
3003,-0.015747,-0.083252,1.053223,-0.549316,15.563965,10.314941
3012,0.011597,-0.024414,1.074463,-0.732422,-0.854492,8.666992
3022,-0.046997,0.069824,1.235474,-0.427246,-2.441406,6.591797
3031,-0.091187,-0.040283,1.092041,0.427246,-3.112793,5.310059
3041,-0.010742,-0.184204,0.977051,1.098633,-3.051758,4.516602
3052,0.067139,-0.025757,0.904907,0.732422,-2.502441,3.784180
3061,0.080078,-0.103516,0.938965,0.610352,-2.502441,3.662109
3073,0.121582,-0.146240,1.062988,1.281738,-3.234863,3.906250
3083,0.103760,-0.192139,0.938354,1.525879,-3.784180,3.723145
3092,0.123047,-0.136108,1.087158,1.403809,-3.723145,3.540039
3102,0.129395,-0.039551,1.123169,0.915527,-4.394531,3.845215
3111,0.039917,-0.107178,0.964722,0.976562,-5.065918,3.479004
3121,-0.041504,-0.161499,1.025879,1.708984,-5.615234,3.112793
3133,-0.017212,-0.089722,1.038574,0.976562,-5.065918,2.380371
3142,0.059937,-0.171997,1.026733,0.488281,-5.065918,1.892090
3152,0.004272,-0.015747,1.027222,0.061035,-6.164551,0.976562
3161,-0.026611,-0.253174,0.917847,-0.061035,-6.347656,0.427246
3171,0.052368,-0.202026,0.896240,-0.732422,-5.737305,-0.244141
3181,0.015259,-0.199951,0.805298,-1.831055,-6.713867,-1.098633
3191,-0.007202,-0.307617,0.742310,-3.540039,-6.835937,-0.793457
3201,-0.016602,-0.228882,0.770264,-6.103516,-7.446289,-1.098633
3211,0.032959,-0.081177,0.827637,-8.422852,-5.981445,0.610352
3221,-0.010376,0.087158,1.001099,-8.911133,-6.408691,0.671387
3231,-0.030518,0.141968,1.161987,-8.728027,-6.042480,0.915527
3241,-0.020630,-0.010376,1.129028,-7.629395,-5.432129,0.183105
3252,-0.029907,0.039063,1.051514,-6.103516,-5.187988,-0.183105
3261,0.011841,-0.043945,1.072876,-4.577637,-5.920410,-1.892090
3271,0.025024,-0.267456,0.852051,-3.845215,-6.835937,-3.112793
3281,0.090698,-0.147339,0.840820,-4.150391,-7.080078,-2.929688
3293,0.015747,-0.168213,0.950806,-3.356934,-6.896973,-2.075195
3302,0.033569,-0.144409,1.049805,-2.990723,-6.286621,-1.281738
3312,0.061279,-0.239258,1.037842,-2.746582,-5.798340,-1.647949
3321,-0.043579,-0.244629,0.983765,-2.563477,-7.019043,-2.685547
3331,-0.048462,-0.085937,1.090332,-2.624512,-7.202148,-4.333496
3341,-0.019897,-0.112671,1.038086,-3.295898,-7.080078,-5.981445
3353,-0.049072,0.097168,1.139526,-3.356934,-7.263184,-9.216309
3362,-0.055908,0.000122,1.066162,-2.563477,-7.019043,-10.192871
3372,0.028320,-0.202881,0.966309,-2.685547,-6.530762,-10.986328
3382,0.043579,0.020752,0.992554,-3.173828,-6.652832,-12.084961
3392,0.014038,-0.004517,1.000366,-3.417969,-6.958008,-12.329102
3401,-0.045654,-0.028076,0.923462,-3.540039,-6.286621,-12.573242
3411,0.045410,0.013184,1.057861,-3.845215,-5.920410,-12.390137
3421,0.020142,-0.130005,0.983765,-4.394531,-5.554199,-11.901855
3431,0.050537,-0.100952,1.021729,-4.638672,-5.493164,-11.413574
3441,-0.006104,-0.044556,0.940796,-4.821777,-5.371094,-11.474609
3451,-0.001099,0.034058,1.007690,-5.004883,-5.249023,-11.352539
3461,-0.000366,-0.037842,0.927368,-4.882812,-5.065918,-10.742188
3471,-0.051636,0.052856,1.008301,-4.882812,-4.394531,-11.230469
3481,-0.005615,0.053101,1.102295,-4.455566,-4.394531,-10.498047
3493,-0.018188,0.066528,0.986328,-3.234863,-3.540039,-11.413574
3503,0.014771,-0.057129,0.936768,-2.197266,-3.906250,-12.329102
3512,-0.001953,-0.084839,0.881592,-1.464844,-3.906250,-13.427734
3522,0.025269,-0.046143,0.963623,-0.915527,-3.784180,-14.160156
3532,-0.011353,-0.105103,1.006104,-0.305176,-3.784180,-14.770508
3541,-0.024658,-0.124512,0.949219,0.671387,-3.173828,-15.686035
3551,-0.032959,-0.090454,1.024536,1.342773,-2.868652,-16.357422
3563,-0.043091,-0.048218,1.057373,2.136230,-2.075195,-19.348145
3573,-0.012085,-0.069946,1.078369,2.807617,-1.525879,-20.812988
3583,-0.041260,-0.266235,0.916016,3.051758,-1.159668,-21.850586
3592,-0.019897,-0.182983,0.853760,2.502441,-1.220703,-22.949219
3602,0.029907,-0.138794,0.835571,1.647949,-0.549316,-23.132324
3612,0.026489,-0.185059,0.876587,0.732422,-0.244141,-21.301270
3621,-0.048462,0.023437,1.094482,-0.122070,0.427246,-19.348145
3631,-0.084351,0.004517,1.096680,1.098633,3.601074,-13.061523
3643,-0.035156,-0.056152,1.135498,1.037598,3.967285,-11.108398
3652,-0.054443,-0.088623,1.016113,0.793457,4.638672,-8.728027
3661,-0.106567,-0.191406,0.915283,0.427246,4.943848,-7.446289
3671,-0.056641,0.028076,1.081909,0.061035,5.310059,-5.615234
3681,-0.121460,-0.114990,0.930176,-0.122070,6.286621,-2.807617
3692,-0.094849,-0.254517,0.873779,-0.549316,7.080078,0.061035
3701,-0.093994,-0.017944,0.995239,-1.831055,8.605957,6.225586
3711,-0.108276,0.031494,1.138428,-1.220703,9.338379,9.216309
3721,-0.057251,0.061523,1.105225,-0.366211,9.582520,11.535645
3731,-0.093140,-0.277832,0.934692,0.122070,9.643555,12.695313
3741,-0.028198,-0.197632,0.908203,-0.732422,9.155273,13.183594
3751,-0.003906,-0.009155,0.946777,-2.075195,8.361816,13.488770
3761,-0.046997,-0.087524,0.952393,-2.136230,7.873535,13.305664
3771,-0.050293,0.094727,1.098999,-0.244141,7.812500,13.305664
3781,-0.051147,0.030273,1.050293,0.488281,6.591797,11.596680
3791,-0.029785,-0.116089,0.998413,0.732422,6.652832,10.070801
3801,0.052124,0.042114,1.113525,1.586914,5.920410,8.361816
3811,0.031982,-0.291138,0.911255,2.075195,5.126953,7.080078
3821,0.053223,-0.394653,0.806885,2.014160,4.394531,6.164551
3831,0.064941,-0.166992,0.880737,1.586914,3.479004,6.103516
3841,-0.028809,-0.213135,0.982056,-15.014648,3.601074,7.202148
3853,-0.063599,0.067627,1.140991,-0.122070,4.333496,7.202148
3862,-0.044800,-0.076538,1.166382,0.854492,4.272461,6.530762
3872,-0.092896,-0.240234,1.096558,1.831055,3.112793,4.577637
3881,-0.036255,-0.027954,1.042236,1.770020,2.807617,2.197266
3891,-0.007813,-0.062134,1.110596,1.464844,2.014160,-0.061035
3901,0.014526,-0.176636,0.963867,1.831055,2.319336,-1.586914
3911,0.107544,-0.014404,1.072632,2.319336,1.953125,-1.770020
3922,0.082153,-0.366089,0.744629,2.685547,1.525879,-1.708984
3931,0.132568,-0.365601,0.754517,1.464844,1.342773,-1.342773
3941,0.084595,-0.184082,0.736938,-0.244141,0.793457,-0.671387
3951,0.042725,-0.113647,0.828369,-1.770020,0.305176,0.000000
3961,-0.015991,-0.045776,1.011230,-2.746582,0.610352,1.098633
3973,-0.065186,0.080933,1.067993,-2.014160,2.014160,2.441406
3982,0.007935,0.145142,1.161133,-1.464844,1.586914,2.319336
3992,-0.049927,0.041016,1.016479,-0.976562,0.305176,0.793457
4001,-0.044800,0.010864,0.943970,-0.183105,0.366211,0.488281
4012,0.022217,0.039429,0.973022,0.305176,-0.061035,0.061035
4021,-0.005371,-0.085205,0.916992,0.244141,-0.427246,-0.366211
4031,0.023437,-0.079834,0.867310,-0.366211,-0.427246,-0.122070
4041,0.055542,0.074219,1.046753,-0.915527,-0.061035,0.610352
4053,0.027222,-0.082153,1.015015,-0.366211,0.122070,1.953125
4062,0.017334,-0.112061,1.039063,0.183105,-0.061035,1.159668
4072,-0.036499,-0.254272,0.994019,0.000000,-0.122070,0.366211
4081,-0.008789,-0.272705,0.983276,-0.427246,-0.549316,-1.220703
4091,0.023071,-0.062988,1.032349,-0.976562,-0.549316,-2.563477
4101,0.011597,-0.128052,1.048340,-0.854492,-1.159668,-3.723145
4111,-0.011841,-0.189697,0.990601,-0.732422,-1.403809,-5.249023
4121,-0.019409,-0.162842,1.020142,-1.586914,-1.525879,-6.225586
4133,0.046509,-0.142334,0.907715,-2.075195,-1.342773,-6.103516
4142,0.018311,-0.177368,0.865112,-2.746582,-0.793457,-5.126953
4152,-0.006958,-0.031616,0.901855,-3.540039,-0.854492,-3.723145
4161,-0.044678,0.135010,1.083252,-3.845215,-0.061035,-2.380371
4171,-0.094238,-0.053101,1.021484,-3.662109,0.427246,-1.281738
4183,-0.104248,-0.122192,1.036377,-4.272461,1.525879,-1.586914
4192,-0.121948,-0.088013,0.945312,-4.333496,1.220703,-2.014160
4202,-0.112427,-0.057739,1.032471,-4.577637,1.831055,-1.892090
4211,-0.044922,0.152344,1.150391,-4.333496,2.868652,-1.647949
4221,-0.013306,0.076294,1.219360,-3.417969,2.929688,-1.342773
4232,-0.011963,0.023804,1.191895,-2.197266,2.563477,-1.342773
4241,0.005493,0.006958,1.108643,-1.037598,2.624512,-1.770020
4251,0.021973,-0.279419,0.903931,-0.305176,2.258301,-1.953125
4263,-0.001343,-0.052124,0.955811,0.061035,1.770020,-3.295898
4272,0.009888,-0.288208,0.836670,1.342773,2.319336,-2.685547
4281,0.061035,-0.351196,0.833130,0.793457,2.075195,-2.624512
4291,0.054321,-0.170410,0.837524,-0.305176,1.403809,-1.953125
4301,-0.031372,-0.085083,0.965088,-1.220703,2.014160,-0.671387
4311,-0.010620,-0.060547,1.128906,-1.159668,2.319336,0.366211
4321,-0.068970,-0.049561,1.016724,-0.610352,3.173828,1.770020
4333,-0.097656,-0.123047,1.005615,0.854492,2.746582,1.281738
4343,-0.063965,-0.327637,0.822021,-0.061035,2.990723,0.549316
4352,0.007446,-0.108032,0.955688,-0.915527,2.746582,-0.366211
4362,-0.067261,-0.019287,1.027222,-0.976562,2.319336,-0.549316
4372,-0.090942,-0.282959,0.914673,-1.159668,3.051758,-0.122070
4381,0.019165,-0.085815,1.035889,-1.953125,4.211426,0.915527
4391,0.037231,0.027710,1.141235,-2.502441,4.333496,1.831055
4403,-0.082397,0.015869,1.011230,-2.685547,4.089355,2.868652
4412,0.026123,0.058838,1.120361,-2.258301,4.882812,3.540039
4422,-0.003662,-0.087524,1.026733,-1.647949,4.394531,3.662109
4432,0.012329,-0.014526,1.122192,-1.403809,4.333496,3.784180
4441,-0.052246,0.065796,1.092407,-0.976562,3.784180,3.723145
4451,-0.027222,-0.130859,0.977661,-0.427246,3.845215,3.540039
4461,-0.000854,-0.047363,0.926514,-0.061035,3.784180,3.417969
4471,-0.010132,-0.075684,0.963745,-0.122070,3.723145,2.624512
4482,-0.031494,0.007813,1.101318,-0.305176,3.662109,2.258301
4492,0.008545,-0.026367,1.134033,0.061035,3.906250,2.075195
4501,-0.052612,-0.135132,0.991455,1.037598,4.028320,2.258301
4511,-0.012085,-0.065796,1.016968,1.708984,3.601074,1.403809
4521,-0.007813,-0.232300,0.824097,1.525879,3.662109,1.647949
4531,0.017212,-0.352783,0.746094,0.549316,3.784180,1.525879
4543,0.055786,0.031738,0.964355,-2.197266,3.906250,2.746582
4553,0.060059,0.003662,1.078003,-2.563477,3.356934,4.089355
4562,0.029419,-0.052612,0.984619,-2.136230,3.295898,5.554199
4572,0.047119,-0.036743,0.981812,-1.831055,3.051758,6.103516
4582,0.036255,0.032227,1.019409,-2.136230,2.746582,6.408691
4591,0.000244,-0.073364,1.020020,-2.441406,2.258301,5.798340
4603,0.001831,-0.008545,1.018066,-1.525879,1.586914,4.455566
4612,0.062378,-0.174805,0.925903,-0.854492,1.403809,3.601074
4622,0.053955,-0.105835,0.961548,-1.403809,1.464844,3.479004
4631,0.088623,0.018311,0.968018,-2.197266,1.098633,3.906250
4641,0.071411,-0.072144,0.957397,-2.136230,1.159668,4.577637
4651,0.067261,-0.078491,0.979858,-1.586914,1.159668,5.554199
4662,0.051758,-0.229858,0.899902,-1.159668,0.854492,5.737305
4671,0.039795,-0.208252,0.779053,-2.136230,0.427246,5.676270
4683,-0.082642,-0.001343,0.939819,-3.112793,-0.610352,6.652832
4693,-0.081787,0.086914,1.122559,-4.028320,0.366211,7.751465
4702,-0.134033,-0.093872,1.103027,-2.685547,0.854492,8.666992
4711,-0.102539,-0.183228,1.114136,-1.831055,1.220703,8.300781
4721,-0.132812,-0.155518,0.935669,-1.708984,0.915527,7.019043
4732,-0.088745,-0.168091,0.836548,-2.197266,0.427246,5.065918
4741,0.009521,-0.064331,0.942505,-2.868652,0.732422,4.211426
4751,0.054321,-0.098022,0.980225,-3.051758,0.244141,4.333496
4762,0.036011,-0.027222,1.157349,-3.051758,0.610352,4.882812
4772,0.085083,-0.193115,1.037231,-2.624512,0.488281,5.187988
4781,0.089111,-0.166138,0.967896,-2.746582,-0.305176,4.638672
4791,0.058472,-0.048706,0.973145,-2.929688,-1.037598,3.845215
4801,0.084229,-0.192017,0.854248,-3.601074,-0.976562,3.356934
4811,0.083984,-0.200439,0.979614,-4.516602,-1.464844,3.479004
4823,-0.013062,-0.049561,0.935059,-5.187988,-1.586914,4.150391
4832,0.043945,0.000244,0.946533,-5.615234,-1.220703,4.333496
4842,0.007080,-0.108154,1.010986,-5.187988,-1.892090,5.065918
4851,-0.023071,0.037598,1.062134,-5.126953,-2.258301,4.516602
4861,-0.008423,-0.025391,1.098145,-4.638672,-1.708984,3.845215
4872,0.050171,-0.133423,1.029541,-3.967285,-2.075195,3.479004
4881,0.167358,-0.094971,1.071045,-3.356934,-2.990723,2.502441
4891,0.137207,-0.131470,0.878662,-3.295898,-5.187988,-0.183105
4903,0.075928,0.037231,1.039673,-3.723145,-5.187988,-0.732422
4912,0.035156,-0.094971,1.090210,-3.479004,-4.882812,-1.098633
4922,-0.031860,-0.105469,1.041260,-2.563477,-4.394531,-1.281738
4931,-0.015503,-0.086060,1.075439,-2.197266,-4.211426,-1.770020
4941,-0.032837,-0.232178,0.924683,-2.258301,-4.638672,-2.929688
4953,-0.031982,-0.100342,0.959473,-2.563477,-5.981445,-5.981445
4963,-0.034790,-0.036865,1.034912,-1.464844,-4.943848,-6.835937
4973,-0.005127,-0.094482,1.048218,-0.305176,-3.784180,-7.080078
4986,0.035767,-0.077881,1.027100,0.244141,-3.906250,-7.385254
4996,0.013672,-0.162842,0.839600,-0.427246,-3.723145,-6.103516
5006,0.003662,-0.157593,0.906982,-0.610352,-3.356934,-3.967285
5016,-0.057251,-0.207275,0.830566,-1.159668,-1.831055,-1.647949
5026,-0.022461,-0.007568,1.022217,-2.380371,-1.525879,0.488281
5035,-0.092651,-0.010254,1.017090,-2.624512,-0.976562,1.708984
5045,-0.058228,-0.091431,1.049194,-2.441406,-0.915527,1.953125
5055,-0.118408,-0.114624,0.953979,-2.502441,-0.732422,2.136230
5064,-0.099365,-0.090332,0.903809,-2.624512,-0.305176,1.770020
5074,-0.115356,0.058350,1.031738,-2.990723,0.061035,2.929688
5082,-0.080811,0.039307,1.013794,-2.990723,0.061035,2.929688
5092,-0.079346,0.003662,1.008789,-2.807617,1.220703,7.324219
5101,-0.029907,0.111084,1.063477,-2.014160,1.525879,9.643555
5111,-0.034790,-0.102905,0.880249,-2.197266,1.342773,11.230469
5122,-0.027222,-0.056152,0.925903,-2.380371,1.586914,12.512207
5132,-0.020264,-0.046143,0.937134,-2.746582,1.586914,13.427734
5141,-0.024536,0.050903,1.075806,-2.502441,1.770020,13.183594
5152,-0.022339,0.030762,1.252930,-1.403809,0.976562,12.268066
5161,-0.075562,-0.144897,1.218018,0.183105,0.183105,10.070801
5173,0.020752,0.053467,1.259277,1.220703,-0.671387,3.845215
5182,0.051147,-0.263794,0.987061,2.807617,-1.708984,0.732422
5192,0.109497,-0.354492,0.879028,3.051758,-1.892090,-1.586914
5202,0.145020,-0.063232,0.922607,2.441406,-3.051758,-3.112793
5211,0.115601,-0.205933,0.931030,1.953125,-3.601074,-3.295898
5222,0.106567,-0.213257,0.889160,1.586914,-3.356934,-3.417969
5231,0.089478,-0.028931,1.085938,1.281738,-3.112793,-3.112793
5241,0.008667,0.013794,1.006226,1.159668,-3.356934,-2.319336
5252,-0.014771,-0.144775,1.138062,1.525879,-3.112793,-2.014160
5261,0.002441,-0.192993,0.860962,0.793457,-3.295898,-1.892090
5272,0.011719,-0.176514,0.914917,0.000000,-3.479004,-1.098633
5282,-0.014526,-0.171143,0.865967,-0.854492,-3.540039,0.305176
5291,-0.001709,0.026123,0.953369,-1.586914,-2.929688,2.014160
5304,-0.083496,-0.171631,1.001099,-0.915527,-2.441406,4.455566
5314,-0.025879,-0.113647,0.951050,-0.488281,-2.319336,4.760742
5324,0.003540,-0.124268,0.952881,-0.244141,-2.868652,4.516602
5334,-0.013428,-0.224976,0.834229,-0.305176,-3.601074,4.333496
5343,-0.040894,-0.072388,0.835571,-0.732422,-3.540039,4.699707
5353,-0.008545,-0.043335,0.932495,-0.366211,-2.929688,6.042480
5362,0.036743,-0.203003,0.863403,-0.488281,-2.624512,7.141113
5372,0.019165,-0.184082,0.757690,-1.586914,-3.723145,8.361816
5381,-0.065063,-0.079712,0.839722,-1.464844,-3.112793,8.972168
5392,-0.073853,-0.112183,0.976318,-1.525879,-2.380371,9.704590
5402,-0.067017,-0.051270,1.027710,-1.342773,-2.685547,9.094238
5411,-0.074463,-0.091553,1.098267,-0.610352,-3.295898,7.995605
5422,0.005737,-0.224976,0.972656,-0.671387,-3.112793,6.225586
5432,0.027954,-0.238403,0.911621,-0.976562,-3.845215,5.004883
5444,0.015259,-0.142822,1.202026,-0.854492,-5.249023,0.915527
5454,0.071899,-0.348389,0.996582,-0.915527,-5.493164,-0.732422
5463,0.110840,-0.163208,1.047607,-1.220703,-5.920410,-3.112793
5473,0.106934,-0.096680,1.055298,-1.892090,-6.896973,-5.004883
5482,0.058960,-0.248901,0.915161,-3.051758,-6.958008,-6.896973
5492,0.116699,-0.011597,1.119751,-4.272461,-7.446289,-8.239746
5501,0.122925,0.204590,1.303467,-4.272461,-8.117676,-9.521484
5514,0.111816,-0.200073,1.063354,-3.112793,-8.544922,-12.634277
5524,0.164307,0.011353,1.070557,-3.295898,-9.277344,-14.953613
5534,0.148437,-0.012939,1.000000,-3.540039,-10.009766,-16.601562
5543,0.079956,-0.036621,0.906738,-3.601074,-10.437012,-17.517090
5552,0.088623,-0.003784,1.018066,-3.417969,-10.681152,-17.517090
5562,0.035645,-0.050659,0.914429,-3.112793,-9.521484,-17.028809
5571,0.046875,-0.014771,0.944824,-3.356934,-8.850098,-15.991211
5584,-0.065308,-0.040649,0.872559,-3.845215,-9.094238,-15.319824
5594,-0.086060,0.107178,1.032104,-3.540039,-8.666992,-15.563965
5604,-0.068237,-0.028564,1.026001,-2.563477,-7.751465,-16.784668
5613,-0.046387,-0.126953,0.916626,-1.586914,-7.873535,-17.761230
5623,0.019287,-0.033936,0.981812,-1.586914,-7.873535,-19.958496
5632,0.006836,-0.050537,0.934814,-1.464844,-7.385254,-21.057129
5642,0.095703,0.009277,1.045166,-1.647949,-7.263184,-21.728516
5651,0.088989,0.152832,1.155396,-0.671387,-7.385254,-22.399902
5663,0.023315,-0.161621,0.949829,1.708984,-6.835937,-24.536133
5672,0.116821,-0.050293,1.017090,1.831055,-7.080078,-26.184082
5682,0.023804,-0.085327,0.897217,1.953125,-6.774902,-27.648926
5692,-0.010986,-0.093628,0.873657,2.014160,-6.958008,-28.991699
5701,-0.053467,-0.072510,0.941284,2.380371,-5.493164,-29.113770
5712,-0.053345,-0.135132,0.883911,2.502441,-4.333496,-28.381348
5722,-0.056396,-0.042969,1.010376,1.708984,-2.380371,-26.794434
5731,-0.031128,-0.064697,0.970093,1.464844,-2.075195,-25.634766
5742,0.083374,-0.117798,1.106689,0.976562,-2.258301,-24.047852
5752,-0.207153,-0.143799,0.958618,0.976562,-2.868652,-22.399902
5761,-0.362061,-0.133423,0.892578,1.464844,-0.976562,-19.653320
5772,-0.188965,0.019165,0.861694,1.342773,3.417969,-16.296387
5782,0.049072,-0.023560,0.968140,1.037598,6.347656,-13.244629
5794,-0.208618,0.064941,1.186890,0.671387,4.943848,-12.207031
5804,-0.216064,0.030151,1.087402,1.098633,5.187988,-12.756348
5813,0.019043,-0.050415,1.079224,1.586914,6.469727,-13.671875
5822,0.035278,-0.203247,1.036011,1.525879,5.981445,-14.465332
5832,0.001221,-0.210083,0.932129,1.098633,4.943848,-14.465332
5842,0.000366,0.046875,0.973511,0.366211,5.493164,-12.634277
5851,0.094360,-0.155640,0.979004,0.488281,7.080078,-9.582520
5864,-0.079834,0.014038,1.007324,0.610352,8.056641,-6.042480
5873,-0.055054,-0.136963,0.996216,0.732422,9.643555,-3.601074
5883,-0.046631,-0.130615,1.026611,0.976562,9.887695,-2.746582
5893,-0.093506,-0.020264,1.015381,0.915527,9.643555,-2.441406
5902,-0.137939,-0.153076,0.823730,1.098633,9.155273,-2.502441
5912,-0.082397,-0.257690,0.832520,0.610352,9.155273,-2.014160
5921,-0.023071,-0.054810,0.875122,-0.427246,9.521484,-0.122070
5933,-0.034790,0.092651,1.002441,-0.854492,10.192871,5.371094
5943,-0.046021,-0.146606,0.954102,-0.183105,11.047363,7.385254
5952,0.000122,-0.211914,0.951660,-0.427246,11.108398,8.911133
5962,0.050049,-0.101685,1.048950,-0.915527,10.192871,9.826660
5972,-0.017212,-0.161377,1.015747,-1.464844,9.155273,9.887695
5982,-0.009277,-0.096802,0.988403,-1.220703,9.338379,10.864258
5991,-0.027832,-0.111938,1.065796,-0.671387,9.643555,11.596680
6003,-0.095459,-0.290039,0.792480,-2.258301,8.666992,13.183594
6012,-0.186768,-0.119751,0.847046,-3.662109,9.460449,15.563965
6022,-0.167603,-0.000854,1.040039,-3.662109,11.047363,18.615723
6032,-0.203247,-0.042969,1.091187,-3.112793,11.718750,21.057129
6041,-0.245483,-0.079102,0.945923,-2.441406,11.718750,22.766113
6052,-0.207031,-0.019165,1.055298,-2.563477,11.718750,23.193359
6061,-0.109497,-0.051758,1.052002,-2.441406,12.329102,23.681641
6071,-0.157959,-0.121704,0.916382,-2.563477,11.291504,23.193359
6083,-0.059204,-0.100952,1.117920,-2.258301,10.314941,22.644043
6093,-0.053711,-0.195190,0.996460,-2.746582,9.643555,22.399902
6102,0.038452,0.048828,1.070801,-3.295898,9.521484,21.850586
6111,0.024170,0.075684,1.095581,-2.807617,8.850098,20.874023
6122,0.018433,-0.184448,0.868530,-2.075195,7.812500,19.714355
6131,0.091064,-0.171143,0.935425,-2.563477,6.347656,18.615723
6144,0.064453,-0.082764,0.940308,-3.356934,3.845215,16.662598
6153,0.110718,-0.029297,0.964111,-3.784180,3.662109,17.028809
6163,0.163452,0.013550,0.958252,-3.845215,3.601074,17.761230
6172,0.110840,-0.031860,0.895996,-3.845215,1.770020,18.066406
6182,0.116699,-0.111450,0.862915,-4.455566,1.098633,17.639160
6191,0.047363,-0.135376,0.883057,-5.310059,0.305176,17.578125
6201,0.036377,-0.078491,0.882568,-5.920410,-0.976562,16.784668
6214,0.010132,0.057739,1.030396,-6.347656,-1.159668,15.136719
6224,-0.008911,-0.008423,1.026367,-5.859375,-2.380371,12.939453
6234,0.002686,-0.064453,1.101685,-5.432129,-3.173828,10.192871
6243,0.040771,0.002686,1.149902,-4.699707,-3.906250,6.774902
6253,0.000610,-0.150391,1.065552,-4.211426,-5.310059,2.868652
6262,0.119141,-0.164551,0.964844,-3.784180,-5.798340,-0.427246
6272,0.152588,-0.121338,0.992798,-3.479004,-6.408691,-3.173828
6282,0.155151,-0.179565,0.902222,-4.150391,-8.056641,-6.896973
6291,0.135132,-0.016357,1.046997,-4.394531,-8.544922,-7.690430
6302,0.035522,-0.192017,1.066650,-3.173828,-9.033203,-8.972168
6312,0.072876,-0.123779,1.018921,-2.868652,-8.728027,-11.413574
6321,0.121216,-0.124878,0.971191,-2.685547,-9.460449,-13.366699
6332,0.097656,-0.173096,0.918335,-2.258301,-9.887695,-15.258789
6342,0.083252,-0.082642,1.077271,-1.831055,-10.070801,-16.540527
6351,0.011963,-0.061279,0.950928,-1.708984,-9.521484,-16.845703
6363,0.018188,-0.048584,1.105225,-1.525879,-7.690430,-16.418457
6373,-0.004028,-0.079224,1.002197,-1.586914,-7.751465,-16.296387
6382,-0.051270,-0.059570,0.942261,-1.281738,-7.629395,-16.601562
6392,-0.088257,-0.094238,0.999878,-0.915527,-6.469727,-16.479492
6402,-0.069092,-0.194214,0.913086,-1.342773,-5.615234,-15.869141
6411,-0.064697,-0.077515,0.893799,-2.197266,-5.310059,-14.770508
6424,-0.135254,-0.037109,0.955688,-3.051758,-3.295898,-10.803223
6434,-0.043213,0.095703,1.136230,-3.173828,-2.197266,-8.483887
6443,-0.028076,-0.123535,1.076050,-2.441406,-1.525879,-6.958008
6453,-0.047241,-0.100952,0.947998,-2.136230,-1.403809,-6.469727
6463,0.008911,-0.013916,1.058594,-1.770020,-1.403809,-5.798340
6472,0.056152,-0.225098,0.960449,-1.403809,-1.037598,-4.699707
6482,0.049683,-0.067139,0.849487,-1.647949,-0.671387,-3.417969
6492,0.009888,0.035034,0.997803,-1.586914,-0.915527,-0.183105
6503,-0.028931,-0.138184,0.906372,-0.305176,0.305176,1.525879
6513,-0.030273,-0.048340,0.905518,0.061035,0.244141,2.258301
6522,-0.137085,-0.177124,0.892334,0.610352,0.183105,2.502441
6531,-0.130859,-0.210327,0.947144,0.427246,0.488281,2.746582
6542,-0.132080,-0.092041,0.985474,-0.061035,1.220703,2.258301
6552,-0.176392,-0.107666,0.987793,-0.427246,1.098633,1.281738
6561,-0.142212,-0.079346,0.978149,-0.854492,0.915527,-0.671387
6573,-0.015381,-0.086914,0.899536,-1.403809,0.671387,-3.845215
6583,-0.006592,0.056885,1.029053,-1.403809,0.305176,-5.371094
6592,0.073608,-0.177368,1.055664,-1.342773,0.305176,-5.920410
6602,0.058838,-0.161377,0.885742,-1.464844,0.549316,-6.469727
6612,0.148437,0.010254,1.055054,-1.892090,-0.061035,-6.652832
6622,0.056885,-0.048096,0.982666,-2.319336,-0.549316,-6.774902
6632,0.037598,-0.126343,0.916016,-2.807617,0.366211,-5.798340
6642,0.108154,-0.112061,0.939819,-3.479004,-0.427246,-6.042480
6652,-0.005005,-0.148437,0.942017,-4.150391,-1.037598,-5.615234
6662,-0.031616,-0.059326,1.000488,-4.638672,-1.159668,-5.371094
6672,-0.072144,-0.018188,0.976074,-4.821777,-0.488281,-4.516602
6682,-0.073730,0.114258,1.144165,-4.882812,0.427246,-2.929688
6691,-0.050293,0.101196,1.181396,-4.211426,0.915527,-2.502441
6704,-0.040527,0.012085,1.046265,-2.929688,1.342773,-2.929688
6714,0.038818,-0.018555,1.124512,-2.197266,0.854492,-3.540039
6723,0.041748,-0.185913,0.935303,-1.831055,0.244141,-4.333496
6733,0.076538,-0.156250,0.900391,-2.075195,0.000000,-4.699707
6742,0.086914,0.081909,1.055908,-2.502441,-0.122070,-4.821777
6752,0.062378,-0.035156,0.961548,-2.502441,-0.122070,-4.516602
6762,0.022705,-0.069702,0.929077,-2.380371,-0.366211,-4.577637
6774,-0.029175,-0.103271,1.017334,-1.525879,0.061035,-5.432129
6784,-0.080811,-0.051758,1.023438,-1.647949,-0.427246,-6.713867
6794,0.000854,0.104736,1.171631,-1.220703,-0.366211,-7.568359
6803,-0.001099,-0.083496,1.056030,0.000000,-0.183105,-8.239746
6813,0.001831,-0.218506,0.940308,0.427246,-0.671387,-9.582520
6822,0.019165,-0.009277,1.009521,0.671387,-0.854492,-10.803223
6832,0.052734,-0.122803,1.019897,0.793457,-0.671387,-11.352539
6844,0.061401,-0.013428,1.041626,1.342773,0.122070,-12.207031
6853,0.007324,-0.067505,0.996094,1.464844,0.122070,-11.596680
6863,-0.005493,-0.183960,0.919556,1.403809,-0.061035,-12.145996
6873,-0.005005,0.029785,1.130737,1.403809,0.549316,-12.756348
6882,-0.104004,0.046753,1.094482,2.014160,0.244141,-13.427734
6891,-0.087158,-0.213623,0.924316,2.807617,0.671387,-14.404297
6902,0.041504,-0.209717,0.848145,3.295898,1.525879,-14.831543
6911,0.024170,-0.191895,0.797607,2.807617,0.732422,-15.136719
6923,0.048340,-0.014160,0.927734,-0.122070,2.258301,-10.681152
6932,-0.041382,-0.002197,1.049438,0.122070,4.150391,-7.751465
6942,-0.130981,-0.025879,0.998535,0.793457,5.004883,-6.225586
6952,-0.051514,-0.115356,1.043091,1.220703,5.554199,-5.493164
6961,0.011475,-0.189941,0.958740,1.220703,5.676270,-5.859375
6972,-0.027954,-0.072876,0.979492,1.037598,4.638672,-6.652832
6981,-0.044678,0.054932,1.077515,1.403809,4.211426,-6.896973
6993,0.037354,-0.253906,0.862793,1.464844,5.920410,-3.173828
7002,0.017212,0.039307,1.072266,0.793457,6.347656,-0.061035
7012,-0.076538,0.024536,1.127075,-0.366211,6.896973,2.563477
7022,-0.111206,-0.154663,1.090942,-0.183105,8.178711,5.554199
7032,-0.104492,-0.053955,1.169922,0.305176,8.911133,7.324219
7041,-0.119141,-0.038696,1.189087,1.342773,9.033203,8.361816
7053,-0.070679,-0.269165,0.986328,0.427246,8.483887,8.300781
7062,-0.022339,0.052002,1.105347,0.000000,8.178711,9.094238
7072,-0.123169,0.104736,1.212158,0.244141,7.507324,10.681152
7082,-0.175781,-0.166138,1.083984,0.915527,8.422852,12.878418
7091,-0.114014,-0.235474,0.984131,0.976562,10.375977,15.991211
7102,-0.051147,-0.106812,1.017822,0.793457,10.925293,18.493652
7112,-0.035156,-0.197266,0.936035,0.366211,10.070801,19.775391
7121,-0.103149,-0.094238,0.840820,-0.122070,9.460449,20.141602
7133,-0.078003,-0.005005,1.156494,-0.671387,9.277344,20.751953
7142,-0.093140,-0.174927,1.046753,-0.671387,9.033203,19.531250
7152,-0.034668,0.046875,1.214844,-0.427246,8.117676,17.456055
7162,-0.029663,0.217285,1.280151,0.549316,6.713867,14.343262
7172,0.034912,-0.177856,1.049316,1.892090,5.859375,11.047363
7182,0.103760,-0.524048,0.758057,1.770020,4.577637,7.873535
7191,0.191650,-0.235229,0.757812,0.366211,3.417969,6.469727
7203,0.126709,0.098877,0.910034,-1.403809,2.929688,8.178711
7212,0.129639,0.054687,0.977173,-0.610352,3.295898,10.925293
7222,0.083374,-0.057373,0.941772,0.427246,3.112793,11.535645
7232,0.050659,-0.116089,0.925293,1.037598,1.708984,11.535645
7241,0.048706,-0.088257,0.918091,1.037598,0.488281,10.192871
7252,0.062378,-0.005981,0.982788,0.488281,-0.183105,9.094238
7261,0.053589,0.054565,1.037720,0.427246,-0.427246,7.568359
7273,0.033447,-0.039917,1.033203,2.136230,-0.732422,6.713867
7282,0.033691,-0.087646,0.967529,1.953125,-1.464844,5.249023
7292,0.021606,-0.036255,1.042725,1.708984,-2.624512,2.502441
7301,-0.005981,-0.021606,1.076782,2.136230,-3.295898,0.183105
7312,-0.047485,-0.202881,1.007202,2.624512,-3.112793,-1.525879
7322,-0.056763,-0.221924,0.960815,2.868652,-3.051758,-3.540039
7334,0.034546,-0.388550,0.704346,1.647949,-2.807617,-4.821777
7344,0.075317,-0.349121,0.683105,-0.793457,-3.173828,-4.150391
7354,0.026855,-0.161621,0.847900,-2.807617,-2.807617,-0.793457
7363,-0.012451,0.184937,1.087280,-3.967285,-1.953125,2.685547
7373,-0.054687,0.212646,1.335449,-3.723145,-0.183105,6.591797
7383,-0.089722,-0.097290,1.172119,-2.258301,-0.061035,8.361816
7393,-0.122314,-0.302124,0.897461,-1.464844,-0.122070,6.408691
7401,0.005737,-0.090454,0.971313,-1.464844,-0.122070,6.408691
7413,-0.086670,-0.065063,0.960083,-3.845215,-1.892090,4.699707
7423,-0.027954,0.024170,1.162476,-2.929688,-0.305176,5.676270
7432,0.058105,-0.016602,1.204468,-2.136230,0.305176,6.591797
7442,0.040283,-0.349854,0.960937,-2.319336,-1.159668,6.164551
7452,0.066650,-0.282227,0.919312,-2.807617,-1.831055,4.943848
7462,0.049805,-0.032471,1.025024,-3.662109,-2.258301,4.211426
7471,-0.000732,-0.034180,0.940674,-4.272461,-3.173828,4.028320
7483,-0.028931,-0.178955,0.966797,-3.662109,-2.258301,4.577637
7493,-0.038086,-0.109985,0.832886,-3.967285,-1.953125,5.126953
7503,-0.036133,-0.001587,0.901367,-4.272461,-2.380371,5.798340
7513,-0.123779,-0.106689,0.861694,-3.662109,-1.953125,7.080078
7522,-0.110352,-0.067261,0.853882,-3.356934,-1.708984,8.728027
7532,-0.033691,-0.090576,0.953491,-3.234863,-1.037598,10.864258
7542,-0.038940,-0.225464,0.877563,-3.723145,-1.464844,13.183594
7553,-0.028809,0.081421,1.086426,-5.187988,-0.427246,14.526367
7563,-0.006348,-0.110107,1.047363,-4.516602,-0.854492,14.831543
7572,-0.036377,-0.238281,1.017578,-3.845215,-1.831055,13.305664
7581,-0.010864,-0.064331,1.009766,-4.089355,-2.441406,10.437012
7592,0.026978,-0.165405,1.058105,-4.760742,-3.295898,8.056641
7602,0.116821,-0.145752,1.015747,-5.371094,-3.906250,6.103516
7611,0.067627,0.073730,1.059082,-4.943848,-4.699707,2.563477
7623,0.120117,-0.157959,1.003784,-4.211426,-5.310059,1.098633
7632,0.200684,0.045654,1.166870,-4.577637,-5.676270,-0.610352
7642,0.102539,-0.052368,1.104980,-3.601074,-6.652832,-2.624512
7651,0.020142,-0.236572,0.977783,-2.868652,-7.263184,-4.272461
7662,0.098755,0.010620,0.977417,-2.197266,-7.934570,-5.981445
7671,0.096802,-0.055298,1.009888,-1.525879,-7.934570,-7.446289
7684,0.054687,-0.087891,0.913818,-3.234863,-8.972168,-8.728027
7693,0.048096,0.121704,1.150391,-3.967285,-8.361816,-8.422852
7703,-0.064331,0.021729,1.108154,-3.051758,-8.422852,-8.972168
7713,-0.073486,0.007568,1.095581,-1.281738,-8.300781,-10.009766
7722,0.001831,0.064575,1.189941,-0.305176,-8.300781,-12.451172
7732,0.025146,-0.180176,0.992676,-0.122070,-7.873535,-15.197754
7741,0.066772,-0.272705,0.859741,-0.610352,-8.239746,-18.005371
7754,0.091919,-0.016357,0.822632,-1.525879,-8.972168,-20.263672
7764,0.108154,-0.178833,0.827515,-1.892090,-8.361816,-19.653320
7773,0.112671,-0.099976,0.873291,-2.624512,-7.934570,-18.249512
7783,0.102051,0.052124,1.071289,-3.295898,-7.019043,-17.089844
7793,-0.004395,0.169922,1.148315,-3.601074,-6.652832,-16.662598
7803,-0.005981,0.183228,1.267700,-2.319336,-6.469727,-17.333984
7813,-0.035278,0.002808,1.126465,-0.183105,-6.103516,-21.911621
7824,0.058960,-0.037842,1.026489,0.915527,-7.080078,-24.047852
7834,0.049927,0.100220,1.074463,0.854492,-6.530762,-25.024414
7843,-0.010376,-0.027710,0.953369,1.708984,-5.798340,-25.390625
7853,0.019531,-0.126465,0.905273,2.624512,-4.943848,-24.291992
7863,0.050903,-0.190796,0.806519,2.746582,-4.516602,-23.925781
7872,0.076416,-0.293823,0.732666,1.770020,-3.662109,-22.583008
7882,0.154175,-0.214355,0.899170,0.305176,-3.112793,-20.202637
7894,-0.220581,0.071411,1.026611,-0.366211,-2.502441,-14.038086
7904,-0.247925,0.031250,0.980103,1.037598,-0.122070,-11.474609
7913,-0.143555,-0.204346,0.832764,1.647949,2.258301,-9.033203
7923,-0.065308,-0.174316,0.821045,0.854492,2.746582,-8.178711
7932,-0.118652,0.092041,0.962646,-0.610352,2.624512,-8.300781
7942,-0.146851,0.016968,1.029907,-0.854492,2.807617,-7.690430
7952,-0.152466,-0.060059,0.965454,-0.488281,3.845215,-7.202148
7962,-0.074829,-0.035034,1.055054,-0.549316,4.577637,-6.774902
7972,-0.041748,-0.091309,1.050293,-1.037598,4.699707,-6.408691
7982,-0.030884,0.005615,1.182739,-0.610352,5.432129,-5.737305
7992,-0.098511,-0.151245,1.060425,0.305176,5.676270,-5.187988
8002,-0.062622,-0.322021,0.813721,0.427246,5.798340,-4.211426
8012,0.134399,-0.206299,0.938232,-0.122070,6.408691,-3.112793
8022,0.036011,-0.189331,0.987305,-1.464844,6.103516,-0.549316
8034,-0.078857,0.077759,1.078735,-3.051758,8.300781,5.798340
8043,-0.046631,0.001465,1.086304,-2.807617,8.483887,8.422852
8053,-0.196533,-0.074097,1.080322,-2.136230,8.666992,9.826660
8062,-0.153564,0.076172,1.154541,-1.831055,8.117676,10.681152
8072,-0.167603,-0.013184,1.072388,-1.159668,8.544922,10.925293
8082,-0.091309,-0.227051,0.923706,-0.427246,8.666992,10.803223
8092,-0.046387,-0.099976,0.981201,-0.183105,7.934570,11.840820
8102,-0.046387,0.002930,1.022949,-1.403809,8.117676,13.488770
8114,0.012085,-0.166260,1.035034,-1.342773,8.117676,14.221191
8123,-0.014771,0.026245,1.101440,-1.159668,7.568359,13.793945
8132,-0.169800,-0.189575,0.901611,-1.708984,6.347656,12.390137
8142,-0.086060,-0.202026,0.934204,-2.136230,5.798340,11.047363
8153,0.033081,0.099121,1.096436,-2.136230,6.652832,10.131836
8162,0.025879,-0.078735,1.046997,-1.464844,6.713867,9.765625
8174,0.023437,-0.055664,0.960083,-1.281738,4.882812,8.300781
8183,0.055054,-0.098511,1.001099,-0.854492,4.516602,8.361816
8192,0.076294,-0.111938,0.971313,-0.732422,3.906250,8.789063
8203,0.061401,-0.043213,1.071167,-0.244141,3.417969,8.728027
8212,-0.054687,-0.138794,0.996826,0.183105,3.234863,8.544922
8223,0.009521,-0.169678,0.993408,0.122070,3.173828,8.300781
8232,-0.040894,0.097412,1.195923,0.488281,2.746582,6.713867
8242,-0.059082,0.067749,1.215820,2.807617,2.319336,2.197266
8253,0.053955,-0.227661,0.981567,3.540039,1.525879,-0.488281
8263,0.152954,-0.055786,1.052002,3.601074,1.037598,-2.868652
8272,0.111084,-0.186768,0.959351,3.356934,-0.366211,-4.150391
8283,0.128174,-0.299805,0.800415,2.868652,-0.488281,-4.516602
8292,0.093262,-0.055054,0.915649,2.380371,-0.305176,-4.150391
8304,0.109497,-0.014893,0.965332,0.183105,-0.366211,-3.234863
8314,0.014282,0.002686,0.928955,-0.488281,-0.793457,-3.662109
8323,-0.032959,0.101685,1.055664,-0.366211,-0.244141,-3.906250
8333,0.001343,0.020386,1.036255,0.183105,-0.183105,-4.699707
8342,0.002197,-0.062744,1.110229,0.671387,-0.549316,-5.249023
8353,0.024780,-0.006226,1.071777,0.915527,-1.159668,-6.652832
8362,0.092285,-0.082397,1.009644,1.159668,-0.671387,-7.019043
8374,0.168213,-0.030396,1.002563,0.976562,-2.136230,-7.263184
8383,0.046753,-0.261230,0.884521,0.610352,-2.136230,-6.347656
8393,0.050293,-0.134277,0.920288,-0.366211,-0.732422,-5.249023
8403,0.139038,-0.062500,1.023926,-0.793457,0.244141,-3.845215
8412,0.050903,-0.212402,1.064453,-0.854492,-0.854492,-3.723145
8422,-0.093994,-0.091064,1.050171,-0.854492,-1.708984,-4.211426
8433,-0.129028,0.129028,1.191406,-0.549316,-1.708984,-4.577637
8443,-0.168213,-0.090698,1.062134,0.427246,-0.610352,-4.638672
8452,-0.091309,-0.250977,0.893433,0.000000,0.366211,-3.967285
8462,-0.059204,0.000488,0.925293,-0.244141,0.549316,-2.136230
8473,-0.132812,-0.237549,0.935425,0.366211,2.380371,0.244141
8482,-0.049805,-0.168335,0.902710,0.366211,3.479004,2.136230
8493,-0.089478,-0.101563,0.863037,-0.122070,3.967285,3.234863
8502,-0.079834,-0.135620,0.886108,-0.793457,3.173828,3.662109
8512,-0.127808,-0.208130,0.889404,-1.525879,3.784180,4.821777
8524,-0.151245,0.020630,1.024658,-2.136230,4.943848,7.141113
8533,-0.188599,-0.145508,1.019409,-2.258301,5.004883,7.812500
8543,-0.118774,-0.329468,0.912598,-3.051758,5.798340,8.178711
8552,-0.106445,-0.119263,0.960449,-3.845215,5.859375,8.544922
8562,-0.102173,0.064453,1.012207,-4.455566,6.042480,8.239746
8573,-0.145874,-0.031982,0.934692,-4.150391,6.225586,8.911133
8583,-0.081421,-0.125977,0.964111,-3.967285,6.347656,9.582520
8594,-0.036743,-0.044556,0.957275,-4.882812,7.019043,11.840820
8604,-0.064575,0.026245,1.170288,-4.760742,7.141113,13.793945
8613,-0.100342,-0.086792,1.061035,-3.906250,7.751465,15.869141
8623,-0.057129,-0.053467,1.034180,-3.173828,7.934570,17.333984
8632,-0.051758,0.063110,1.122803,-2.380371,7.690430,17.822266
8643,-0.088867,-0.112183,1.057007,-1.953125,7.385254,18.249512
8652,-0.066406,-0.314209,0.961914,-2.014160,7.202148,18.493652
8664,-0.032837,0.010864,1.116943,-1.953125,6.408691,18.127441
8674,-0.058960,-0.216309,1.029053,-1.770020,5.859375,17.578125
8683,-0.005249,-0.105469,0.987183,-1.647949,5.493164,16.662598
8693,0.057861,0.154907,1.156616,-1.220703,5.737305,15.747070
8703,0.019043,-0.096436,0.953003,-1.037598,4.577637,14.465332
8712,0.033569,-0.320679,0.808472,-1.098633,3.784180,13.061523
8724,0.123779,-0.040161,0.934814,-2.685547,2.075195,11.657715
8733,0.010864,-0.020630,1.089233,-3.051758,1.892090,11.169434
8743,0.022095,0.075073,1.154419,-2.441406,1.953125,11.474609
8752,0.012451,0.033691,1.126831,-1.647949,1.647949,9.765625
8763,0.005005,-0.132080,1.014282,-1.464844,0.732422,7.263184
8772,0.048584,-0.010376,1.020264,-1.464844,-0.244141,4.699707
8783,0.096069,-0.009766,1.120972,-1.037598,-0.793457,2.563477
8793,0.136108,-0.177734,0.966431,-0.488281,-1.281738,0.671387
8804,0.148804,-0.109375,0.968384,-0.244141,-2.746582,0.671387
8813,0.138184,-0.118774,0.963867,-0.427246,-3.051758,0.488281
8823,0.137085,0.007690,1.060913,-0.183105,-3.173828,0.610352
8833,0.052490,-0.130005,0.924438,0.671387,-3.723145,0.061035
8842,-0.007568,-0.311279,0.746216,0.854492,-4.516602,-0.976562
8853,0.048096,-0.150391,0.798706,-0.122070,-4.333496,-1.831055
8863,0.019409,-0.040283,0.864990,-1.098633,-4.516602,-2.624512
8872,-0.044312,0.003906,0.913696,-1.037598,-4.211426,-2.746582
8883,-0.045044,-0.059326,0.925781,-0.610352,-3.295898,-3.601074
8893,-0.012329,-0.098999,0.858032,-0.671387,-2.990723,-4.577637
8903,0.026123,-0.048584,0.885376,-1.403809,-3.662109,-5.493164
8912,0.057861,-0.056763,0.885010,-1.953125,-3.601074,-6.103516
8923,0.048462,-0.041382,0.962646,-2.380371,-3.356934,-6.103516
8933,0.009277,-0.028564,0.987183,-2.502441,-3.295898,-5.981445
8944,0.055298,-0.037476,1.086914,-2.868652,-2.197266,-6.042480
8954,0.073486,-0.150269,1.079102,-3.112793,-2.807617,-6.835937
8964,0.046509,0.003662,1.094238,-3.112793,-3.112793,-7.751465
8973,0.046509,0.051147,1.222412,-2.380371,-2.990723,-8.972168
8983,0.080200,-0.220215,1.094116,-1.647949,-3.295898,-9.277344
8993,0.225708,-0.298340,1.056885,-1.403809,-2.990723,-9.521484
9005,-0.033203,-0.104614,1.047607,-1.708984,-4.821777,-6.286621
9015,-0.292725,-0.093628,0.926392,-0.610352,-3.540039,-3.173828
9025,-0.138672,-0.100220,0.906128,0.000000,-0.305176,1.342773
9034,0.033081,-0.230469,0.870361,-0.183105,2.075195,5.249023
9044,-0.094116,-0.122803,1.025391,-0.976562,2.319336,7.629395
9054,-0.204224,0.110352,1.184082,-2.441406,0.915527,8.728027
9063,-0.196289,0.010498,0.948975,-3.173828,1.464844,9.216309
9073,-0.026978,-0.129639,0.888306,-2.868652,1.831055,6.530762
9082,-0.046753,-0.299072,0.831787,-4.333496,-0.427246,5.493164
9093,0.057861,-0.011963,0.914062,-6.225586,-0.183105,5.798340
9103,0.067017,0.033447,0.943237,-6.164551,1.525879,6.530762
9113,0.081177,0.097168,1.113525,-5.310059,1.281738,6.713867
9122,0.015747,-0.060547,0.985352,-4.455566,0.366211,5.371094
9133,0.075806,-0.160767,0.863403,-4.028320,-0.305176,3.234863
9143,0.176758,-0.111450,0.963379,-4.455566,0.061035,0.305176
9152,0.188110,-0.082520,0.949097,-4.821777,-3.051758,-0.610352
9163,0.070190,0.032227,0.965820,-4.211426,-3.234863,-0.732422
9173,0.072876,-0.107910,0.974731,-3.295898,-3.234863,-0.793457
9183,0.071167,-0.137939,0.989502,-2.563477,-2.868652,-1.403809
9193,-0.061035,-0.185425,0.909302,-2.868652,-4.150391,-1.953125
9203,-0.083984,-0.035278,0.911011,-3.173828,-4.638672,-2.441406
9213,-0.049316,-0.053955,0.970459,-2.380371,-2.014160,-0.366211
9223,0.002319,-0.232666,0.859497,-1.403809,-1.770020,-0.183105
9233,-0.045532,-0.182739,0.993286,-1.953125,-2.563477,0.244141
9243,-0.067993,-0.186523,0.992310,-2.258301,-1.342773,0.976562
9253,-0.026855,-0.063721,1.133179,-2.319336,-0.915527,1.403809
9262,-0.090698,0.012085,1.179688,-1.831055,-1.220703,0.671387
9273,-0.087402,-0.118896,1.194824,-1.281738,-1.831055,-0.488281
9283,-0.036987,-0.103149,1.141968,-0.610352,-1.464844,-3.784180
9293,0.044678,-0.258179,0.837646,-1.220703,-2.014160,-4.577637
9303,0.056152,-0.142334,0.794434,-2.258301,-2.136230,-4.089355
9313,0.098267,-0.032471,0.997559,-3.356934,-1.770020,-2.014160
9323,0.013428,-0.018677,1.004883,-4.089355,-0.915527,0.671387
9333,-0.002930,0.163452,1.174438,-4.272461,0.061035,3.112793
9343,-0.016113,0.077759,1.189209,-3.723145,-0.061035,4.028320
9355,-0.009888,0.024902,0.994751,-4.028320,-0.793457,2.319336
9365,0.002075,0.040771,1.014771,-4.150391,-1.281738,1.464844
9374,-0.048584,-0.027954,0.989014,-3.967285,-1.403809,1.464844
9384,-0.005127,0.061523,1.000000,-3.112793,-0.244141,2.441406
9393,0.032959,0.006714,0.929687,-2.441406,-0.244141,3.540039
9403,0.066162,-0.134521,0.825928,-1.892090,-0.305176,3.967285
9413,0.061523,-0.145264,0.764526,-2.075195,-0.915527,4.272461
9425,0.049683,-0.119995,0.915527,-2.624512,-1.892090,5.676270
9435,0.019897,-0.084473,0.945557,-2.746582,-1.953125,5.981445
9444,-0.031860,-0.057373,0.968994,-2.563477,-2.075195,5.615234
9454,-0.021118,-0.023315,1.026367,-2.380371,-2.441406,4.028320
9463,-0.008301,-0.023193,1.056763,-2.319336,-2.624512,2.136230
9473,0.000366,0.000610,1.058594,-1.647949,-3.173828,-0.549316
9483,-0.056763,-0.075073,1.012695,-0.854492,-3.845215,-3.662109
9495,0.083374,-0.056396,1.051880,-0.549316,-3.601074,-6.530762
9505,0.049805,0.079956,1.051147,-0.793457,-4.028320,-6.774902
9514,-0.026489,-0.087158,1.055664,-0.122070,-4.455566,-6.103516
9524,-0.014893,-0.107300,1.101440,0.915527,-2.868652,-5.065918
9534,0.068726,-0.199951,1.071411,1.037598,-2.441406,-3.601074
9544,0.012451,-0.270630,0.932373,0.854492,-3.112793,-2.502441
9553,0.006714,-0.142700,1.125610,0.854492,-2.746582,-1.220703
9563,-0.007080,-0.085571,1.128662,0.732422,-2.380371,2.319336
9574,-0.075073,-0.237427,0.996460,0.732422,-1.403809,3.356934
9584,-0.007568,-0.206787,1.013428,-0.061035,-1.342773,4.455566
9593,-0.021240,-0.250244,0.901123,-1.281738,-1.525879,5.981445
9603,-0.102417,0.004517,1.001953,-2.014160,-1.220703,7.324219
9613,-0.098999,0.094482,1.138428,-2.075195,-0.793457,8.789063
9623,-0.122070,-0.071899,1.052368,-1.342773,-0.122070,9.582520
9633,-0.084351,-0.060791,1.057983,-0.732422,-0.061035,8.178711
9644,-0.047852,-0.162476,1.019653,0.061035,-1.403809,7.019043
9654,-0.024536,-0.182251,0.930298,0.427246,-1.220703,5.554199
9664,-0.001465,-0.099243,0.945557,0.488281,-1.953125,4.455566
9673,0.013672,-0.147461,0.869873,0.061035,-2.624512,2.929688
9683,0.010010,-0.102783,1.016479,-0.183105,-2.380371,2.563477
9693,0.080933,0.036621,1.170288,-0.427246,-2.380371,1.770020
9703,-0.001099,-0.040405,1.092773,-0.061035,-2.746582,-1.953125
9713,-0.025391,-0.054687,1.090942,2.624512,-3.601074,-4.882812
9723,0.073730,-0.208618,1.083130,3.540039,-4.333496,-7.995605
9733,0.084229,-0.365356,0.789795,3.784180,-4.882812,-11.047363
9744,0.073364,-0.128906,0.937988,3.662109,-5.065918,-12.573242
9753,0.082031,0.048218,1.050293,3.479004,-5.310059,-13.183594
9763,0.036865,-0.205811,0.907837,3.723145,-4.638672,-12.329102
9775,0.018188,-0.108887,0.934814,3.784180,-3.845215,-10.559082
9785,-0.004639,-0.028809,1.221558,3.234863,-3.601074,-9.765625
9795,-0.023804,-0.027588,1.310913,3.051758,-2.929688,-10.070801
9805,-0.114990,0.010620,1.067017,4.882812,-3.479004,-12.329102
9814,-0.019531,-0.268188,0.793945,5.981445,-2.990723,-13.183594
9824,0.131348,-0.707153,0.315063,5.371094,-3.295898,-14.648438
9834,0.184448,-0.484253,0.215698,-0.183105,-4.455566,-9.216309
9845,-0.063354,0.707031,1.363525,-7.202148,-1.342773,-2.929688
9855,-0.240601,0.391724,1.462036,-3.479004,1.464844,3.112793
9864,-0.275146,-0.280762,1.230347,0.671387,2.868652,3.723145
9873,-0.162964,-0.278931,1.010254,0.671387,2.075195,-0.122070
9883,-0.051880,-0.047363,1.040894,-1.953125,0.244141,-4.943848
9893,-0.097900,0.025513,0.786499,-2.868652,-1.892090,-8.483887
9903,-0.058838,0.036743,0.811768,-1.770020,-1.159668,-8.666992
9913,0.045166,-0.062622,0.878418,-1.220703,2.807617,-1.586914
9924,0.030396,-0.147095,1.068481,-3.112793,2.868652,1.220703
9934,-0.034058,-0.009521,0.921631,-4.028320,3.234863,3.051758
9943,0.012695,0.081665,1.021973,-3.234863,2.990723,3.417969
9954,-0.005493,-0.056274,1.040649,-2.441406,2.075195,2.929688
9964,-0.116211,-0.237549,1.023438,-2.380371,0.854492,1.403809
9973,-0.108521,0.005127,1.130249,-2.807617,1.403809,0.427246
9983,0.010620,0.115967,1.280151,-2.807617,1.953125,-0.488281
9994,0.052734,-0.196899,0.810181,-1.281738,0.976562,-1.708984
10007,0.105835,-0.068481,1.004517,-1.342773,0.488281,-2.441406
10016,0.081421,-0.173828,0.945923,-2.258301,0.000000,-2.380371
10026,0.053589,-0.124390,1.048950,-3.112793,0.244141,-1.892090
10036,-0.025024,-0.001221,1.074463,-3.479004,0.854492,-1.586914
10045,0.002930,-0.118164,1.015869,-3.356934,0.122070,-2.014160
10055,-0.039063,-0.124023,0.990601,-3.417969,-0.061035,-2.990723
10065,-0.062622,-0.068970,0.971680,-3.906250,0.061035,-2.929688
10075,0.032837,0.091187,1.046753,-4.272461,0.671387,-2.136230
10084,-0.042969,-0.245605,0.976807,-3.784180,1.159668,-1.220703
10094,0.003174,-0.145630,0.859375,-4.699707,0.793457,-0.427246
10103,0.054443,0.051636,0.972412,-6.347656,1.159668,0.305176
10115,0.038452,0.077637,1.125854,-4.577637,0.549316,0.000000
10124,-0.066406,0.177979,1.186523,-4.211426,0.366211,-0.854492
10134,-0.027954,0.185669,1.055298,-2.807617,1.037598,-2.014160
10143,0.082520,-0.030396,1.077393,1.464844,0.671387,-5.065918
10154,0.080078,-0.358032,0.860718,3.906250,-0.793457,-6.286621
10163,0.062866,-0.395752,0.647095,2.990723,-1.403809,-6.835937
10173,0.106201,-0.205444,0.786377,0.732422,-1.464844,-5.554199
10184,0.002808,-0.081909,0.924683,-0.610352,-0.244141,-2.990723
10193,-0.084961,0.029053,1.042358,0.122070,2.136230,1.220703
10204,-0.161255,-0.241333,1.101074,0.671387,1.464844,-0.061035
10214,-0.085083,-0.213989,0.948730,1.281738,1.464844,-3.295898
10223,-0.037842,-0.046143,0.998413,1.464844,0.732422,-5.371094
10233,0.025146,-0.189331,0.739502,1.831055,0.488281,-6.225586
10243,0.077026,-0.221558,0.743286,1.464844,0.549316,-5.493164
10253,0.134521,-0.127930,0.903564,0.305176,0.610352,-2.868652
10265,-0.093750,0.120605,1.319946,-0.427246,2.258301,2.502441
10275,-0.081543,0.067871,1.312012,1.281738,3.295898,3.173828
10284,0.016235,-0.382324,0.979370,3.173828,3.479004,2.258301
10293,0.056152,-0.451904,0.702637,2.380371,1.953125,-0.427246
10303,0.015991,-0.318359,0.571289,-0.366211,-0.366211,-1.342773
10313,0.039917,-0.041016,0.742432,-3.356934,0.183105,0.854492
10323,0.016724,0.053223,1.092773,-5.126953,2.075195,5.615234
10335,-0.139038,0.108276,1.128784,-4.150391,3.601074,11.108398
10345,-0.091797,0.027588,1.130005,-3.417969,3.234863,10.375977
10354,-0.075317,-0.071045,0.929443,-3.051758,2.319336,7.995605
10364,-0.046265,-0.017944,0.928101,-2.868652,1.403809,5.798340
10373,-0.043335,-0.021606,0.905640,-3.234863,1.220703,5.065918
10383,-0.061890,-0.036255,0.945923,-3.356934,1.037598,5.249023
10393,0.019897,0.011963,1.069336,-3.479004,2.136230,6.225586
10405,-0.023682,0.074829,1.123169,-2.319336,1.892090,6.469727
10415,0.038940,0.006836,1.175171,-1.098633,1.892090,4.943848
10424,0.008057,-0.222168,1.031372,-0.427246,0.427246,2.807617
10433,0.025635,-0.189453,0.915405,-0.366211,-0.061035,0.427246
10443,0.039673,-0.113770,1.025269,-0.976562,-0.976562,-1.525879
10453,0.048584,-0.205688,0.892578,-1.464844,-0.854492,-2.258301
10463,0.050537,-0.171509,0.881836,-2.136230,-0.732422,-2.136230
10473,0.072632,-0.088867,0.877686,-3.356934,-1.525879,0.427246
10485,-0.015015,-0.044556,0.983643,-3.723145,-1.403809,1.770020
10494,-0.027222,-0.149048,0.968384,-3.417969,-1.220703,3.417969
10504,-0.037720,-0.119751,0.966431,-3.051758,-0.244141,4.516602
10514,-0.048462,-0.077515,0.896484,-3.784180,-0.549316,5.432129
10523,-0.064941,-0.002808,0.963379,-4.638672,-0.732422,6.408691
10533,-0.027710,-0.016968,1.046509,-5.004883,-0.610352,7.507324
10545,-0.038574,0.093140,1.142456,-5.065918,-0.427246,7.934570
10554,-0.048340,-0.067871,1.035278,-3.479004,-0.610352,7.019043
10564,0.046875,-0.252930,0.961914,-2.868652,-0.610352,5.615234
10574,0.109863,-0.114380,0.848511,-3.356934,-1.647949,5.371094
10583,0.051636,-0.090698,0.892212,-4.333496,-2.746582,5.371094
10593,0.045288,-0.012573,1.074097,-4.638672,-2.197266,7.080078
10603,0.050049,0.076050,1.202637,-4.455566,-2.319336,8.361816
10615,0.014648,-0.055908,1.112549,-3.173828,-2.258301,7.141113
10624,0.055908,-0.132446,0.948242,-0.732422,-4.333496,5.310059
10633,0.069824,-0.225952,0.807617,-0.427246,-5.126953,3.662109
10643,0.061523,-0.161621,0.943848,-0.244141,-5.615234,2.807617
10653,0.003540,-0.132324,0.931152,-0.549316,-5.493164,3.173828
10663,-0.047485,-0.090454,0.966919,-0.610352,-5.554199,3.479004
10675,-0.003418,-0.045654,1.104858,0.549316,-5.920410,2.075195
10684,-0.073486,-0.222656,0.898560,0.549316,-6.042480,0.427246
10694,-0.040649,-0.173950,0.978882,0.183105,-5.615234,-1.342773
10704,-0.039551,-0.237671,0.877075,-0.244141,-6.408691,-3.112793
10714,0.006348,-0.169312,0.948975,-0.793457,-6.408691,-4.455566
10723,0.014526,-0.198486,1.036499,-1.342773,-5.798340,-5.737305
10733,0.043823,-0.273926,0.959106,-2.380371,-6.408691,-6.408691
10743,0.060547,-0.013306,1.067627,-3.662109,-7.141113,-7.629395
10755,0.020996,-0.090088,1.066284,-3.967285,-7.507324,-10.803223
10765,0.127686,-0.077759,1.070801,-2.380371,-7.812500,-13.244629
10774,0.191650,-0.154663,1.016357,-2.014160,-8.361816,-15.075684
10784,0.184326,-0.154907,0.987915,-2.380371,-9.521484,-16.113281
10794,0.155273,0.031250,1.125122,-2.502441,-9.399414,-15.930176
10803,0.123413,0.093384,1.196777,-1.586914,-9.521484,-15.686035
10815,0.044556,-0.135010,1.099243,0.732422,-9.155273,-17.456055
10824,0.063232,-0.171387,1.017090,0.915527,-9.521484,-18.981934
10835,0.047607,-0.184326,0.830078,0.488281,-10.253906,-20.324707
10844,0.034546,-0.077759,0.874512,0.244141,-9.460449,-20.812988
10854,0.015015,-0.117920,0.883545,0.061035,-9.155273,-20.202637
10863,0.003418,-0.173950,0.766479,-0.305176,-8.239746,-19.531250
10873,0.035278,-0.037109,0.882690,-1.037598,-8.117676,-18.676758
10885,0.032959,-0.032349,0.876953,-2.258301,-7.690430,-17.700195
10894,-0.059448,-0.026855,0.930908,-2.075195,-6.774902,-17.028809
10904,-0.068726,-0.025513,0.920166,-1.953125,-5.859375,-16.662598
10914,-0.071899,0.003174,0.961304,-2.136230,-6.042480,-16.967773
10923,-0.031006,-0.104614,0.921387,-2.563477,-5.676270,-16.967773
10933,-0.045410,-0.003296,0.983521,-3.112793,-5.249023,-16.723633
10943,-0.045776,0.170044,1.101196,-3.051758,-4.272461,-16.723633
10953,-0.057129,0.002686,1.118164,-2.380371,-3.295898,-16.357422
10965,0.023926,0.029663,1.219116,-2.014160,-3.173828,-17.700195
10974,0.019775,-0.071167,1.067383,-1.403809,-3.173828,-18.615723
10984,0.007324,-0.111084,0.964233,-1.525879,-3.295898,-18.920898
10994,0.006958,0.017334,1.046143,-1.281738,-2.563477,-18.737793
11003,-0.015259,-0.115723,1.038574,-0.732422,-1.403809,-17.089844
11013,-0.019897,-0.078735,0.983154,-0.488281,-1.159668,-15.502930
11025,-0.061523,-0.019775,1.042725,-0.549316,1.098633,-11.230469
11035,-0.139526,-0.044800,0.901123,-0.854492,1.037598,-9.643555
11044,-0.203125,-0.009644,0.915039,-1.037598,1.403809,-7.934570
11054,-0.232300,-0.104126,0.904663,-1.037598,2.380371,-6.408691
11064,-0.142700,-0.078491,0.944580,-1.159668,3.845215,-5.126953
11073,-0.179932,-0.120972,0.925049,-1.220703,4.699707,-3.784180
11084,-0.186768,-0.070068,0.908569,-1.953125,4.211426,-3.234863
11093,-0.114868,0.016846,1.018188,-2.441406,4.882812,-2.685547
11103,-0.124878,-0.045532,1.041992,-1.464844,5.859375,-2.441406
11113,0.010864,-0.050903,1.101074,-1.342773,5.798340,-3.295898
11124,0.073730,-0.115234,0.954346,-1.770020,5.126953,-4.272461
11133,0.046753,-0.004883,1.007568,-1.953125,4.272461,-5.004883
11144,0.083740,0.002563,1.010864,-1.831055,4.028320,-4.455566
11153,0.049072,-0.100952,0.911133,-1.586914,3.967285,-3.356934
11165,0.094238,-0.100220,0.997681,-2.258301,3.662109,0.183105
11174,-0.088257,-0.008423,1.033691,-2.319336,4.272461,2.319336
11184,-0.051392,0.090332,1.164551,-1.892090,5.004883,3.906250
11194,-0.126587,-0.077026,1.153442,-0.427246,5.249023,4.882812
11203,-0.137085,-0.126709,1.103882,0.915527,5.432129,4.882812
11213,-0.136597,-0.002197,1.106445,1.464844,4.882812,3.723145
11224,-0.072021,-0.162964,1.052124,2.014160,3.967285,2.380371
11233,-0.053467,-0.207764,0.935303,2.380371,3.784180,0.793457
11245,-0.025391,-0.148437,0.899780,2.563477,3.845215,0.427246
11254,-0.044922,-0.254028,0.880249,2.563477,4.333496,0.793457
11264,0.006348,-0.109863,1.001343,2.197266,4.211426,1.586914
11273,-0.052246,-0.127930,0.921265,1.464844,3.479004,1.647949
11284,-0.040894,-0.174683,0.889404,1.220703,3.906250,1.525879
11293,-0.031128,-0.061401,1.014648,0.793457,3.295898,1.342773
11305,-0.079102,-0.126587,1.042847,0.610352,3.295898,-0.122070
11314,-0.048706,0.057495,1.129395,1.098633,3.417969,-1.220703
11324,-0.041016,-0.127197,1.065186,1.953125,3.051758,-2.624512
11333,-0.052734,-0.211548,0.938477,1.953125,2.563477,-3.784180
11344,0.041382,0.001709,1.048218,1.831055,1.953125,-4.333496
11354,0.052124,0.007568,1.083130,2.136230,2.990723,-4.089355
11363,0.066772,-0.225708,1.020508,2.441406,2.990723,-3.845215
11373,0.111572,-0.084839,1.069824,2.563477,2.929688,-4.272461
11385,0.012817,-0.069702,1.107666,2.685547,1.831055,-6.164551
11394,-0.000854,-0.061523,1.094238,3.356934,1.098633,-7.141113
11403,0.016113,-0.018066,1.111572,4.211426,1.159668,-8.178711
11414,-0.045288,-0.114258,0.989014,4.455566,0.976562,-9.460449
11423,0.018188,-0.182495,0.973022,4.150391,0.854492,-9.521484
11434,0.073730,-0.078491,1.062378,3.784180,0.976562,-9.460449
11443,0.012085,-0.133789,0.820557,3.417969,0.793457,-8.850098
11455,0.080933,-0.125244,0.896362,3.356934,1.892090,-6.896973
11464,0.040771,-0.195312,0.864136,1.770020,1.953125,-5.737305
11474,0.021973,-0.026733,0.984009,0.976562,1.953125,-4.882812
11483,-0.000366,0.033569,1.046753,1.220703,1.892090,-3.906250
11494,-0.037720,-0.047363,1.038574,1.647949,1.953125,-4.150391
11503,-0.041992,-0.096802,0.997803,1.831055,1.586914,-4.638672
11513,-0.038452,-0.222656,0.840576,1.403809,1.098633,-5.187988
11525,-0.011230,-0.019409,0.874512,-0.244141,1.647949,-3.356934
11534,-0.060913,-0.019897,0.919922,-2.807617,2.685547,-1.281738
11544,-0.085571,0.061890,0.984253,-3.173828,3.417969,0.793457
11554,-0.055542,0.028564,1.063110,-2.441406,3.662109,1.464844
11563,-0.061157,-0.010986,1.008911,-2.502441,2.990723,1.037598
11574,-0.003052,-0.032959,1.040527,-2.502441,2.563477,0.732422
11583,-0.020508,-0.036377,0.938599,-2.258301,2.624512,0.671387
11595,0.019165,-0.100708,0.949951,-2.380371,3.173828,3.173828
11604,0.009033,-0.109619,1.000854,-2.380371,3.356934,4.699707
11613,-0.106079,-0.127930,1.045654,-2.746582,3.540039,5.187988
11624,-0.200928,-0.192017,0.986084,-2.868652,4.272461,5.249023
11634,-0.033936,-0.023926,1.030762,-2.624512,5.004883,4.333496
11644,0.104980,-0.199219,1.259033,-1.403809,3.906250,1.770020
11653,-0.004150,-0.237549,0.933350,-1.220703,0.793457,-1.403809
11665,0.027222,-0.101440,1.034912,-1.892090,-0.183105,-4.516602
11674,0.053711,-0.093140,0.926147,-3.051758,0.183105,-4.150391
11684,0.080811,0.137085,0.998657,-3.356934,0.427246,-3.723145
11694,0.063477,-0.140869,1.001221,-2.441406,1.037598,-3.112793
11704,0.050903,-0.308228,0.906372,-2.197266,0.915527,-2.990723
11714,0.093262,-0.234253,0.890625,-3.601074,0.610352,-2.990723
11726,-0.082642,-0.005981,0.947510,-5.554199,-0.732422,-2.319336
11736,-0.094849,-0.190674,0.917603,-5.737305,0.427246,0.061035
11745,-0.021362,0.026489,0.958862,-6.103516,1.159668,1.770020
11754,-0.015869,-0.087402,1.006104,-6.042480,1.037598,2.563477
11764,-0.089355,-0.065674,1.017700,-6.347656,0.183105,3.295898
11773,-0.070679,0.036011,0.895874,-6.408691,0.427246,4.089355
11784,-0.048462,-0.134033,0.928589,-5.432129,1.586914,4.943848
11793,-0.007935,-0.121094,0.999268,-4.699707,1.586914,5.737305
11805,-0.045654,-0.102051,0.982788,-5.065918,0.915527,5.554199
11815,-0.037842,0.010132,1.151489,-4.516602,0.915527,5.432129
11824,-0.119751,-0.044922,0.952637,-3.906250,0.671387,4.943848
11834,-0.164307,-0.076050,0.990601,-3.234863,0.427246,3.601074
11844,-0.123901,-0.166626,1.017090,-2.380371,0.549316,2.685547
11854,-0.044189,-0.196533,0.877197,-2.441406,1.586914,2.624512
11863,-0.056274,-0.065063,0.960937,-2.685547,1.525879,2.502441
11875,-0.095947,-0.115479,0.927490,-2.319336,1.525879,3.234863
11885,0.032959,-0.045776,1.060303,-2.380371,2.014160,3.234863
11894,-0.009277,-0.165771,1.051147,-2.075195,0.976562,2.258301
11904,-0.062256,-0.154053,1.058105,-1.770020,0.366211,0.671387
11914,0.063477,-0.014404,1.125732,-1.464844,0.244141,-0.549316
11924,0.088623,-0.175659,1.055542,-0.854492,0.427246,-2.441406
11934,0.095825,-0.161499,0.930054,-0.854492,-0.854492,-5.981445
11945,0.103638,-0.096436,1.075317,-1.403809,-1.892090,-7.080078
11955,0.042480,-0.083984,1.061523,-1.159668,-2.075195,-8.178711
11965,0.087036,-0.009521,1.087769,-0.915527,-2.380371,-9.338379
11974,0.041748,-0.172729,0.914673,-0.610352,-2.624512,-10.559082
11984,0.049438,-0.142578,0.951660,-1.037598,-2.868652,-11.291504
11993,0.066406,0.027222,1.017700,-1.831055,-3.234863,-11.291504
12005,-0.023071,-0.074219,1.046631,-1.831055,-2.014160,-11.047363
12015,0.029907,-0.088379,1.079468,-1.464844,-2.258301,-11.230469
12025,0.006104,-0.109985,0.900513,-1.342773,-2.868652,-12.817383
12034,0.035156,0.044922,1.052612,-1.342773,-3.051758,-13.854980
12044,0.036011,-0.064697,0.971802,-1.037598,-3.173828,-14.526367
12054,0.008545,-0.077148,0.888184,-0.488281,-2.624512,-14.892578
12064,0.037842,-0.012085,0.947510,0.061035,-2.441406,-15.380859
12074,0.029541,-0.113525,0.880615,0.366211,-1.770020,-13.183594
12085,0.035034,0.042480,1.003296,0.488281,-1.953125,-12.695313
12095,-0.043945,-0.104736,0.914429,1.220703,-0.915527,-12.207031
12105,0.010254,-0.056152,0.951538,0.915527,-1.464844,-12.084961
12114,0.013062,-0.036865,1.046631,0.915527,-1.037598,-12.573242
12124,-0.054687,-0.081055,1.002563,0.854492,-0.915527,-13.671875
12133,-0.042847,0.017944,1.087280,1.159668,-0.793457,-14.770508
12146,-0.023926,-0.095947,0.982544,2.197266,0.183105,-16.174316
12156,0.020020,-0.066650,0.999023,2.502441,0.183105,-16.296387
12165,0.001465,-0.158325,0.867676,2.624512,0.976562,-14.770508
12174,-0.018433,-0.089111,0.915527,1.831055,1.708984,-12.084961
12184,0.001831,0.083130,1.150146,1.281738,2.807617,-8.605957
12193,-0.101807,0.042358,1.231689,1.953125,3.906250,-6.164551
12204,-0.128296,-0.101318,1.136475,2.990723,4.699707,-4.943848
12213,-0.110962,-0.152222,1.019531,3.173828,5.065918,-4.150391
12225,-0.115479,-0.180542,0.837280,2.685547,4.699707,-2.197266
12234,-0.140747,-0.293457,0.645386,-0.366211,5.554199,0.610352
12244,-0.117798,-0.080200,0.871948,-2.380371,7.324219,4.699707
12254,-0.128296,0.085449,1.064331,-3.479004,8.911133,9.094238
12264,-0.214844,0.053101,1.053833,-3.662109,9.094238,10.681152
12273,-0.154663,-0.045898,1.045410,-3.417969,9.887695,11.230469
12285,-0.111206,-0.115356,0.881714,-3.295898,8.422852,8.178711
12295,-0.065430,-0.096924,0.886597,-3.601074,8.117676,8.544922
12304,-0.077881,-0.062622,0.810059,-3.906250,8.300781,8.422852
12314,-0.007568,-0.088623,0.799683,-4.333496,8.972168,10.192871
12323,0.028198,-0.069946,0.781738,-5.126953,8.728027,12.207031
12334,-0.025024,-0.051758,0.844238,-5.920410,8.361816,13.610840
12344,-0.033325,0.009033,0.987061,-6.286621,8.422852,15.380859
12356,-0.090820,-0.031494,1.145996,-4.943848,7.812500,15.075684
12366,-0.097900,-0.034180,1.078247,-3.906250,7.568359,13.244629
12375,-0.017700,0.040405,1.157715,-2.929688,6.958008,10.498047
12384,-0.026489,-0.231445,1.006226,-1.953125,5.920410,7.873535
12394,0.017700,-0.201172,0.927246,-1.831055,5.249023,6.164551
12404,0.062012,-0.124756,0.977783,-1.892090,5.126953,5.615234
12414,0.076904,-0.141113,0.920654,-2.380371,4.943848,5.615234
12426,0.021362,-0.094116,1.033691,-3.173828,4.455566,7.446289
12436,-0.015869,-0.101074,1.111206,-3.051758,4.699707,7.995605
12445,-0.007324,-0.033691,1.204712,-2.807617,4.394531,7.507324
12454,-0.039917,-0.132690,1.116211,-2.563477,3.356934,5.615234
12464,-0.028076,-0.056885,1.022339,-2.380371,3.540039,3.967285
12474,-0.000122,-0.086304,1.023926,-2.807617,2.624512,2.563477
12484,-0.018555,-0.103027,0.910889,-3.051758,2.258301,1.708984
12494,-0.043701,-0.034790,1.025146,-4.089355,3.051758,2.685547
12503,-0.008911,-0.083252,0.988281,-4.577637,2.990723,3.356934
12514,0.010986,-0.005859,1.059692,-4.638672,2.990723,3.479004
12524,0.009277,-0.053955,0.964600,-4.638672,2.197266,3.112793
12534,0.030396,-0.019409,0.983521,-4.516602,1.953125,2.502441
12544,0.030151,-0.028931,0.941040,-4.455566,1.831055,2.136230
12554,0.025635,0.091309,0.991699,-4.394531,1.892090,2.441406
12564,0.023315,0.023926,0.994507,-3.479004,1.953125,2.746582
12575,0.021851,-0.010498,0.928345,-1.953125,1.892090,2.502441
12585,0.012085,-0.140747,0.887573,-1.342773,1.220703,1.831055
12594,-0.014893,-0.100098,0.869507,-1.464844,1.342773,2.258301
12604,-0.075684,-0.062744,0.893433,-1.220703,1.647949,1.953125
12613,-0.103882,0.047363,0.952026,-1.281738,1.892090,2.075195
12624,-0.086792,-0.018677,1.025757,-0.427246,2.624512,2.075195
12636,-0.014648,-0.155029,0.939575,1.342773,2.502441,-0.244141
12646,0.045288,-0.190674,0.980591,1.464844,1.831055,-1.403809
12655,0.054810,-0.082764,1.015869,1.464844,1.892090,-1.831055
12665,0.096558,-0.109009,1.084106,2.258301,1.831055,-1.831055
12674,0.087646,-0.328613,0.986206,2.807617,1.770020,-1.037598
12684,0.092773,-0.226562,1.003662,2.319336,1.098633,-0.793457
12694,0.100342,-0.139160,1.061646,1.525879,1.159668,-0.549316
12704,0.049683,-0.102905,1.090088,1.037598,1.342773,1.342773
12715,-0.048096,-0.195923,0.953247,0.915527,0.732422,1.708984
12725,-0.024780,-0.192017,0.927490,0.427246,1.220703,2.319336
12734,0.029175,-0.143433,0.954834,-0.427246,1.708984,3.967285
12744,-0.032837,-0.088745,0.960205,-1.342773,1.647949,5.981445
12754,-0.059814,0.015991,1.024048,-2.014160,1.892090,8.300781
12764,-0.120972,-0.083252,0.938232,-2.441406,2.807617,10.620117
12773,-0.094971,-0.044800,0.976196,-3.112793,3.417969,12.207031
12785,-0.105469,-0.005859,1.003296,-4.150391,3.112793,13.427734
12795,-0.107300,0.022339,1.046753,-4.211426,3.234863,13.366699
12804,-0.080444,-0.018921,0.937378,-3.662109,3.173828,13.000488
12814,-0.052490,0.061035,0.977417,-3.112793,2.807617,11.840820
12824,-0.007935,-0.087769,0.901123,-2.929688,2.929688,12.023926
12834,0.013428,-0.061157,0.902344,-3.540039,2.624512,12.084961
12844,-0.033081,0.134766,1.116089,-3.845215,2.380371,11.962891
12855,-0.058594,-0.036743,1.147095,-1.281738,2.990723,10.253906
12865,-0.003296,-0.092773,1.077026,0.061035,1.770020,7.080078
12874,-0.004761,-0.268311,0.939087,0.427246,0.488281,3.295898
12884,0.079712,-0.180664,0.931763,-0.122070,-0.122070,0.854492
12894,0.076050,-0.178711,0.969116,-0.915527,-0.122070,0.122070
12904,0.048096,-0.101196,0.927734,-1.037598,-0.244141,0.427246
12916,0.053101,-0.157471,0.909668,-1.098633,0.122070,1.586914
12926,0.087769,-0.066406,1.007446,-1.403809,-0.061035,1.708984
12935,0.019531,-0.101929,1.030151,-1.342773,-0.366211,1.647949
12945,0.032837,-0.044067,1.045898,-1.220703,-0.427246,1.708984
12954,-0.013794,0.018555,1.094360,-0.610352,-1.037598,0.671387
12964,-0.012695,-0.164551,0.953979,-0.244141,-1.525879,-0.549316
12973,0.039063,-0.125488,0.957275,-0.976562,-2.014160,-1.403809
12985,0.126343,-0.090088,1.028076,-2.075195,-1.892090,-0.061035
12995,0.050171,0.092651,1.266968,-1.953125,-2.075195,-0.061035
13004,0.088745,0.033081,1.224365,-0.610352,-1.892090,-0.366211
13014,0.104614,-0.105103,1.131714,0.976562,-1.953125,-2.075195
13024,0.160278,-0.147949,1.033936,1.159668,-2.868652,-4.028320
13034,0.086182,-0.171875,0.953003,0.976562,-4.089355,-5.554199
13044,0.035400,-0.097168,0.952271,0.976562,-4.394531,-5.737305
13054,0.018433,0.026733,1.042603,1.342773,-2.624512,-4.882812
13065,-0.021484,-0.026855,1.010498,2.258301,-2.624512,-5.065918
13075,-0.032349,-0.129272,0.946167,2.380371,-3.051758,-5.554199
13085,-0.002319,-0.083984,0.927490,2.563477,-2.624512,-5.737305
13094,-0.018677,-0.009155,1.042114,2.868652,-2.014160,-5.249023
13104,-0.028076,-0.120605,0.992310,3.540039,-2.014160,-5.065918
13114,-0.007568,-0.087646,1.064331,4.028320,-1.525879,-5.249023
13126,0.053467,-0.128296,0.997192,5.371094,-1.770020,-5.920410
13136,0.062134,-0.237671,0.902100,5.798340,-2.380371,-6.408691
13145,0.074585,-0.188721,0.893188,5.371094,-2.502441,-6.713867
13155,0.033569,-0.173462,0.859375,4.760742,-2.197266,-5.981445
13164,0.074585,-0.027466,1.020630,3.845215,-1.770020,-4.821777
13174,0.001831,-0.066650,0.985840,3.173828,-1.098633,-3.112793
13184,0.003784,-0.041382,1.049927,2.929688,-1.098633,-2.258301
13194,-0.015869,0.029907,1.047852,2.990723,-0.915527,-1.098633
13204,0.010254,-0.132690,0.929565,2.319336,-1.037598,-0.793457
13214,-0.002319,-0.050537,0.876099,1.647949,-0.854492,0.488281
13224,0.024414,0.005127,0.910767,0.610352,-0.122070,2.563477
13234,0.006348,-0.022095,0.954102,0.000000,0.183105,4.882812
13243,0.027466,-0.003906,0.970703,-0.244141,0.488281,6.774902
13254,0.026489,-0.039917,1.003540,-0.244141,0.610352,7.873535
13264,0.019165,-0.161987,0.948364,-0.427246,-0.183105,7.446289
13275,-0.323120,-0.264160,0.896240,-0.793457,0.854492,6.225586
13285,-0.022339,-0.127197,0.920654,-0.671387,2.929688,6.042480
13294,0.207764,-0.456909,0.982666,-0.183105,2.746582,4.943848
13304,0.185547,-0.292236,0.870728,-0.305176,-1.098633,2.929688
13314,-0.039917,-0.124634,1.027832,-0.976562,-2.929688,3.173828
13324,-0.099731,-0.040405,1.169434,-1.953125,-2.502441,3.906250
13334,-0.056885,0.083130,1.138184,-2.807617,-0.488281,2.868652
13345,-0.107300,-0.128784,0.882568,-2.563477,-0.305176,0.854492
13355,-0.044067,-0.186768,0.987061,-2.258301,0.549316,-0.305176
13365,-0.068359,-0.166626,0.929443,-2.807617,0.183105,-2.502441
13374,-0.094604,-0.105591,1.101196,-3.540039,0.061035,-3.967285
13384,-0.107422,-0.150879,1.070679,-4.150391,0.000000,-4.516602
13394,0.006104,0.040161,1.112671,-4.089355,1.647949,-3.662109
13406,-0.006714,-0.180420,0.990845,-2.380371,0.915527,-1.831055
13416,0.018311,-0.152710,1.007568,-2.807617,0.183105,-0.915527
13425,0.057007,-0.187012,1.035889,-3.784180,1.037598,0.000000
13435,-0.035034,0.001099,0.942261,-5.371094,1.770020,1.586914
13444,-0.095825,0.107422,1.128418,-5.615234,2.563477,2.685547
13454,-0.163208,-0.016357,1.176270,-4.455566,3.051758,2.624512
13463,-0.105957,-0.088379,1.136353,-3.173828,3.723145,1.586914
13476,-0.055542,-0.162598,0.886353,-2.929688,2.441406,-0.915527
13486,-0.097046,-0.160034,0.761108,-3.723145,2.807617,0.305176
13496,-0.052734,-0.109619,0.720947,-4.455566,3.234863,2.746582
13506,-0.067749,-0.069092,0.771240,-5.004883,4.089355,6.103516
13515,-0.044189,-0.064453,0.853027,-5.310059,5.004883,9.765625
13525,-0.052368,-0.072266,0.900513,-5.676270,5.920410,12.756348
13534,-0.034546,0.015137,0.861328,-5.920410,6.225586,14.770508
13544,-0.034546,0.000977,0.913818,-5.981445,6.652832,16.601562
13555,-0.064575,-0.004150,1.039917,-5.065918,5.493164,15.075684
13565,-0.069824,-0.045410,1.041748,-4.455566,5.554199,13.793945
13574,-0.021484,-0.002075,1.070923,-4.150391,5.126953,11.657715
13584,-0.011597,-0.043945,1.048340,-3.540039,4.211426,9.521484
13593,0.000610,-0.146240,0.923706,-2.990723,3.540039,7.812500
13604,0.079346,-0.052002,1.007690,-2.563477,3.540039,6.408691
13616,0.044800,-0.050049,1.119019,-1.464844,2.990723,4.943848
13626,0.046387,-0.104004,1.077637,-0.976562,2.807617,4.699707
13635,0.086548,-0.233154,0.977051,-0.671387,2.685547,4.638672
13645,0.059326,-0.162842,0.939575,-0.488281,2.319336,4.394531
13654,0.007568,-0.172485,0.827759,-1.220703,1.770020,4.821777
13664,-0.013062,-0.083618,0.914307,-2.197266,1.647949,5.859375
13674,-0.033081,-0.131226,0.953003,-2.685547,2.563477,7.385254
13684,-0.066772,-0.058228,0.929932,-3.295898,2.868652,8.972168
13695,-0.043457,-0.018921,0.940430,-3.662109,2.929688,8.911133
13705,-0.051880,-0.022095,0.932251,-3.967285,2.807617,8.422852
13715,-0.024292,-0.012939,0.971191,-4.333496,2.685547,7.568359
13724,-0.007813,0.054199,1.067261,-4.882812,2.319336,6.469727
13734,0.030396,-0.119141,1.003540,-4.760742,1.953125,5.310059
13744,0.082642,-0.142334,0.919556,-4.638672,1.098633,3.967285
13756,0.072388,0.050903,0.928711,-6.042480,0.671387,2.990723
13766,0.057251,-0.090088,0.996216,-5.981445,1.098633,3.967285
13775,0.091797,-0.061279,1.091431,-6.225586,0.976562,4.577637
13785,0.017578,-0.000610,1.129639,-6.408691,0.793457,4.821777
13795,0.037842,0.011963,1.107788,-6.286621,0.915527,4.394531
13804,0.042480,0.001465,1.080322,-5.249023,1.037598,3.906250
13814,0.054443,-0.140137,1.019409,-4.699707,0.305176,2.868652
13824,-0.015625,-0.053467,1.071777,-4.394531,0.000000,2.502441
13835,0.036011,0.014648,1.079346,-3.540039,0.671387,3.295898
13844,0.020386,-0.139282,0.983398,-2.441406,0.854492,4.089355
13854,-0.049072,-0.134521,0.862549,-2.014160,0.610352,4.577637
13864,-0.021851,-0.125977,0.927612,-1.464844,0.671387,5.126953
13874,-0.007324,-0.183105,0.913940,-1.159668,1.159668,5.615234
13883,-0.068604,-0.043091,0.980469,-1.464844,1.281738,6.164551
13896,-0.088989,-0.104614,1.012817,-0.976562,1.892090,5.676270
13906,0.001221,-0.098511,1.056763,-0.854492,1.770020,4.638672
13915,-0.007690,-0.192383,0.923828,-0.732422,1.586914,3.540039
13925,0.015747,-0.078491,1.029785,-0.854492,0.549316,2.075195
13935,0.005615,-0.044434,1.010864,-1.159668,0.732422,1.037598
13944,0.088135,-0.061890,1.054810,-0.976562,1.098633,0.488281
13954,0.115967,-0.079102,1.189819,-0.305176,1.098633,-0.061035
13966,0.089233,-0.072632,1.019653,-0.061035,0.061035,-1.464844
13976,0.081909,-0.086548,1.032715,-0.122070,-0.366211,-0.976562
13985,0.025269,-0.136597,1.001709,-0.183105,0.061035,-0.061035
13995,-0.014771,-0.046021,1.052368,-0.366211,0.549316,1.770020
14004,-0.044067,-0.099365,0.951904,-0.122070,1.159668,4.089355
14014,-0.060059,-0.068848,1.024536,0.427246,2.197266,6.103516
14024,-0.090820,-0.109253,0.988159,0.244141,2.502441,8.361816
14034,-0.126343,-0.049927,0.910889,0.183105,3.479004,12.695313
14045,-0.091187,-0.209595,0.842529,0.366211,4.150391,14.099121
14055,-0.022827,-0.167969,0.878662,-0.305176,3.906250,15.380859
14064,-0.085571,-0.083740,0.795654,-0.732422,3.662109,16.296387
14074,-0.014160,0.003662,0.918945,-1.037598,3.906250,17.150879
14085,0.025391,0.010254,1.055908,-0.854492,4.211426,18.127441
14094,0.025024,-0.144043,1.036133,-0.183105,4.211426,18.493652
14106,0.013672,-0.140015,0.942139,0.305176,2.807617,15.930176
14116,0.114258,-0.115234,0.968628,0.244141,2.197266,14.404297
14125,0.066772,-0.163208,0.937622,0.000000,1.098633,13.305664
14134,0.059204,-0.182373,0.774414,-0.854492,0.244141,12.573242
14144,-0.004150,-0.099731,0.940063,-1.770020,0.061035,12.512207
14154,0.053955,-0.084961,1.095215,-2.075195,0.549316,13.061523
14164,0.009399,0.010986,1.236084,-1.586914,1.159668,13.732910
14176,0.018188,-0.001343,1.320068,1.098633,0.366211,11.291504
14186,0.022949,-0.264282,1.070068,2.624512,-0.610352,8.666992
14195,0.109863,-0.516724,0.761841,2.868652,-1.403809,6.652832
14204,0.056519,-0.382813,0.681152,0.549316,-2.868652,6.103516
14214,0.102173,0.024414,0.958252,-2.197266,-2.319336,7.629395
14224,0.021606,0.103760,1.188721,-2.929688,-1.220703,11.047363
14234,0.002319,0.021240,1.160156,-1.892090,-0.732422,12.634277
14244,0.026733,-0.129028,1.008911,-1.159668,-0.976562,10.559082
14255,0.103027,-0.073242,0.842896,-2.807617,-3.601074,8.483887
14265,0.080078,-0.028687,0.966797,-3.845215,-4.394531,7.690430
14274,0.041870,0.159424,1.073364,-4.272461,-4.577637,7.263184
14284,0.042969,0.129028,1.232300,-3.723145,-4.577637,6.042480
14293,0.055420,-0.047119,1.132202,-2.563477,-5.126953,3.601074
14304,0.122192,-0.003418,1.088379,-2.014160,-5.493164,-0.122070
14314,0.092529,-0.056885,1.009033,-1.586914,-6.469727,-5.126953
14324,0.083374,0.002319,1.152588,-0.366211,-6.896973,-6.835937
14334,0.030762,-0.105103,1.089722,0.549316,-7.446289,-8.544922
14344,-0.036865,-0.115845,1.038208,1.098633,-8.056641,-10.192871
14354,0.015869,-0.127930,0.886841,1.525879,-8.239746,-11.413574
14364,-0.045654,-0.130371,0.888184,1.281738,-7.507324,-11.352539
14374,0.032959,-0.139404,0.861572,1.159668,-6.164551,-9.521484
14384,-0.005615,-0.012207,0.830322,1.220703,-3.417969,-6.103516
14395,0.032104,-0.455566,0.760986,2.441406,-3.234863,-5.126953
14405,0.097290,-0.266724,0.662476,0.427246,-3.295898,-3.051758
14414,0.024780,0.025513,0.857788,-1.586914,-3.417969,-1.220703
14424,-0.131958,0.054932,1.030884,-1.770020,-2.807617,1.098633
14433,-0.102417,-0.168457,0.974731,-1.953125,-1.098633,4.150391
14444,-0.074463,-0.038086,0.959961,-1.647949,-0.305176,5.065918
14454,-0.056885,-0.161011,0.933716,-0.915527,-0.915527,4.333496
14464,-0.078125,-0.105469,0.894043,-1.770020,-0.244141,5.187988
14474,-0.052246,-0.208130,0.892456,-2.380371,0.366211,6.469727
14484,-0.088135,0.000366,1.066650,-3.295898,0.610352,8.117676
14494,-0.095215,0.036621,1.195313,-3.845215,1.159668,9.521484
14504,-0.081787,-0.167969,1.191406,-3.234863,2.136230,10.375977
14514,0.073120,-0.106812,1.154419,-3.112793,2.197266,10.803223
14526,0.004272,-0.119629,0.924561,-2.868652,0.183105,11.291504
14536,0.002075,-0.143921,1.037109,-2.624512,1.037598,13.977051
14545,0.011841,-0.128662,1.047241,-2.990723,1.403809,16.723633
14555,-0.034180,-0.041748,1.134644,-2.929688,1.892090,18.920898
14564,-0.055298,-0.059204,1.102661,-2.441406,2.197266,20.690918
14574,-0.073975,-0.156494,0.989990,-1.708984,2.197266,21.179199
14584,-0.016846,-0.041626,0.960083,-2.136230,1.281738,20.874023
14594,-0.091797,-0.172607,0.950684,-2.075195,0.122070,18.676758
14604,-0.156860,-0.048096,1.172363,-1.464844,0.244141,17.333984
14614,0.027954,-0.216797,1.027344,-0.915527,0.366211,15.380859
14624,0.050171,-0.130249,0.955322,-0.976562,-1.159668,12.939453
14634,0.037964,0.025391,1.092773,-1.647949,-2.563477,11.169434
14644,0.046509,-0.035522,1.069824,-2.563477,-2.624512,10.253906
14654,0.129150,-0.010254,1.093872,-2.624512,-2.197266,8.972168
14664,0.146484,-0.114136,1.062988,-2.136230,-4.455566,5.981445
14674,0.111816,-0.254150,0.876221,-3.540039,-5.126953,5.126953
14684,0.101563,-0.013794,0.931885,-4.760742,-5.798340,5.371094
14694,0.028076,0.196045,1.123047,-4.516602,-5.554199,6.164551
14704,-0.036377,-0.073364,1.040649,-2.929688,-5.859375,6.408691
14714,-0.033447,-0.151245,0.942139,-1.708984,-5.798340,5.310059
14724,0.036621,-0.124268,0.837280,-1.708984,-5.737305,4.150391
14736,-0.023682,0.143066,1.024292,-2.685547,-6.591797,2.746582
14745,-0.067993,0.043945,0.956055,-1.525879,-6.652832,2.380371
14755,-0.014771,-0.120361,0.985718,-0.488281,-6.103516,1.770020
14764,0.071289,-0.157227,0.878418,-0.061035,-6.042480,-0.244141
14774,0.094727,-0.139160,0.873779,-0.732422,-6.896973,-1.953125
14784,0.125854,-0.031250,0.928955,-0.854492,-7.629395,-3.601074
14794,0.109253,-0.077637,0.902588,-0.366211,-7.690430,-4.882812
14804,0.113159,-0.134521,0.945679,-0.122070,-8.300781,-7.446289
14816,0.093018,-0.150269,0.923096,-1.281738,-9.277344,-8.361816
14825,0.094116,-0.035767,1.019165,-1.892090,-8.483887,-8.850098
14835,0.097778,-0.010010,1.048706,-2.014160,-8.605957,-9.338379
14845,0.048218,0.033569,1.134521,-1.037598,-9.033203,-9.826660
14854,-0.006226,-0.122192,1.007935,-0.244141,-9.155273,-10.375977
14864,-0.028931,-0.241455,0.968994,-0.366211,-8.789063,-10.925293
14874,0.053467,-0.077637,1.026978,-2.075195,-7.812500,-9.887695
14886,0.030762,-0.075562,0.926025,-2.624512,-7.629395,-8.544922
14895,0.044312,-0.185669,0.897827,-3.234863,-6.958008,-6.896973
14905,0.057373,-0.138672,0.952515,-4.150391,-6.713867,-5.126953
14915,0.087158,-0.014771,1.074951,-5.126953,-6.225586,-2.929688
14924,0.002319,0.007935,1.147827,-5.249023,-6.225586,-1.464844
14934,-0.020630,0.120605,1.245483,-4.577637,-6.469727,-1.586914
14944,-0.023560,0.011230,1.152954,-3.906250,-6.530762,-4.211426
14955,0.036987,-0.094116,1.025635,-3.601074,-7.507324,-5.493164
14965,0.067871,-0.151245,0.928589,-4.089355,-7.507324,-6.408691
14975,0.080200,0.040649,0.983643,-5.126953,-7.080078,-6.652832
14984,0.076294,0.094238,1.162109,-5.187988,-7.202148,-6.896973
14994,0.026855,0.019653,1.060181,-4.028320,-7.324219,-7.812500
15004,0.033569,-0.037231,1.036133,-2.624512,-7.568359,-9.399414
15016,0.059570,-0.149170,0.839233,-1.892090,-7.690430,-11.352539
15030,0.053467,-0.083130,0.807495,-2.929688,-8.300781,-13.916016
15040,0.012939,0.041504,0.971802,-3.234863,-6.958008,-14.831543
15048,0.019043,-0.047241,0.995972,-3.234863,-6.958008,-14.831543
15058,-0.000610,-0.102783,0.994385,-0.915527,-7.385254,-18.249512
15067,0.058228,-0.065063,0.993408,-0.671387,-7.873535,-21.179199
15077,0.114746,-0.223999,0.830566,-1.098633,-8.178711,-23.620605
15086,0.055176,-0.178101,0.784302,-1.770020,-8.117676,-25.146484
15096,0.069458,-0.156860,0.781860,-2.197266,-7.690430,-26.062012
15105,0.048462,-0.101196,0.869019,-2.868652,-7.202148,-25.817871
15115,0.039307,0.066284,1.033325,-2.990723,-6.103516,-25.512695
15124,-0.030029,0.077271,1.135132,-2.868652,-5.676270,-25.268555
15134,-0.096313,0.003662,1.067749,-1.892090,-5.004883,-25.634766
15144,-0.064331,0.003662,1.103149,-0.732422,-4.272461,-26.245117
15154,-0.077026,-0.156616,0.950928,-0.244141,-2.563477,-25.024414
15164,-0.050171,0.051636,1.058228,-0.915527,-1.525879,-22.460937
15174,-0.099243,-0.066284,1.031494,-0.854492,-0.305176,-18.615723
15184,-0.154419,-0.006714,1.059204,-0.549316,1.281738,-14.587402
15194,-0.098022,-0.059204,1.121338,-0.244141,3.234863,-10.620117
15204,-0.124878,-0.047729,1.075928,-0.061035,4.150391,-7.629395
15214,-0.150879,0.016113,1.105591,0.427246,4.577637,-5.676270
15224,-0.183594,-0.100830,1.020386,0.671387,5.126953,-0.732422
15235,-0.140137,-0.144165,0.989136,1.525879,7.690430,2.258301
15245,-0.130127,-0.196899,0.869141,0.854492,8.544922,4.882812
15254,-0.066162,0.134644,1.020874,-0.122070,9.155273,8.361816
15264,-0.094849,0.129395,1.090698,-0.061035,9.338379,12.451172
15274,-0.081909,-0.007690,0.957886,0.488281,10.009766,16.967773
15284,-0.086304,-0.124146,1.003296,0.671387,10.803223,21.179199
15296,-0.138184,-0.086304,1.007202,-1.464844,10.253906,24.536133
15306,-0.190063,0.002563,0.963867,-2.319336,9.887695,24.230957
15315,-0.133423,0.089233,1.108276,-1.770020,10.070801,23.681641
15325,-0.054443,-0.031738,1.075439,-0.732422,9.277344,22.644043
15334,0.000732,-0.181641,0.972900,-0.610352,8.300781,21.545410
15345,0.006470,-0.021606,1.045532,-1.037598,7.141113,20.324707
15354,0.068604,-0.071289,0.968140,-1.159668,6.774902,20.019531
15366,0.042847,-0.128784,0.896729,-0.732422,6.164551,20.751953
15375,0.060669,-0.282959,0.848877,-0.427246,4.455566,20.629883
15385,0.044312,-0.082031,0.937622,-1.770020,4.089355,20.751953
15394,0.040894,-0.003662,1.002808,-2.624512,3.051758,20.019531
15404,-0.040649,0.063110,1.064331,-2.136230,1.892090,19.348145
15414,-0.064941,-0.048706,0.945190,-0.732422,0.915527,17.517090
15424,-0.035767,-0.117920,0.952515,0.305176,0.854492,16.296387
15436,0.004272,-0.139648,0.938477,-0.732422,-0.793457,11.779785
15446,0.012695,-0.021729,1.047974,-0.854492,-1.708984,10.681152
15456,0.058716,-0.033691,1.055054,-0.061035,-1.892090,8.117676
15465,0.084839,-0.044189,1.035156,0.732422,-2.502441,7.080078
15474,0.126709,-0.227661,0.960205,0.854492,-2.807617,5.126953
15484,0.085815,-0.212524,0.876099,-0.122070,-4.333496,3.601074
15494,0.146240,-0.082031,1.083374,-1.525879,-4.760742,2.990723
15504,0.039795,-0.052856,1.029297,-1.892090,-5.310059,0.000000
15515,-0.084961,-0.236938,1.039673,-0.366211,-4.516602,-3.417969
15525,0.094849,-0.346191,1.040649,-1.159668,-5.310059,-8.850098
15534,0.095459,-0.099365,1.206543,-2.258301,-7.812500,-16.052246
15545,0.090942,-0.054077,1.164063,-1.953125,-10.131836,-22.827148
15554,0.136719,0.004883,1.119263,-0.793457,-10.864258,-28.137207
15564,0.267578,-0.145386,0.956421,-0.244141,-9.582520,-28.686523
15576,0.171875,-0.050903,0.947021,-2.685547,-9.094238,-25.329590
15586,0.099365,-0.077393,0.904297,-3.356934,-8.117676,-23.010254
15596,0.033813,0.113403,1.102051,-3.479004,-7.202148,-21.545410
15605,-0.002563,0.110840,1.174316,-3.051758,-7.385254,-21.057129
15614,-0.162842,0.067871,1.073364,-2.258301,-7.446289,-21.911621
15624,-0.175293,-0.087280,0.916748,-1.586914,-6.530762,-22.460937
15636,-0.137451,-0.191895,0.748535,-2.746582,-4.211426,-21.606445
15645,-0.051514,0.003784,0.800415,-3.906250,-3.906250,-20.446777
15655,-0.042969,0.117065,1.043457,-4.455566,-2.807617,-16.845703
15664,-0.014038,0.092407,1.107666,-3.967285,-0.610352,-13.671875
15674,-0.043701,-0.018433,1.072876,-2.746582,0.976562,-10.192871
15685,-0.059692,-0.204712,0.879517,-2.197266,1.037598,-9.887695
15694,-0.106445,-0.171021,0.859253,-2.624512,0.488281,-10.375977
15704,-0.074097,-0.105103,0.898193,-2.746582,0.549316,-11.474609
15716,-0.064697,0.101685,1.152954,-1.342773,1.342773,-12.451172
15726,-0.099487,-0.146729,1.019653,-0.244141,1.892090,-11.413574
15735,-0.045532,-0.084961,1.038208,0.183105,3.295898,-10.314941
15744,-0.046143,-0.037109,1.075806,0.183105,3.845215,-9.277344
15754,-0.073853,-0.153198,0.979614,0.671387,3.662109,-9.216309
15764,-0.080200,-0.073242,1.067505,1.159668,4.455566,-9.399414
15774,-0.057861,-0.134155,1.135254,1.525879,4.638672,-9.887695
15786,-0.055786,-0.036377,1.165283,2.136230,5.004883,-9.704590
15796,-0.027954,-0.035156,1.113403,2.807617,6.774902,-9.338379
15806,-0.016724,-0.064941,1.148193,3.417969,7.141113,-8.666992
15815,-0.025391,-0.117676,1.138550,3.967285,7.385254,-7.690430
15825,0.010132,-0.084229,1.188354,4.333496,7.324219,-7.568359
15834,-0.047607,0.013184,1.243408,4.150391,7.690430,-6.469727
15846,-0.029785,-0.011108,1.161621,5.493164,8.300781,-5.126953
15855,-0.083618,-0.168213,0.825073,6.103516,8.239746,-3.662109
15864,-0.083618,-0.168213,0.825073,5.859375,8.605957,-1.220703
15874,-0.016357,-0.434082,0.474854,3.173828,9.704590,3.356934
15883,-0.056396,-0.178589,0.521240,-0.122070,10.803223,10.009766
15894,-0.170654,0.205811,0.837036,-2.624512,11.596680,17.456055
15903,-0.247070,0.182739,0.951660,-3.479004,13.427734,24.230957
15914,-0.258789,0.063477,0.969360,-2.685547,15.625000,29.235840
15925,-0.264526,-0.092651,0.882812,-1.892090,16.174316,30.090332
15935,-0.148926,-0.048218,0.960205,-2.197266,13.671875,27.648926
15945,-0.055176,0.005127,0.962158,-2.380371,13.305664,26.306152
15954,0.011719,0.196045,1.076660,-2.136230,12.634277,25.695801
15964,0.094971,0.114502,1.239258,-0.610352,11.901855,25.207520
15973,0.103760,-0.135010,1.103638,0.671387,11.657715,25.146484
15984,0.177490,-0.075439,1.093140,1.403809,11.169434,24.291992
15996,0.115967,-0.154053,0.908325,1.159668,7.751465,21.179199
16005,0.039551,-0.100342,0.956787,1.159668,6.042480,19.653320
16015,-0.023315,-0.127930,0.998047,1.159668,4.821777,18.188477
16024,-0.065674,-0.050903,1.001709,1.525879,4.394531,17.211914
16034,-0.089355,-0.153442,0.971191,1.586914,4.150391,16.052246
16044,-0.078857,-0.098267,0.936401,0.610352,3.662109,15.075684
16054,-0.022217,-0.061157,0.974854,-0.671387,3.967285,14.953613
16066,-0.019531,-0.017944,1.085327,-1.586914,3.112793,13.610840
16076,0.036133,-0.062500,1.161499,-0.976562,2.197266,11.718750
16085,0.022339,-0.104736,1.050781,-1.220703,1.770020,9.643555
16095,0.096191,0.062622,1.176025,-2.319336,1.281738,7.568359
16104,0.101318,-0.017090,1.061401,-2.807617,0.488281,6.103516
16114,0.108887,0.125977,1.032349,-3.173828,0.366211,5.371094
16124,0.102173,-0.007324,0.999146,-3.112793,0.305176,5.249023
16136,0.021851,0.042847,1.005737,-3.417969,-0.671387,5.737305
16145,-0.015747,0.000000,1.034180,-4.699707,-0.366211,7.019043
16155,-0.036255,0.030273,1.038940,-6.103516,0.122070,8.117676
16164,-0.070679,0.140015,1.020874,-7.202148,0.183105,8.483887
16174,-0.081909,0.202148,1.045288,-6.958008,0.366211,7.690430
16184,-0.093750,0.124390,1.091797,-5.798340,0.061035,6.408691
16194,-0.061768,0.070068,1.066650,-4.882812,-0.549316,4.455566
16204,-0.036865,0.081665,1.058105,-4.333496,-0.732422,1.098633
16215,0.025635,0.024536,0.958984,-1.831055,-1.159668,-0.183105
16224,0.015625,0.098145,0.883179,-0.549316,-0.915527,-1.037598
16234,0.004150,-0.106812,0.825806,0.488281,-0.915527,-1.037598
16244,0.026611,0.006348,0.939087,1.037598,-1.037598,-0.976562
16254,-0.011230,-0.094482,0.903076,1.159668,-0.549316,-0.488281
16264,-0.052979,0.023437,0.985840,0.976562,0.183105,0.366211
16276,-0.082153,-0.072144,1.031616,2.136230,0.976562,0.183105
16286,-0.033813,-0.035278,1.077759,2.258301,0.915527,-1.037598
16295,-0.012573,-0.052246,1.031250,2.258301,0.854492,-1.892090
16305,0.026978,-0.087646,0.954956,2.075195,0.854492,-2.746582
16314,0.056519,-0.098633,0.953491,2.380371,0.732422,-2.685547
16324,0.073120,-0.072510,0.960205,2.014160,0.915527,-1.220703
16334,0.059814,-0.058594,0.992310,1.037598,1.159668,1.281738
16346,0.005615,-0.071045,0.908203,1.159668,2.319336,6.408691
16356,0.002563,-0.148560,0.751221,1.037598,2.563477,9.033203
16365,0.039063,-0.162109,0.793457,-0.427246,2.075195,12.390137
16374,-0.064087,0.003784,0.868408,-1.953125,1.831055,16.052246
16384,-0.176025,-0.015137,0.864136,-2.563477,2.502441,19.775391
16394,-0.200195,0.189087,1.065796,-3.295898,3.234863,22.827148
16404,-0.158325,0.091187,1.112427,-3.417969,5.126953,25.573730
16416,-0.028564,-0.089355,0.928345,-1.647949,4.943848,25.573730
16425,-0.050049,-0.125610,0.791138,-2.014160,3.479004,24.902344
16435,0.017334,-0.019897,0.922852,-2.685547,2.624512,24.536133
16444,0.022095,0.004272,1.047485,-3.173828,2.380371,24.963379
16454,-0.047607,-0.035278,1.024048,-3.356934,2.746582,26.611328
16463,-0.045288,0.042725,1.006958,-3.601074,3.173828,27.709961
16474,-0.022705,0.018799,1.031006,-3.234863,3.295898,28.259277
16486,-0.050781,-0.051025,1.044189,-2.197266,1.770020,25.634766
16495,-0.025757,-0.035645,1.079834,-1.953125,0.366211,23.315430
16505,-0.006836,-0.074219,1.091431,-2.319336,-0.976562,20.324707
16514,-0.001587,-0.067871,1.057861,-2.136230,-1.770020,17.089844
16524,0.029663,-0.065063,0.999878,-2.197266,-2.197266,14.221191
16534,0.124023,-0.051147,1.007935,-2.441406,-2.563477,11.474609
16544,0.132568,-0.032837,0.994263,-2.502441,-3.479004,8.850098
16553,0.143311,-0.000610,1.013916,-2.441406,-4.760742,6.164551
16565,0.096802,-0.035156,1.011475,-2.502441,-6.225586,1.770020
16574,0.092651,-0.007568,1.071777,-2.990723,-6.713867,0.122070
16583,0.121948,0.050537,1.054810,-2.929688,-6.896973,-1.647949
16594,0.141235,-0.004150,1.071533,-3.173828,-7.385254,-3.051758
16603,0.171753,0.021606,1.054810,-2.990723,-7.873535,-5.004883
16614,0.144897,-0.005615,0.984619,-2.746582,-8.300781,-6.774902
16626,0.176392,0.004517,1.036255,-3.417969,-9.460449,-9.033203
16635,0.134033,0.038940,1.015747,-3.784180,-10.009766,-10.009766
16645,0.099854,0.026611,0.959717,-4.089355,-10.498047,-11.413574
16654,0.116333,-0.016235,0.986450,-4.516602,-10.986328,-12.573242
16663,0.120728,0.086914,0.973877,-5.065918,-10.925293,-13.854980
16674,0.097168,0.073608,0.970093,-5.126953,-11.169434,-15.441895
16683,0.070801,0.041016,0.947998,-5.249023,-11.596680,-17.089844
16696,0.077271,0.083008,1.011963,-5.676270,-11.840820,-20.996094
16705,0.049805,0.122925,0.996216,-5.920410,-11.718750,-22.827148
16714,0.061035,0.109131,1.096680,-5.310059,-11.413574,-25.207520
16724,0.052490,0.099487,1.010010,-4.333496,-11.413574,-28.076172
16733,0.092407,0.014404,0.990234,-3.417969,-11.779785,-31.066895
16744,0.118774,0.132935,0.912476,-3.112793,-12.512207,-33.203125
16753,0.107544,0.123901,1.007813,-2.197266,-12.390137,-34.667969
16766,0.040405,-0.063477,0.908203,-0.122070,-10.620117,-35.583496
16776,0.077148,-0.102051,0.894043,0.061035,-9.399414,-35.034180
16785,0.077759,-0.052856,1.030396,-0.122070,-8.850098,-35.034180
16795,0.033081,-0.019531,1.026367,-0.793457,-8.850098,-34.606934
16804,0.052124,0.046265,1.041748,-0.915527,-7.568359,-34.057617
16814,0.047729,0.079468,1.123169,-0.183105,-7.202148,-34.484863
16824,0.036255,0.115479,1.129028,1.037598,-7.080078,-35.644531
16833,0.051880,0.092041,1.033325,2.319336,-7.080078,-36.315918
16844,0.082397,0.018799,1.044434,2.807617,-5.981445,-34.851074
16854,0.069946,0.097046,1.111450,2.075195,-4.638672,-32.470703
16864,0.005127,-0.011963,0.985962,2.075195,-3.784180,-29.846191
16873,-0.011230,-0.025635,0.957642,2.075195,-2.502441,-27.038574
16884,-0.031616,-0.040771,0.905640,1.953125,-1.770020,-25.024414
16893,-0.057007,-0.045776,0.954224,1.525879,-1.098633,-23.193359
16905,-0.066650,0.101196,0.997803,0.915527,0.183105,-19.409180
16914,-0.114502,0.058594,0.900391,0.549316,1.770020,-16.906738
16924,-0.101563,0.029175,0.867920,-0.122070,2.746582,-14.038086
16933,-0.095703,0.069092,0.905518,-0.854492,3.967285,-10.864258
16944,-0.077271,0.084961,0.958740,-1.586914,5.432129,-8.178711
16953,-0.110840,0.142578,0.965088,-1.831055,6.225586,-6.530762
16963,-0.118408,0.103149,0.951904,-1.586914,7.019043,-5.187988
16976,-0.057007,0.080444,1.008301,-1.098633,7.812500,-2.685547
16985,-0.053589,0.044189,1.015869,-1.525879,8.117676,-1.586914
16995,-0.052368,0.138184,1.056519,-1.708984,8.666992,-0.122070
17004,-0.063965,0.061279,0.998535,-1.464844,9.155273,1.953125
17013,-0.105835,-0.035767,0.896973,-1.525879,9.826660,3.967285
17024,-0.091553,0.162720,1.020874,-2.014160,10.986328,6.103516
17033,-0.100952,0.075317,1.007202,-2.014160,11.535645,7.995605
17045,-0.131470,-0.074097,0.931030,-1.647949,12.023926,10.253906
17054,-0.101318,0.085327,1.061523,-1.892090,12.023926,11.108398
17064,-0.073120,-0.031616,0.978271,-1.464844,12.329102,11.962891
17073,-0.039063,0.064087,1.070557,-1.525879,12.573242,13.244629
17083,-0.057129,0.169800,1.087036,-1.342773,12.756348,14.648438
17093,-0.082397,0.010254,1.024292,-1.342773,13.183594,16.052246
17103,-0.074951,0.005371,0.922241,-1.098633,13.854980,17.578125
17114,-0.028442,0.156372,0.999146,-1.342773,13.610840,19.470215
17124,-0.076538,0.004395,0.969849,-0.854492,13.305664,19.714355
17134,-0.088989,-0.002441,0.965454,-0.610352,13.061523,19.836426
17143,-0.082031,-0.053345,0.952759,-1.037598,13.244629,20.690918
17154,-0.028442,0.138428,1.097290,-1.647949,13.427734,21.911621
17164,-0.074951,0.044434,0.987793,-1.708984,13.732910,23.071289
17173,-0.082642,0.071411,0.984009,-1.831055,14.343262,24.230957
17185,-0.029541,0.068970,1.021729,-1.831055,14.343262,25.634766
17194,-0.014282,0.115723,1.070313,-2.014160,13.732910,25.756836
17203,-0.016602,0.077759,1.021606,-2.197266,13.610840,25.573730
17214,-0.029907,0.083862,0.983398,-2.380371,12.939453,25.756836
17223,-0.036011,0.134155,0.978271,-2.380371,12.695313,26.000977
17234,-0.030762,0.203979,1.055420,-2.502441,13.244629,26.855469
17243,-0.031128,0.083740,1.030273,-1.892090,12.939453,27.282715
17254,-0.028687,0.091553,1.051025,-2.624512,13.183594,28.808594
17264,-0.029785,0.175049,1.003662,-3.356934,13.305664,29.479980
17273,-0.021973,0.152588,0.993896,-2.990723,13.427734,30.151367
17284,-0.044312,0.117188,1.004395,-2.990723,13.427734,30.700684
17293,-0.066040,0.068115,1.034058,-3.295898,13.061523,31.066895
17304,-0.075928,0.101563,1.053345,-3.356934,12.939453,31.188965
17313,-0.052979,0.155762,1.078369,-3.540039,13.305664,31.372070
17324,-0.049194,0.154785,1.054932,-3.662109,13.122559,32.165527
17334,-0.062134,0.155029,1.086792,-3.295898,13.244629,32.165527
17344,-0.063354,0.154175,1.135620,-2.807617,12.878418,31.433105
17354,-0.037354,0.035400,1.094482,-2.502441,12.878418,30.822754
17363,0.014404,0.154541,1.078369,-2.502441,12.634277,29.907227
17373,0.013306,0.194824,1.063477,-2.197266,12.207031,29.174805
17384,0.006592,0.094360,1.001709,-1.403809,12.023926,28.686523
17393,-0.005737,0.078613,1.005737,-0.366211,12.023926,28.686523
17404,-0.051880,0.087280,0.961426,-0.305176,11.535645,30.517578
17414,-0.028198,0.144287,0.981567,-0.427246,12.878418,32.653809
17423,-0.040894,0.029053,0.919800,0.488281,13.793945,35.339355
17433,-0.053467,0.023804,0.918701,1.098633,13.793945,37.658691
17443,-0.072876,-0.080200,0.930542,1.464844,14.404297,40.893555
17453,-0.092407,0.029297,0.956299,1.159668,14.709473,44.128418
17463,-0.123169,0.101440,0.974487,1.098633,15.136719,47.607422
17475,-0.127808,-0.050415,0.968140,2.075195,17.700195,55.114746
17484,-0.140991,-0.121094,0.966309,2.258301,18.066406,58.349609
17494,-0.128906,-0.121582,1.014648,1.586914,18.432617,61.096191
17503,-0.159302,-0.054199,1.059937,0.732422,18.920898,63.354492
17513,-0.161011,0.039063,1.105347,0.305176,19.348145,65.002441
17523,-0.114014,0.025024,1.046631,0.610352,19.531250,65.734863
17533,-0.055176,-0.045532,1.013916,1.525879,19.897461,65.612793
17545,-0.054443,-0.005493,1.010498,1.281738,18.554687,66.406250
17554,0.002930,0.079956,1.008301,0.793457,18.798828,67.626953
17563,0.032471,0.111328,0.983643,1.037598,19.165039,69.213867
17573,0.089111,0.092407,0.965454,1.403809,19.042969,70.800781
17583,0.096802,0.053955,1.010864,1.770020,18.310547,71.716309
17593,0.056885,0.077515,1.038574,1.647949,17.333984,72.509766
17604,0.038330,0.157837,1.081421,1.770020,16.723633,73.120117
17614,0.069580,0.012695,1.002686,2.014160,16.174316,72.204590
17624,0.009399,0.020142,0.994629,2.075195,15.502930,71.411133
17633,-0.002686,-0.015503,0.976685,1.953125,14.953613,70.068359
17643,0.005371,0.007080,1.038452,2.014160,14.648438,68.664551
17653,0.040527,-0.015259,0.991699,2.197266,14.038086,67.077637
17663,0.033813,-0.007080,0.993774,1.892090,13.122559,65.368652
17674,0.043213,0.028809,1.011963,1.770020,11.657715,60.974121
17683,0.019287,0.037476,1.069458,2.136230,10.742188,58.044434
17693,0.071289,-0.022339,1.023804,2.380371,10.070801,54.931641
17703,0.098022,0.012573,1.001099,2.319336,9.216309,51.391602
17713,0.125610,0.004639,0.988647,2.563477,8.605957,48.889160
17722,0.136719,0.095581,1.000122,2.563477,7.629395,47.058105
17733,0.128418,0.101440,1.020264,2.624512,7.080078,46.020508
17743,0.097412,0.119141,1.033203,2.563477,6.286621,45.715332
17754,0.061279,0.093140,1.010254,2.807617,6.591797,46.508789
17764,0.066162,0.107178,0.992432,2.990723,8.056641,46.813965
17773,0.056274,0.072632,1.003906,3.173828,7.812500,46.936035
17783,0.004883,0.031250,1.008911,3.601074,7.324219,47.363281
17792,-0.009155,0.074585,1.037231,3.417969,7.568359,47.790527
17803,-0.002197,0.093994,1.039063,3.112793,8.300781,49.011230
17812,0.039429,0.037720,0.969849,3.234863,9.094238,49.865723
17825,-0.040161,0.084351,1.060181,3.479004,9.582520,52.062988
17834,-0.033081,0.042847,1.082031,3.845215,10.314941,52.856445
17843,0.011597,0.031860,1.050659,3.845215,10.559082,53.588867
17853,0.020508,0.100708,0.988403,3.295898,11.291504,54.321289
17863,0.056274,0.095947,0.968384,3.173828,12.023926,56.457520
17873,0.047729,0.174194,1.005737,3.234863,12.634277,58.593750
17883,0.054565,0.127930,1.021362,3.845215,13.244629,60.974121
17894,-0.019043,-0.003052,0.969727,4.638672,13.732910,65.490723
17903,-0.035522,-0.024048,0.971069,4.638672,13.671875,67.443848
17913,-0.042847,0.020996,0.956421,4.760742,14.343262,69.885254
17923,-0.018188,0.037598,0.959839,5.432129,15.197754,72.448730
17932,-0.044922,-0.029907,0.951538,6.713867,15.380859,75.988770
17943,-0.087891,-0.123169,0.964233,7.263184,15.136719,79.528809
17954,-0.163452,-0.229492,1.010742,5.432129,17.517090,87.463379
17964,-0.170410,0.026978,1.014038,4.150391,19.226074,91.125488
17974,0.068359,0.126709,0.960937,4.150391,21.118164,94.848633
17983,0.152222,0.186035,0.958008,4.943848,21.484375,98.205566
17993,0.143555,0.097412,1.006958,6.103516,20.996094,100.036621
18002,0.047974,0.049316,1.028564,6.896973,20.202637,101.745605
18012,0.009521,0.068237,1.075317,6.225586,20.141602,103.637695
18023,0.084229,0.097412,1.075562,5.615234,21.301270,105.285645
18035,0.201782,0.118408,0.977295,6.469727,21.362305,107.543945
18044,0.144043,0.013794,0.980347,7.568359,20.690918,107.727051
18053,0.052612,0.077637,1.041626,7.629395,19.348145,107.971191
18062,0.082275,0.052612,1.143188,7.629395,19.226074,107.055664
18073,0.154053,0.054199,1.143311,7.812500,19.531250,105.529785
18083,0.205566,0.085327,1.085205,8.178711,18.737793,102.539062
18094,0.268188,-0.002808,1.043823,9.582520,14.282227,92.102051
18104,0.261719,0.009277,1.080200,10.131836,11.840820,85.632324
18114,0.226929,0.003906,1.105469,10.498047,10.070801,78.430176
18123,0.192749,0.058960,1.043213,10.620117,8.056641,71.350098
18133,0.221558,0.093750,0.996582,11.108398,6.652832,64.697266
18143,0.242798,0.025391,0.969238,11.535645,5.126953,58.593750
18153,0.220581,0.098389,0.960571,11.169434,3.234863,53.466797
18162,0.183594,0.135986,1.009399,10.925293,1.708984,49.194336
18175,0.155396,0.159790,1.036499,10.803223,0.305176,42.968750
18184,0.180054,0.121216,0.995361,11.291504,0.061035,41.137695
18193,0.151978,0.110229,0.936279,11.474609,-0.427246,40.344238
18202,0.135498,0.189941,0.948242,10.864258,-0.183105,40.832520
18213,0.137085,0.130615,0.977905,11.047363,0.488281,41.381836
18222,0.139282,0.095093,0.999512,11.230469,1.220703,42.297363
18233,0.111694,0.090332,1.007080,11.047363,1.220703,42.968750
18245,0.072144,-0.056152,1.031006,11.657715,2.136230,43.395996
18254,0.049561,0.081543,1.036743,10.742188,2.441406,43.762207
18263,0.093018,0.123291,1.009888,10.437012,3.601074,44.189453
18273,0.151001,0.135010,0.965820,10.375977,4.699707,45.715332
18282,0.128296,0.145630,0.926270,10.559082,5.126953,47.912598
18293,0.058350,0.162109,0.982056,10.742188,6.286621,50.354004
18302,0.040039,0.041870,1.019775,11.047363,6.896973,52.734375
18313,0.038208,0.087158,0.994873,10.253906,8.911133,58.410645
18323,0.132446,0.087402,0.982910,10.437012,9.826660,61.035156
18332,0.121338,0.108765,0.957397,11.169434,10.131836,63.781738
18342,0.057739,0.105347,0.990967,12.329102,9.948730,66.345215
18353,0.011108,-0.027344,1.026489,13.610840,10.742188,69.702148
18363,-0.039917,-0.135010,1.022095,14.282227,11.840820,73.669434
18372,-0.095581,-0.085815,1.034180,14.038086,13.244629,77.514648
18385,0.040894,0.058960,0.976318,12.390137,17.089844,84.594727
18394,0.103638,0.125610,0.947021,12.145996,17.700195,86.975098
18403,0.168335,0.078979,1.016113,13.305664,18.127441,88.317871
18412,0.080322,0.118896,1.073853,14.343262,17.944336,89.050293
18423,0.060059,0.145874,1.088989,15.075684,17.822266,89.172363
18432,0.141846,-0.001587,1.038574,15.441895,18.005371,89.233398
18442,0.160889,-0.006592,0.927368,15.319824,17.395020,89.965820
18455,0.156616,0.155029,1.107056,15.441895,17.883301,91.003418
18464,0.178711,0.068726,1.071411,16.479492,17.761230,91.125488
18473,0.163818,0.040161,0.999146,16.967773,16.479492,89.965820
18483,0.207764,-0.003540,1.003662,17.150879,15.625000,88.134766
18492,0.194214,0.016724,1.014893,16.906738,14.465332,86.669922
18502,0.193359,0.115967,1.060303,17.272949,13.549805,84.350586
18513,0.224487,0.061401,1.067505,18.188477,12.695313,80.749512
18524,0.176880,0.083252,0.998169,18.920898,11.718750,77.514648
18533,0.195557,0.066406,1.061768,18.981934,8.972168,70.129395
18543,0.176880,0.119629,1.057251,18.615723,7.751465,66.833496
18553,0.202271,0.111694,1.033081,18.554687,6.896973,62.561035
18562,0.245239,0.044678,0.974487,18.432617,5.981445,57.922363
18572,0.198730,0.085693,0.966187,18.188477,4.272461,54.321289
18583,0.192749,0.108276,1.046753,17.883301,3.112793,50.415039
18595,0.143433,0.119141,0.972900,18.188477,1.953125,44.982910
18604,0.156860,0.148926,0.947998,17.761230,1.464844,43.151855
18614,0.223877,0.086792,0.933105,17.639160,2.075195,42.663574
18623,0.193359,0.155396,0.959351,17.211914,1.708984,42.541504
18632,0.206421,0.176270,0.992187,17.150879,1.647949,41.870117
18643,0.247192,0.072998,0.952637,17.456055,2.197266,41.076660
18652,0.248535,0.044800,0.889526,16.784668,1.281738,40.222168
18663,0.208252,0.074463,0.941650,15.930176,0.793457,36.926270
18673,0.179199,0.085815,0.982056,15.502930,0.305176,35.095215
18683,0.149780,0.139160,0.941528,15.319824,0.183105,33.630371
18692,0.173828,0.095947,0.946777,15.136719,0.183105,33.081055
18702,0.133789,0.113892,0.912720,14.770508,0.427246,33.996582
18713,0.097656,0.237793,0.948853,14.160156,0.732422,36.254883
18722,0.093628,0.231079,1.039307,14.038086,2.502441,39.550781
18733,0.096680,0.123291,0.979126,13.488770,6.225586,47.912598
18743,0.126343,0.154419,0.968140,13.183594,7.507324,51.879883
18753,0.139648,0.155396,0.985840,13.000488,8.544922,55.664062
18762,0.100708,0.164307,0.997070,12.939453,9.338379,58.837891
18772,0.106689,0.117065,1.017334,13.122559,9.826660,60.791016
18783,0.061523,0.088745,1.000366,13.183594,10.375977,62.377930
18792,0.062134,0.179077,0.952271,13.061523,11.474609,64.880371
18803,0.083984,0.093384,0.970581,13.244629,13.916016,71.044922
18813,0.062134,0.085693,0.971924,12.390137,15.075684,74.584961
18823,0.038086,0.081055,1.039429,12.207031,16.479492,77.514648
18832,0.098389,0.053223,1.062500,12.268066,17.822266,79.284668
18842,0.120850,0.083618,1.031616,12.145996,18.493652,80.261230
18853,0.171143,0.116821,1.021362,12.329102,18.249512,80.139160
18862,0.165771,0.041626,1.040039,13.122559,17.517090,79.040527
18873,0.156128,0.039185,1.026611,14.160156,16.113281,76.477051
18882,0.096802,0.010864,1.023926,14.709473,15.991211,75.012207
18893,0.101685,0.014282,0.983398,14.648438,15.686035,73.913574
18903,0.072021,0.068481,0.974854,14.587402,15.197754,72.937012
18912,0.096802,0.032104,1.032959,14.709473,15.197754,71.838379
18922,0.082886,0.058960,1.026367,14.526367,15.441895,71.166992
18933,0.041016,0.125732,1.025024,14.038086,15.502930,70.190430
18942,0.083862,0.053833,1.034302,13.977051,15.991211,68.298340
18953,0.211426,-0.050903,0.896606,13.122559,16.906738,67.626953
18963,0.669556,0.356201,0.751465,13.427734,16.357422,67.199707
18973,0.447021,0.393921,1.247681,16.479492,11.962891,68.115234
18982,0.185669,0.068604,1.388794,20.690918,9.704590,67.932129
18993,-0.001343,-0.272339,1.198486,23.803711,12.390137,70.434570
19002,-0.072144,-0.398682,0.734985,23.071289,15.136719,71.655273
19015,-0.113770,0.065063,0.917114,15.258789,14.099121,74.096680
19024,-0.040527,0.499756,1.186157,11.962891,16.784668,76.538086
19034,0.329468,0.644043,1.367920,12.756348,20.751953,78.857422
19043,0.409424,0.476440,1.112793,16.723633,21.179199,79.101562
19052,0.392090,0.179810,0.871948,20.568848,18.798828,78.125000
19063,0.243042,-0.023315,0.946289,22.033691,16.479492,77.880859
19072,0.149658,-0.028076,1.041504,21.850586,14.465332,75.866699
19085,0.156860,0.105713,0.979980,18.859863,14.343262,72.753906
19094,0.311279,0.151001,0.922852,18.127441,15.808105,72.204590
19103,0.372559,0.156250,0.924805,18.920898,15.441895,72.143555
19113,0.187378,0.140869,0.934937,20.263672,13.366699,71.411133
19122,0.180420,0.108398,0.999268,21.362305,12.268066,70.617676
19132,0.214478,0.046631,1.060791,22.216797,12.695313,70.434570
