timestamp,accX,accY,accZ,gyrX,gyrY,gyrZ
11,-0.009888,-0.151489,0.973022,-2.319336,2.319336,17.150879
20,0.013672,-0.230347,0.956543,-2.197266,1.953125,17.333984
30,0.084351,-0.139038,1.002686,-2.075195,1.464844,17.517090
42,0.026489,-0.090088,0.952393,-1.708984,0.671387,17.822266
51,-0.060059,-0.215942,0.899048,-1.403809,0.671387,17.822266
61,-0.033081,-0.203003,0.932007,-1.220703,0.915527,18.066406
71,-0.065552,-0.144775,0.921631,-1.647949,0.976562,18.493652
80,-0.099976,-0.129395,0.954712,-1.708984,0.793457,18.493652
91,-0.107544,-0.203735,0.946899,-1.281738,0.976562,18.005371
100,-0.092651,-0.202759,0.920044,-1.708984,1.403809,18.066406
113,-0.069092,-0.041016,1.041260,-2.014160,1.220703,17.211914
122,-0.065308,-0.109619,0.938599,-1.403809,1.525879,16.784668
132,-0.014648,-0.252075,0.905273,-1.281738,1.403809,16.113281
142,0.038208,-0.138184,1.022095,-1.586914,0.976562,15.625000
151,0.061035,-0.089233,0.992798,-1.770020,0.915527,15.625000
160,0.100342,-0.152710,0.976929,-1.159668,0.732422,15.502930
170,0.096313,-0.166138,0.998047,-0.732422,0.549316,15.625000
181,0.084106,-0.194702,0.945190,-1.159668,-1.098633,14.892578
191,0.036499,-0.097168,1.001221,-1.953125,-1.586914,14.831543
201,-0.002441,-0.070312,1.042358,-2.441406,-1.647949,14.526367
210,-0.025879,-0.138306,1.060547,-2.441406,-1.098633,14.282227
220,-0.004639,-0.100708,1.085815,-2.563477,-0.915527,13.916016
231,0.025757,-0.106323,1.041748,-2.563477,-1.098633,12.817383
240,0.027100,-0.076660,0.958374,-2.624512,-1.953125,11.413574
252,0.029297,-0.041748,1.010986,-2.502441,-2.624512,9.277344
261,0.019775,-0.117920,0.958984,-2.563477,-2.868652,8.544922
270,0.016968,-0.006104,1.032104,-3.051758,-3.356934,7.263184
280,0.011353,0.008545,0.998535,-2.868652,-3.662109,6.286621
290,0.010986,-0.095581,0.972046,-2.380371,-3.479004,5.615234
300,0.047607,-0.085449,0.980957,-2.258301,-3.479004,4.577637
310,0.024658,-0.041016,1.002563,-2.502441,-3.967285,3.784180
320,0.013184,-0.069092,0.965454,-2.807617,-4.272461,2.746582
330,-0.009521,-0.034180,0.968506,-2.441406,-3.479004,1.586914
340,-0.018799,0.017456,0.925903,-2.197266,-2.990723,0.671387
350,-0.015747,-0.155273,0.835449,-2.197266,-3.173828,-0.122070
360,0.008545,-0.152710,0.818970,-2.685547,-3.479004,-0.915527
369,-0.006714,-0.015137,0.923828,-3.479004,-3.662109,-1.342773
380,-0.031494,0.022583,0.975830,-3.967285,-3.234863,-1.098633
390,-0.078735,-0.023315,1.000122,-3.601074,-2.136230,-0.671387
400,-0.047852,-0.031494,1.091064,-2.929688,-1.098633,-1.647949
409,-0.039795,-0.040649,0.960449,-2.685547,-1.464844,-3.479004
420,-0.016357,-0.095825,0.961426,-2.685547,-1.525879,-4.943848
430,0.017944,-0.034058,0.995239,-2.502441,-1.342773,-5.615234
440,-0.000977,-0.066284,0.981934,-2.563477,-0.854492,-5.798340
450,0.025513,-0.132324,1.011841,-2.380371,-0.427246,-5.249023
460,-0.004639,-0.125488,1.050171,-2.075195,-0.244141,-4.699707
469,-0.009644,-0.115967,0.994019,-1.953125,0.488281,-3.845215
481,0.055176,-0.092529,1.025513,-1.831055,0.976562,-3.356934
490,0.031128,-0.115234,1.005127,-1.831055,0.915527,-2.990723
500,0.026001,-0.119873,1.004395,-1.892090,1.037598,-2.502441
509,0.020630,-0.096436,0.957031,-2.075195,1.708984,-1.770020
520,0.035034,-0.103638,1.021606,-2.136230,1.892090,-0.610352
530,-0.000122,-0.072021,0.955322,-2.075195,2.319336,0.244141
539,-0.010864,-0.145508,0.919189,-2.136230,2.258301,2.563477
551,0.033936,-0.093262,0.947021,-2.319336,2.014160,3.295898
560,0.037476,-0.106567,0.960083,-2.685547,2.319336,4.821777
570,0.022705,-0.130249,1.018799,-2.990723,2.685547,6.286621
580,-0.055420,-0.064941,1.102051,-2.685547,3.173828,7.446289
590,-0.129639,-0.101440,1.011353,-1.831055,3.784180,8.605957
600,-0.052124,-0.244141,0.963257,-1.281738,4.882812,9.765625
609,0.009399,-0.147827,0.982544,-1.281738,5.249023,11.596680
621,-0.060303,-0.177979,0.966431,-1.281738,4.516602,12.390137
630,-0.013062,-0.092773,0.999878,-1.342773,4.516602,13.244629
640,0.040894,-0.105103,1.003296,-1.159668,4.760742,13.916016
649,0.005859,-0.199341,0.952515,-1.159668,4.394531,14.099121
659,-0.047363,-0.138672,0.982178,-1.525879,3.967285,14.343262
669,-0.016479,-0.069702,1.008911,-1.525879,4.577637,15.258789
682,0.035156,-0.172363,0.962280,-1.525879,5.920410,18.676758
691,0.028687,-0.158081,1.008301,-1.770020,5.493164,20.019531
700,-0.010742,-0.177979,0.996948,-1.953125,5.004883,20.690918
710,-0.006348,-0.165527,1.028076,-1.953125,4.394531,20.874023
719,-0.016724,-0.108765,1.050537,-1.586914,4.211426,20.202637
729,-0.000488,-0.174683,0.955933,-1.586914,4.028320,19.287109
740,0.028809,-0.163818,1.002319,-1.708984,3.967285,18.554687
749,0.010132,-0.055908,1.015625,-1.770020,3.356934,17.395020
761,0.066772,-0.176025,0.981689,-0.610352,2.990723,16.845703
770,0.102539,-0.096680,0.961182,-0.366211,2.258301,16.052246
779,0.066162,-0.184814,0.973511,-0.183105,1.770020,15.075684
789,0.084351,-0.180176,1.000732,-0.244141,1.281738,13.793945
799,0.088867,-0.120972,1.002563,-0.610352,0.610352,12.329102
809,0.086670,-0.159790,1.007568,-0.610352,-0.305176,10.864258
820,0.124023,-0.114502,1.061523,-0.427246,-0.976562,8.605957
830,0.059570,-0.195435,0.951416,-0.244141,-1.220703,7.934570
840,0.089478,-0.121826,0.965454,-0.366211,-1.464844,7.080078
850,0.076782,-0.218750,0.928467,-0.549316,-1.831055,6.774902
859,0.073730,-0.169678,0.936157,-0.671387,-2.014160,6.469727
869,0.052612,-0.103394,0.978027,-0.610352,-2.197266,6.103516
879,0.049072,-0.161743,0.885010,-0.854492,-2.685547,5.371094
889,0.046997,-0.180298,0.934570,-0.854492,-2.807617,4.394531
900,0.077271,-0.143555,0.951294,-1.098633,-2.868652,3.356934
909,0.125366,-0.107666,0.968750,-1.464844,-2.868652,3.173828
919,0.076050,-0.071411,0.992065,-1.708984,-3.173828,2.868652
928,0.079834,-0.129883,0.960083,-1.708984,-3.356934,2.197266
939,0.085449,-0.060303,1.053345,-1.525879,-3.417969,2.258301
949,0.065918,-0.054443,1.034180,-1.281738,-3.173828,2.319336
959,0.041626,-0.079956,0.987793,-1.037598,-3.295898,2.075195
969,0.040283,-0.030151,1.030396,-0.549316,-3.662109,1.708984
978,0.051758,-0.155518,0.975708,-0.610352,-3.479004,2.014160
989,0.026123,-0.033813,1.006104,-0.976562,-3.479004,2.502441
999,-0.036499,-0.065796,0.989502,-1.403809,-2.990723,3.601074
1008,-0.017212,-0.041992,1.044922,-1.403809,-2.014160,4.821777
1019,-0.058472,-0.014160,1.038330,-1.647949,-1.586914,5.432129
1029,-0.045898,-0.062500,1.055786,-1.281738,-1.281738,6.103516
1038,-0.054687,-0.076416,1.059082,-0.488281,-0.976562,6.652832
1048,-0.026489,-0.099976,1.012451,-0.244141,-1.220703,6.530762
1059,0.035889,-0.097290,1.019287,-0.366211,-1.220703,7.141113
1068,0.006226,-0.125244,0.949097,-0.305176,-1.098633,7.751465
1078,0.024414,-0.181763,0.878906,-0.244141,-0.549316,8.789063
1089,0.021973,-0.115479,0.929932,-0.610352,-0.305176,9.826660
1098,0.030640,-0.163940,0.878174,-0.915527,0.000000,11.108398
1111,0.033447,-0.103027,0.930786,-1.770020,0.183105,13.854980
1120,0.063477,-0.153931,0.940674,-2.014160,-0.183105,14.587402
1130,0.030151,-0.115356,0.947876,-2.258301,-0.488281,15.136719
1139,0.058716,-0.018188,1.037109,-2.075195,-0.854492,15.502930
1149,0.044556,-0.151367,0.986816,-1.831055,-0.732422,15.747070
1158,0.040161,-0.132202,1.009766,-1.770020,-1.159668,15.808105
1168,0.033081,-0.011475,1.033569,-1.525879,-1.159668,15.991211
1180,-0.000977,-0.034912,1.080444,-1.098633,-1.586914,15.930176
1190,-0.022827,-0.039185,1.029541,-0.976562,-1.770020,15.747070
1200,-0.009888,-0.128540,1.025513,-0.488281,-1.647949,15.502930
1209,-0.006958,-0.059570,1.002075,-0.305176,-1.892090,15.197754
1218,-0.013062,-0.124023,0.968506,-0.366211,-2.014160,14.953613
1228,-0.008057,-0.091919,1.034058,-0.427246,-2.197266,14.892578
1238,0.015747,-0.066284,1.020874,-0.488281,-2.258301,14.404297
1249,0.024902,-0.173584,0.996216,-0.122070,-2.563477,13.549805
1259,0.069458,-0.161865,0.971802,0.122070,-3.234863,12.695313
1269,0.075439,-0.220947,0.941895,0.183105,-4.089355,11.596680
1279,0.105713,-0.153809,0.988403,0.122070,-4.699707,10.986328
1288,0.085205,-0.155273,0.945190,0.183105,-5.249023,10.437012
1298,0.059937,-0.221680,0.905762,0.122070,-5.371094,10.253906
1308,0.021118,-0.149414,0.964478,-0.244141,-5.371094,10.253906
1319,0.012085,-0.153076,0.950195,-0.915527,-5.310059,9.948730
1329,-0.016846,-0.129028,0.892090,-1.098633,-5.004883,9.948730
1338,0.010498,-0.132324,0.928101,-1.403809,-5.493164,9.338379
1348,-0.035278,-0.175781,0.885498,-2.014160,-5.554199,8.605957
1358,-0.016479,-0.051758,0.995605,-2.563477,-5.371094,8.117676
1368,-0.024048,-0.057373,0.993408,-2.563477,-5.737305,6.958008
1378,-0.034302,-0.134033,0.981201,-2.441406,-5.920410,6.164551
1388,-0.041138,-0.048462,1.049805,-2.380371,-5.615234,5.432129
1398,-0.023315,-0.116455,1.011963,-2.502441,-5.126953,3.662109
1407,-0.016479,-0.041016,1.034058,-2.441406,-5.126953,3.112793
1418,0.003052,-0.147461,0.994507,-2.502441,-4.821777,2.319336
1428,-0.004395,-0.120117,1.055664,-2.502441,-4.821777,1.770020
1437,0.019531,-0.072510,1.021729,-2.197266,-5.004883,1.098633
1448,0.000366,-0.147217,0.979370,-1.708984,-5.065918,0.305176
1458,0.035034,-0.146851,0.997681,-1.342773,-5.249023,-0.366211
1467,0.041748,-0.165649,1.001221,-0.854492,-5.126953,-1.586914
1479,0.049561,-0.165283,1.017822,-0.488281,-5.126953,-2.258301
1489,0.056885,-0.244751,0.957520,-0.427246,-5.126953,-2.624512
1498,0.031128,-0.195190,0.926636,-0.488281,-5.249023,-3.051758
1508,0.047485,-0.163574,0.912720,-0.732422,-5.065918,-3.662109
1518,0.039307,-0.235962,0.890137,-1.464844,-5.004883,-4.333496
1527,0.048950,-0.129883,0.937256,-1.953125,-5.249023,-5.371094
1537,0.039795,-0.058350,0.949463,-2.319336,-5.493164,-7.385254
1549,0.043823,-0.122559,0.976074,-2.807617,-5.004883,-8.056641
1559,0.048950,-0.056519,0.994385,-2.868652,-4.821777,-8.422852
1568,0.084839,-0.078125,1.002808,-3.173828,-4.882812,-8.850098
1578,0.063843,-0.039429,1.039673,-3.173828,-4.882812,-9.033203
1588,0.064087,-0.051270,1.039551,-2.990723,-4.699707,-9.094238
1597,0.046021,-0.048218,1.061035,-2.868652,-4.577637,-8.972168
1610,0.023560,-0.145630,0.939697,-2.685547,-4.211426,-7.995605
1619,0.007935,-0.044800,0.977295,-2.746582,-3.295898,-7.141113
1629,-0.057495,-0.070801,0.916016,-2.868652,-2.624512,-6.286621
1639,-0.049683,-0.147461,0.929810,-3.051758,-2.075195,-5.371094
1648,-0.059692,-0.021118,1.009888,-3.540039,-1.647949,-4.943848
1658,-0.066772,-0.047729,0.970459,-3.295898,-1.586914,-4.333496
1668,-0.064575,-0.131226,0.946777,-2.990723,-1.342773,-3.845215
1678,-0.013184,-0.018555,1.035522,-3.051758,-0.488281,-2.746582
1688,-0.013062,-0.110352,0.977295,-2.807617,-0.183105,-2.136230
1698,-0.009766,-0.076660,1.001953,-2.624512,0.305176,-1.586914
1707,-0.016846,-0.081055,0.974976,-2.075195,0.427246,-0.732422
1717,-0.017456,-0.040283,1.020386,-1.953125,0.732422,-0.183105
1727,-0.039185,-0.038696,1.025146,-1.342773,0.915527,0.610352
1737,-0.052734,-0.190308,0.945923,-0.671387,1.342773,1.037598
1747,-0.044189,-0.121216,0.954346,-0.061035,1.708984,1.770020
1757,-0.059692,-0.134888,0.941040,-0.305176,2.136230,1.953125
1767,-0.017822,-0.104004,0.974243,-0.976562,2.380371,2.258301
1776,-0.055786,-0.076416,0.981689,-1.647949,2.502441,2.502441
1787,-0.064087,-0.104004,0.987915,-2.197266,2.685547,2.502441
1796,-0.039917,-0.044312,1.010132,-2.258301,3.051758,2.502441
1807,-0.026367,-0.093262,0.921387,-2.502441,3.479004,3.173828
1816,-0.006592,-0.187134,0.916748,-2.502441,3.601074,3.845215
1828,0.011475,-0.060303,0.902100,-3.173828,3.906250,4.760742
1837,0.011719,-0.127808,0.905518,-3.601074,3.906250,4.943848
1847,-0.009888,-0.009766,1.021729,-4.028320,3.784180,5.004883
1857,-0.032227,-0.022705,0.945068,-3.967285,3.784180,4.943848
1866,-0.009033,-0.127319,0.946899,-3.906250,4.028320,5.187988
1877,0.006958,-0.067871,1.012451,-3.601074,4.333496,5.676270
1886,-0.008423,-0.089600,0.973755,-3.417969,4.394531,6.286621
1898,-0.024414,-0.031616,1.030762,-3.417969,4.455566,8.666992
1907,-0.004761,-0.090576,0.997925,-2.502441,4.821777,9.826660
1917,-0.007324,-0.154053,0.966553,-2.441406,5.065918,10.620117
1927,-0.004150,-0.075928,1.039429,-2.441406,4.943848,11.291504
1937,-0.044678,-0.179565,0.957886,-2.014160,5.004883,12.145996
1946,0.003662,-0.161255,0.935913,-2.136230,5.065918,12.451172
1958,-0.011108,-0.089600,0.993286,-2.441406,5.004883,13.000488
1968,-0.012085,-0.113403,0.963013,-2.441406,4.760742,13.671875
1977,-0.018555,-0.120850,0.988525,-2.319336,4.821777,14.221191
1987,-0.003906,-0.200806,0.916016,-2.014160,4.577637,14.404297
1996,0.029785,-0.147461,0.930786,-2.441406,4.638672,14.770508
2007,0.018921,-0.081177,1.032837,-2.868652,4.333496,14.953613
2017,0.021973,-0.156982,0.997070,-2.807617,3.967285,14.892578
2026,-0.001953,-0.070190,1.019653,-2.746582,4.028320,14.831543
2038,0.021484,-0.173218,0.991699,-2.868652,3.479004,13.488770
2047,0.057739,-0.105835,1.076660,-2.563477,3.051758,12.878418
2057,-0.008423,-0.140625,1.014648,-2.258301,2.563477,12.268066
2066,0.044067,-0.153564,0.972900,-2.075195,2.197266,11.352539
2076,0.042114,-0.093384,1.000732,-1.770020,2.014160,11.047363
2087,0.069946,-0.201782,0.962280,-1.953125,1.892090,10.864258
2096,0.065063,-0.165283,0.996460,-2.502441,1.464844,10.253906
2106,0.061401,-0.082764,0.988159,-2.807617,0.671387,9.094238
2118,0.074829,-0.092407,1.009399,-3.173828,0.244141,8.544922
2127,0.115967,-0.093994,0.993652,-3.356934,0.244141,8.178711
2137,0.058960,-0.140991,0.991089,-3.356934,-0.244141,7.629395
2146,0.068481,-0.088867,0.999268,-3.112793,-0.610352,7.019043
2156,0.047607,-0.169800,0.979614,-2.746582,-0.793457,6.469727
2166,0.035156,-0.146851,1.008545,-2.502441,-0.915527,6.225586
2178,0.035034,-0.139404,0.996582,-2.319336,-0.976562,5.187988
2188,-0.003174,-0.065308,1.031128,-1.892090,-0.976562,5.065918
2198,0.020630,-0.088013,0.997681,-1.464844,-0.915527,5.065918
2207,0.005127,-0.117188,0.988892,-1.037598,-0.915527,5.004883
2217,-0.004639,-0.089355,1.017822,-0.793457,-0.915527,5.432129
2227,-0.013062,-0.149780,0.899902,-0.061035,-0.854492,5.493164
2236,-0.017822,-0.141235,0.861816,0.000000,-0.915527,5.554199
2246,0.018555,-0.127686,0.935181,-0.122070,-0.976562,5.493164
2256,-0.000122,-0.159424,0.933228,-1.098633,-0.793457,5.554199
2265,-0.035522,-0.047852,0.977051,-1.281738,-0.488281,5.737305
2276,-0.014160,-0.144165,0.948853,-1.525879,-0.183105,5.554199
2286,-0.004395,-0.069946,0.969727,-1.892090,0.183105,5.737305
2296,0.001343,-0.050293,0.982544,-2.624512,0.366211,5.981445
2305,-0.015259,-0.064819,0.982300,-2.685547,0.305176,6.286621
2318,0.006592,-0.121582,0.911133,-2.258301,0.427246,6.958008
2328,0.032593,-0.061890,1.009033,-2.441406,0.610352,7.385254
2337,0.030029,-0.052612,0.995850,-2.319336,0.366211,7.690430
2346,0.030151,-0.130493,0.968018,-2.502441,0.488281,8.239746
2356,0.029663,-0.054810,1.017456,-2.441406,0.732422,8.972168
2365,0.051880,-0.058228,1.020630,-2.258301,0.671387,9.277344
2376,0.025024,-0.099365,1.025513,-2.075195,0.610352,9.826660
2385,0.035889,-0.098511,1.027222,-1.770020,0.488281,10.253906
2397,0.063110,-0.092041,1.029663,-1.708984,0.305176,10.986328
2407,0.057983,-0.105347,0.998535,-1.464844,-0.122070,11.352539
2416,0.038086,-0.179932,0.905273,-1.403809,-0.549316,11.718750
2426,0.062988,-0.120483,0.965332,-1.586914,-0.976562,11.840820
2435,0.047974,-0.135132,0.929199,-1.647949,-0.976562,11.718750
2445,0.023315,-0.171021,0.906006,-2.075195,-1.342773,11.291504
2457,0.015869,-0.059937,0.987671,-2.563477,-1.953125,9.643555
2466,0.005981,-0.122559,0.966553,-2.258301,-1.892090,9.277344
2476,0.028442,-0.057129,1.019409,-2.258301,-1.892090,8.972168
2486,0.015503,-0.152588,0.986450,-1.708984,-1.647949,8.789063
2496,0.002930,-0.138428,1.017334,-1.831055,-1.708984,8.239746
2506,0.007568,-0.093262,0.970947,-2.014160,-2.075195,7.568359
2515,0.015381,-0.183472,0.917358,-2.014160,-2.075195,7.507324
2525,0.023926,-0.089478,0.948853,-2.014160,-2.136230,7.873535
2537,0.015747,-0.188354,0.952026,-2.075195,-2.136230,8.728027
2546,0.053589,-0.045410,1.043335,-2.502441,-1.708984,9.338379
2556,0.045166,-0.128906,0.990845,-2.929688,-1.831055,9.948730
2565,0.015259,-0.070435,1.015747,-3.295898,-2.197266,10.131836
2575,0.008545,-0.086426,1.005493,-3.356934,-2.197266,10.314941
2585,0.024292,-0.121948,1.019897,-3.173828,-2.014160,10.559082
2595,0.009888,-0.071533,1.035156,-3.234863,-2.075195,10.681152
2605,0.023560,-0.153687,0.992065,-2.990723,-2.624512,10.131836
2616,-0.004639,-0.078979,1.037354,-2.746582,-2.807617,9.887695
2626,0.010864,-0.155884,1.013550,-2.258301,-2.990723,9.643555
2635,0.046265,-0.113281,1.046509,-1.892090,-2.868652,9.277344
2644,0.024902,-0.184937,0.974365,-1.159668,-3.051758,9.338379
2655,0.002197,-0.223755,0.943237,-1.037598,-3.234863,9.033203
2666,0.030762,-0.203491,0.978394,-1.403809,-3.662109,8.483887
2676,-0.007935,-0.164062,0.985718,-1.159668,-3.784180,7.873535
2684,-0.007935,-0.164062,0.985718,-0.915527,-3.723145,7.324219
2695,-0.000854,-0.253662,0.962280,-0.732422,-3.845215,6.591797
2704,0.030762,-0.159058,0.961426,-0.976562,-4.028320,6.042480
2715,0.025635,-0.214722,0.912842,-1.220703,-4.028320,5.981445
2724,0.024292,-0.114258,0.933350,-1.220703,-3.967285,5.798340
2735,0.007813,-0.123535,0.958252,-1.586914,-4.211426,5.493164
2744,0.020508,-0.123901,1.027344,-1.770020,-4.272461,5.004883
2756,0.049805,-0.254517,0.914429,-1.403809,-4.394531,4.638672
2765,0.020752,-0.095581,0.943481,-1.831055,-4.333496,4.577637
2775,0.027954,-0.086914,0.977417,-2.258301,-4.394531,4.699707
2784,0.024658,-0.104370,1.042236,-2.197266,-4.333496,4.577637
2795,-0.001953,-0.111572,0.950317,-2.014160,-4.638672,4.211426
2805,-0.008789,-0.219360,0.855469,-1.892090,-4.760742,4.089355
2815,0.001343,-0.099609,0.956421,-2.807617,-4.638672,3.112793
2826,0.009521,-0.115479,0.948730,-2.685547,-4.760742,2.746582
2836,0.010254,-0.065674,0.996338,-2.746582,-4.455566,2.563477
2845,-0.007690,-0.162598,0.966431,-2.624512,-4.089355,2.380371
2854,0.007690,-0.072632,1.054199,-2.868652,-4.150391,1.647949
2865,-0.032471,-0.136963,0.936157,-2.685547,-4.333496,1.403809
2875,-0.019165,-0.148315,0.945312,-2.624512,-4.516602,0.732422
2885,0.012329,-0.108643,0.993652,-2.746582,-4.455566,-0.183105
2894,-0.004883,-0.104004,1.005859,-2.990723,-4.455566,-0.488281
2905,0.012207,-0.095947,0.944580,-2.929688,-4.272461,-0.732422
2914,0.030029,-0.068115,1.039673,-2.807617,-3.967285,-0.732422
2924,0.010010,-0.092896,1.056274,-2.624512,-3.906250,-0.671387
2934,0.062012,-0.025391,1.112183,-2.502441,-3.967285,-1.037598
2944,0.037842,-0.099121,0.999268,-2.075195,-4.028320,-1.403809
2954,0.033325,-0.145874,1.000000,-1.708984,-3.967285,-1.708984
2964,0.062500,-0.057129,1.016357,-1.342773,-4.333496,-2.746582
2975,0.088013,-0.121460,0.976318,-1.464844,-4.455566,-3.051758
2985,0.064941,-0.177246,0.887451,-1.464844,-5.065918,-3.662109
2995,0.049438,-0.163818,0.893311,-2.136230,-4.943848,-4.394531
3004,0.081055,-0.053223,0.991699,-2.990723,-5.004883,-5.187988
3015,0.018555,-0.122314,1.004272,-3.234863,-5.004883,-5.798340
3024,0.056396,-0.090698,1.055542,-3.417969,-5.249023,-6.835937
3036,0.006714,-0.088013,1.046265,-3.417969,-5.126953,-7.873535
3045,-0.023560,-0.107178,1.056641,-3.234863,-4.638672,-8.239746
3055,0.012939,-0.027344,1.104736,-3.112793,-4.394531,-8.239746
3064,-0.060425,-0.045532,1.063843,-2.441406,-4.638672,-8.178711
3074,-0.010010,-0.091187,0.987915,-1.831055,-3.906250,-8.239746
3084,-0.026978,-0.108032,1.000244,-1.037598,-3.112793,-7.751465
3094,-0.009644,-0.168945,0.965210,-0.915527,-2.746582,-7.385254
3106,-0.024170,-0.145386,0.929077,-0.183105,-2.502441,-6.896973
3115,-0.004883,-0.049194,0.983887,-0.183105,-1.892090,-6.469727
3125,-0.016357,-0.092773,0.943726,-0.488281,-1.647949,-6.042480
3135,-0.008057,-0.073730,0.994873,-0.366211,-1.403809,-5.676270
3144,-0.045776,-0.065063,0.967529,-0.061035,-1.403809,-5.126953
3154,-0.032227,-0.185913,0.932495,0.122070,-0.793457,-4.516602
3164,0.009644,-0.009766,1.036621,0.061035,-0.305176,-4.028320
3175,-0.052368,-0.067749,0.995483,0.061035,0.183105,-2.441406
3185,-0.074341,-0.077637,0.921997,0.854492,0.610352,-1.281738
3200,-0.005371,-0.100342,0.989014,1.159668,1.525879,0.488281
3209,-0.030396,-0.121338,0.978882,1.037598,2.014160,1.464844
3219,-0.031006,-0.063354,0.957520,0.610352,2.258301,2.807617
3227,-0.031006,-0.063354,0.957520,0.366211,2.502441,3.601074
3236,0.008179,-0.073242,1.036743,0.427246,2.502441,4.089355
3246,-0.089478,-0.234131,0.946167,0.610352,2.319336,4.760742
3255,-0.055298,-0.160278,0.926270,0.000000,2.319336,4.943848
3265,-0.034790,-0.064697,0.979614,-0.244141,2.502441,5.126953
3274,0.012207,-0.204590,0.948242,-0.244141,2.380371,5.676270
3284,0.008301,-0.186523,1.023804,-0.549316,2.502441,6.408691
3294,-0.004517,-0.168823,0.896362,-1.159668,2.685547,6.958008
3304,0.014404,-0.000488,1.005615,-1.831055,2.746582,7.446289
3313,-0.006226,-0.157959,1.029907,-1.647949,2.624512,7.385254
3325,-0.050537,-0.150146,0.973877,-1.953125,2.136230,7.080078
3334,0.007202,-0.101074,0.977417,-1.770020,2.319336,6.835937
3344,0.052856,-0.122314,1.015381,-1.159668,1.770020,6.103516
3353,0.069824,-0.246704,1.004517,-0.793457,1.403809,6.103516
3364,0.058716,-0.143311,1.007202,-0.915527,1.281738,5.859375
3373,0.025146,-0.149170,0.979004,-0.915527,0.610352,5.126953
3386,0.051392,-0.297241,0.995728,0.000000,-0.244141,3.784180
3395,0.058105,-0.201172,0.965210,-0.122070,-0.732422,3.112793
3405,0.065918,-0.242798,0.898682,-0.610352,-0.915527,2.502441
3414,0.072510,-0.083984,1.025513,-1.403809,-1.342773,1.831055
3424,0.087158,-0.209229,0.945312,-1.647949,-1.953125,1.098633
3434,0.064453,-0.099976,1.014282,-2.014160,-1.892090,0.549316
3443,0.080811,-0.146729,0.989380,-2.258301,-2.319336,0.000000
3456,0.059326,-0.149414,0.909546,-2.380371,-2.807617,-2.075195
3465,0.088013,-0.166870,0.990356,-2.746582,-3.173828,-2.807617
3474,0.079224,-0.041138,1.008179,-3.173828,-3.417969,-2.929688
3484,0.039795,-0.141357,0.871582,-2.990723,-3.356934,-2.929688
3494,0.029785,-0.097900,0.904785,-3.051758,-3.662109,-3.173828
3503,0.075317,-0.172974,0.947021,-3.051758,-3.784180,-3.173828
3514,0.048218,-0.034546,1.066528,-3.417969,-3.540039,-2.807617
3523,0.018188,-0.094727,0.951660,-3.845215,-3.356934,-2.563477
3535,-0.004395,-0.072754,0.971680,-3.845215,-3.234863,-2.807617
3544,-0.026611,-0.013428,1.021362,-3.662109,-2.929688,-2.868652
3554,-0.064941,-0.007202,0.955444,-3.723145,-2.746582,-3.173828
3564,-0.058472,-0.020630,0.984985,-3.845215,-2.990723,-3.417969
3573,-0.072510,0.035156,1.030029,-3.723145,-2.624512,-3.234863
3583,-0.055420,-0.112549,0.952148,-3.356934,-2.014160,-3.051758
3593,-0.062988,-0.063843,0.969360,-3.173828,-1.708984,-3.051758
3604,-0.034180,-0.107910,0.960571,-3.295898,-1.342773,-2.868652
3614,0.005371,-0.087891,0.948242,-3.112793,-0.671387,-2.319336
3624,0.004883,-0.168335,0.930786,-3.112793,-0.305176,-1.831055
3633,0.002808,-0.093018,0.981445,-3.356934,-0.244141,-1.892090
3643,0.007446,-0.194092,0.981812,-2.990723,-0.427246,-1.831055
3654,0.017700,-0.067261,1.059570,-3.112793,-0.366211,-1.586914
3663,-0.002563,-0.239868,0.986328,-2.807617,-0.366211,-1.098633
3673,0.013550,-0.073853,1.040527,-2.563477,-0.122070,-0.366211
3682,0.008179,-0.070923,1.066528,-2.502441,0.000000,0.061035
3693,-0.023926,-0.149658,0.907104,-2.075195,0.061035,0.732422
3702,-0.003296,-0.110840,0.935181,-2.197266,0.244141,1.342773
3713,-0.000366,-0.125732,0.944824,-1.953125,0.366211,2.014160
3722,0.052246,-0.030273,1.052002,-2.014160,0.305176,2.319336
3733,0.053101,-0.106934,0.985596,-2.014160,0.244141,2.441406
3744,0.044312,-0.047363,1.051758,-2.380371,-0.244141,2.441406
3754,0.061890,0.005127,1.148315,-2.624512,-0.305176,1.647949
3763,0.015625,-0.099365,1.005859,-2.197266,-0.610352,1.281738
3773,-0.001465,-0.176270,0.972412,-2.258301,-1.098633,0.610352
3783,0.050049,-0.069336,1.043945,-2.258301,-1.159668,0.427246
3793,0.014404,-0.087769,0.997803,-2.563477,-1.403809,0.427246
3802,0.004028,-0.035278,0.993286,-2.563477,-1.464844,0.427246
3814,-0.008789,-0.109375,0.981689,-2.014160,-1.098633,0.793457
3824,-0.020996,-0.161377,0.935913,-1.647949,-1.037598,0.793457
3833,-0.011597,-0.134155,0.951904,-1.586914,-0.976562,0.732422
3843,-0.039063,-0.193848,0.920410,-1.281738,-1.037598,0.915527
3852,-0.030518,-0.213135,0.919922,-1.098633,-1.220703,1.220703
3863,-0.004761,-0.088257,1.022827,-1.403809,-1.403809,1.220703
3873,-0.004761,-0.181763,0.958862,-1.281738,-1.037598,1.586914
3882,-0.011841,-0.134521,0.926025,-1.220703,-0.549316,2.380371
3894,-0.048462,-0.076660,0.964111,-1.770020,-0.244141,2.624512
3904,-0.078003,-0.133423,0.832764,-1.953125,-0.427246,2.441406
3913,-0.060669,-0.027832,0.952881,-2.136230,-0.549316,2.197266
3923,-0.092041,-0.184692,0.903931,-1.770020,-0.183105,2.563477
3933,-0.072388,-0.080200,0.971191,-1.892090,0.366211,2.441406
3942,-0.052490,-0.150391,0.900757,-1.831055,0.732422,2.502441
3955,-0.085083,-0.174316,1.000732,-1.525879,1.220703,2.746582
3964,-0.051514,-0.052490,1.045654,-1.403809,1.403809,2.319336
3973,-0.054687,-0.164185,1.003784,-1.220703,1.281738,2.075195
3983,-0.036865,-0.105469,1.100098,-0.976562,1.281738,2.014160
3992,-0.035034,-0.215942,1.024780,-0.610352,1.464844,2.136230
4002,-0.043335,-0.120850,1.020752,-0.671387,1.953125,2.624512
4013,-0.035767,-0.167725,0.977539,-0.854492,2.258301,2.990723
4022,-0.002686,-0.088989,1.031982,-1.525879,2.075195,4.028320
4032,-0.035522,-0.141113,1.018677,-1.647949,2.197266,4.150391
4042,-0.031494,-0.090698,1.033936,-1.770020,2.075195,4.333496
4052,-0.010742,-0.091309,0.989502,-1.647949,2.319336,4.943848
4062,-0.028320,-0.146362,1.008301,-1.586914,2.319336,5.432129
4073,0.002930,-0.174561,1.014160,-1.403809,2.258301,5.737305
4082,-0.011475,-0.088501,1.023315,-1.586914,2.258301,5.981445
4094,-0.012817,-0.106934,1.009277,-1.342773,1.647949,6.103516
4104,0.040161,-0.110962,0.973022,-1.220703,1.647949,6.408691
4113,0.061157,-0.138672,1.062988,-1.098633,1.403809,6.591797
4123,0.058228,-0.075928,1.011963,-1.159668,0.793457,6.225586
4132,0.021729,-0.116455,0.930176,-1.342773,0.305176,5.371094
4143,0.042969,-0.029663,1.034790,-1.464844,-0.061035,4.638672
4152,0.038696,-0.061279,1.061279,-0.976562,-0.427246,3.662109
4162,0.014160,-0.100586,0.967285,-0.549316,-0.915527,2.258301
4173,0.014771,-0.100586,0.987061,15.380859,-1.647949,-0.244141
4182,0.045410,-0.076416,0.985229,0.305176,-2.136230,-1.403809
4192,0.038574,-0.091675,0.970581,0.793457,-2.502441,-2.136230
4202,0.033691,-0.103516,0.958496,1.098633,-2.197266,-2.746582
4211,0.035889,-0.164185,0.842163,1.159668,-2.319336,-3.723145
4222,0.055908,-0.132812,0.919922,0.854492,-2.502441,-4.577637
4232,0.049927,-0.121094,0.969849,0.305176,-2.624512,-5.187988
4243,-0.026001,-0.047729,0.899658,-0.305176,-2.807617,-6.469727
4253,-0.019653,-0.053833,1.007202,-0.183105,-2.319336,-6.469727
4263,-0.013794,-0.079224,0.994507,0.000000,-1.831055,-6.530762
4273,-0.028809,-0.046143,1.032959,0.366211,-1.647949,-6.591797
4282,-0.077148,-0.081787,1.044067,0.793457,-1.770020,-6.713867
4292,-0.025757,-0.021240,1.113281,0.976562,-1.281738,-6.896973
4302,-0.033081,-0.162964,1.024170,1.770020,-0.549316,-7.080078
4313,-0.021729,-0.257324,0.991699,1.892090,-1.037598,-7.629395
4323,-0.088745,-0.289795,0.783203,2.075195,-1.708984,-8.117676
4332,-0.084839,-0.118042,0.822998,0.793457,-1.281738,-7.995605
4341,0.066528,-0.099243,0.880737,0.000000,-0.122070,-7.324219
4351,0.113892,0.050415,0.941650,-0.488281,1.525879,-6.591797
4362,0.028809,-0.165649,0.835327,-0.427246,2.014160,-6.103516
4371,-0.040405,-0.251709,0.910156,-0.549316,1.831055,-6.286621
4381,-0.070068,-0.205933,0.906738,-3.784180,0.366211,-8.056641
4393,-0.015259,-0.039063,0.956177,-3.234863,0.366211,-7.934570
4402,-0.022949,-0.121704,0.870850,-2.685547,1.159668,-7.263184
4412,-0.010742,-0.168823,0.829712,-2.563477,2.014160,-6.103516
4422,0.030640,-0.162842,0.949463,-3.051758,2.624512,-4.760742
4431,0.053467,-0.059326,0.990845,-3.601074,3.356934,-3.417969
4442,0.026855,-0.212891,0.851929,-4.028320,3.601074,-2.380371
4451,0.018677,-0.087646,0.967285,-4.638672,3.784180,-1.220703
4463,-0.042236,0.015991,1.041138,-5.126953,3.234863,-1.342773
4472,-0.013062,-0.126343,1.061035,-4.760742,2.990723,-1.464844
4482,-0.034546,-0.094604,1.085938,-4.455566,3.295898,-0.488281
4491,-0.048584,-0.156250,1.041870,-4.394531,3.784180,0.854492
4501,-0.043945,-0.028076,1.002930,-4.272461,4.577637,2.319336
4511,-0.004761,-0.124512,1.044922,-3.784180,5.065918,3.662109
4521,-0.008179,-0.153809,1.016846,-3.723145,5.187988,5.615234
4532,-0.051636,-0.083618,0.997192,-4.272461,4.882812,5.859375
4541,-0.005371,-0.126709,0.974487,-4.455566,4.943848,5.920410
4551,-0.017456,-0.114014,1.009155,-4.150391,5.065918,6.286621
4561,-0.010742,-0.152100,1.045898,-3.784180,4.882812,6.774902
4571,-0.050171,-0.115356,1.091309,-3.723145,4.943848,6.835937
4581,-0.012695,-0.090210,1.064697,-3.234863,5.126953,6.896973
4593,-0.008911,-0.240112,1.000977,-2.319336,5.065918,7.080078
4603,-0.028320,-0.146362,0.948608,-2.563477,4.760742,7.080078
4612,-0.008545,-0.101685,0.937134,-2.624512,4.455566,7.263184
4622,0.028931,-0.043701,0.984741,-2.807617,4.455566,7.629395
4631,-0.000122,-0.175049,0.888550,-3.051758,4.577637,8.605957
4640,0.039063,-0.057617,0.967773,-3.662109,4.943848,9.277344
4651,0.018433,-0.110352,1.001587,-4.028320,4.821777,9.582520
4660,0.041626,0.067993,0.989624,-4.211426,4.272461,9.704590
4672,0.030884,-0.121460,1.016479,-2.929688,3.540039,9.704590
4682,0.029297,-0.023071,1.016846,-3.051758,2.990723,9.277344
4691,0.021240,0.046387,0.969727,-2.197266,2.868652,9.216309
4701,0.027588,-0.333740,0.911621,-0.732422,2.807617,9.460449
4711,0.001953,-0.085083,0.979736,-0.915527,2.624512,9.704590
4721,0.009644,-0.081909,0.954712,-1.464844,2.319336,9.948730
4732,-0.003662,-0.020386,0.959595,-1.037598,2.136230,9.948730
4742,-0.065552,-0.056274,0.978271,-0.732422,2.258301,9.582520
4751,-0.052124,-0.077393,0.977539,-0.305176,2.197266,9.277344
4761,-0.068237,-0.089722,0.985352,0.183105,2.136230,8.850098
4770,-0.063232,-0.130371,1.006226,0.549316,2.136230,8.666992
4781,-0.062134,-0.095337,0.921631,0.671387,2.380371,8.544922
4790,-0.044922,-0.087769,0.974365,0.793457,2.502441,8.483887
4802,-0.039063,-0.124878,0.941895,1.464844,2.563477,8.911133
4812,-0.011597,-0.190186,0.883057,1.464844,2.563477,9.277344
4821,0.017944,-0.130615,0.982178,1.037598,2.746582,9.521484
4830,0.054077,-0.185181,0.984253,0.244141,2.441406,9.765625
4840,0.052246,-0.096191,1.001953,-0.183105,2.441406,9.826660
4850,0.042236,-0.129150,0.957642,-0.427246,2.014160,9.948730
4860,0.069824,-0.075684,1.027954,-0.671387,1.525879,9.765625
4870,0.085205,-0.160767,0.937744,-0.610352,0.915527,9.704590
4880,0.069214,-0.165771,1.017944,-0.610352,0.610352,9.887695
4891,0.121460,-0.016968,1.034546,-0.793457,0.183105,9.704590
4901,0.124390,-0.160034,1.030273,-0.366211,-0.427246,9.460449
4910,0.058838,-0.093750,1.056885,-0.061035,-1.525879,8.789063
4920,0.003906,-0.242920,0.904907,-0.061035,-2.380371,7.568359
4931,0.038574,-0.088013,1.049194,-0.732422,-2.990723,6.347656
4940,0.068970,-0.129883,0.887207,-1.770020,-3.234863,5.798340
4950,0.061035,-0.010376,0.913818,-2.624512,-2.868652,5.615234
4961,0.050537,-0.043457,0.922119,-3.173828,-2.868652,5.371094
4971,0.036987,-0.109375,0.969727,-3.540039,-2.929688,4.455566
4980,0.034180,-0.078613,1.072021,-3.601074,-3.784180,3.173828
4990,0.032593,-0.141357,0.991211,-3.601074,-4.089355,1.464844
5000,-0.011353,-0.095337,1.031860,-3.234863,-4.455566,0.305176
5010,0.030762,-0.156494,1.035767,-2.929688,-4.577637,-0.854492
5020,-0.005859,-0.092407,1.020386,-2.258301,-4.638672,-2.441406
5030,0.001465,-0.186035,1.104614,-1.831055,-4.333496,-2.746582
5040,0.030640,-0.235962,0.908203,-1.464844,-4.333496,-2.807617
5049,0.035278,-0.118042,0.944092,-1.647949,-4.211426,-3.112793
5060,0.012085,-0.256836,0.902954,-1.403809,-4.211426,-3.601074
5070,0.029297,-0.175781,0.958740,-1.586914,-4.333496,-3.906250
5080,-0.035889,-0.255371,0.862427,-1.647949,-4.333496,-4.089355
5090,0.033081,-0.029663,1.044922,-2.380371,-3.845215,-4.699707
5101,-0.042847,-0.054810,0.999023,-2.685547,-3.356934,-4.516602
5111,-0.022705,-0.262207,0.986816,-2.258301,-3.051758,-4.455566
5121,0.047974,-0.030884,1.015137,-2.197266,-2.441406,-4.394531
5130,-0.008179,-0.230713,0.879517,-2.014160,-2.258301,-3.845215
5140,0.005005,-0.120239,0.997070,-2.197266,-2.075195,-3.662109
5149,-0.002686,-0.267822,0.875854,-2.624512,-1.892090,-3.234863
5162,-0.042969,-0.119019,0.928345,-3.540039,-1.464844,-3.112793
5172,-0.071167,-0.031860,0.955322,-3.784180,-1.220703,-3.051758
5182,-0.095459,-0.181274,0.925659,-3.967285,-0.793457,-2.868652
5192,-0.074951,-0.055176,1.015991,-4.089355,-0.122070,-2.807617
5202,-0.061035,-0.130249,0.890625,-4.089355,0.183105,-2.197266
5212,-0.103760,0.023437,1.009766,-4.028320,0.976562,-1.586914
5221,-0.092529,-0.192749,0.893311,-3.662109,1.892090,-0.183105
5230,-0.083252,-0.059082,0.989136,-3.479004,2.380371,0.732422
5240,-0.087402,-0.060547,0.994141,-3.479004,3.173828,1.708984
5250,-0.046021,-0.179321,0.960693,-3.601074,3.723145,2.563477
5260,-0.060547,-0.041138,1.028931,-3.906250,3.784180,3.173828
5269,-0.029419,-0.081665,1.010010,-3.601074,3.967285,3.662109
5279,-0.049927,-0.054199,0.965698,-2.990723,4.272461,4.272461
5289,-0.029419,-0.146729,0.998657,-2.136230,4.394531,5.065918
5299,-0.045288,-0.120483,0.918457,-2.075195,4.394531,5.493164
5310,-0.022095,-0.118652,0.972290,-2.197266,4.455566,6.042480
5320,0.008301,0.014038,0.993530,-2.380371,4.211426,6.958008
5329,-0.019287,-0.137817,0.921265,-2.197266,4.638672,7.751465
5339,0.041992,-0.061890,1.049194,-2.258301,5.004883,8.239746
5349,-0.017212,-0.146606,0.920044,-2.563477,4.821777,8.422852
5360,0.000977,-0.021729,1.070923,-3.051758,4.760742,8.728027
5369,-0.032227,-0.080078,1.037720,-2.929688,4.516602,8.911133
5380,-0.031860,-0.064331,1.081787,-2.929688,4.089355,8.850098
5390,-0.037354,-0.064697,0.979248,-2.624512,4.089355,9.155273
5399,-0.005371,-0.152588,0.972534,-2.136230,4.394531,10.253906
5409,-0.027832,-0.099121,0.971436,-2.197266,4.211426,11.352539
5419,0.007690,-0.169189,0.833008,-2.380371,4.455566,12.268066
5429,0.001831,-0.050659,0.938232,-3.234863,4.455566,12.878418
5439,0.025146,-0.143188,0.961914,-3.906250,4.333496,13.488770
5451,-0.029907,-0.052002,1.025391,-4.150391,3.967285,12.756348
5461,-0.067261,-0.040771,1.029541,-4.150391,3.906250,12.268066
5470,-0.050781,-0.098022,0.996216,-4.028320,3.540039,11.230469
5480,-0.024048,-0.081055,1.062988,-3.662109,3.234863,9.826660
5489,-0.043579,-0.139160,0.987793,-3.173828,2.746582,8.911133
5499,-0.067017,-0.076050,0.913574,-2.624512,2.502441,8.117676
5508,-0.000854,-0.082886,0.929321,-1.892090,2.258301,7.812500
5521,0.086792,-0.139771,0.856201,-1.647949,3.540039,8.911133
5530,0.109619,-0.056763,0.874023,-2.197266,4.028320,9.033203
5540,0.116699,-0.046143,1.005371,-2.563477,3.479004,8.728027
5549,0.015503,-0.125366,0.991333,-2.380371,2.441406,7.629395
5559,0.010620,-0.064941,1.059204,-2.258301,1.464844,5.371094
5569,0.016602,-0.125732,0.996704,-1.953125,0.671387,3.784180
5579,0.071777,-0.093994,1.081299,-1.464844,0.305176,2.807617
5589,0.055298,-0.251343,0.941528,-1.281738,0.000000,2.807617
5600,0.081299,-0.137817,1.012085,-1.403809,0.244141,3.601074
5609,0.096558,-0.103271,0.986328,-0.915527,0.305176,4.089355
5619,0.091553,-0.240234,0.953979,-0.793457,0.488281,4.394531
5628,0.101440,-0.192993,1.102417,-1.220703,0.366211,4.394531
5639,0.012329,-0.167114,1.026489,-1.342773,-0.305176,3.967285
5648,0.042603,-0.095703,0.978149,-1.525879,-0.549316,3.234863
5661,0.011230,-0.169189,0.961304,-1.098633,-0.854492,3.173828
5671,0.045898,-0.109253,1.026855,-1.586914,-0.976562,2.990723
5680,-0.005127,-0.086304,1.022339,-1.586914,-0.793457,2.929688
5689,0.030884,-0.103516,1.031372,-1.647949,-0.976562,3.234863
5699,-0.002930,-0.160156,0.987915,-1.831055,-0.549316,3.906250
5708,-0.002197,-0.090820,0.995483,-1.647949,-0.061035,4.150391
5719,-0.002930,-0.227417,0.938477,-1.708984,-0.488281,3.601074
5728,0.063110,-0.061768,0.988159,-1.831055,-0.732422,3.173828
5738,0.007202,-0.220337,0.920532,-2.685547,-0.915527,3.051758
5748,0.041382,-0.110352,0.942871,-2.502441,-0.793457,2.746582
5758,0.072998,-0.042480,1.033081,-1.831055,-0.610352,2.502441
5768,0.019409,-0.142334,1.051392,-0.854492,-0.549316,2.502441
5778,0.014282,-0.170532,0.920776,-0.366211,-0.671387,2.136230
5789,-0.010742,-0.053345,1.076660,-0.183105,-0.732422,2.014160
5798,-0.002930,-0.192017,1.017944,0.061035,-0.793457,1.464844
5808,-0.010010,-0.020996,1.014526,0.854492,-0.427246,1.831055
5819,-0.010620,-0.087158,0.916138,0.915527,0.183105,2.624512
5828,0.011597,-0.146851,0.963623,0.793457,0.488281,3.356934
5838,0.008545,-0.239136,0.958008,0.732422,0.488281,3.784180
5848,-0.001709,-0.073364,1.016602,0.244141,0.610352,4.150391
5858,-0.002930,-0.092896,0.993774,0.183105,0.732422,4.455566
5869,0.000977,0.000610,1.028076,0.854492,0.610352,4.638672
5879,-0.031250,-0.109863,0.970459,0.549316,0.854492,4.821777
5888,-0.015137,-0.151611,0.976196,0.061035,1.098633,5.371094
5898,-0.013184,-0.042480,0.957642,-0.427246,1.342773,5.981445
5908,0.006836,-0.014893,0.956299,-0.488281,1.770020,6.408691
5918,-0.048218,-0.073608,0.944946,-0.488281,2.075195,7.263184
5927,-0.015015,-0.079834,0.950439,-0.549316,2.258301,7.690430
5938,-0.032715,-0.262451,0.786987,-0.549316,2.258301,7.629395
5948,-0.001953,-0.208496,0.807739,-3.234863,2.197266,7.446289
5959,0.017456,-0.131958,0.822388,-4.394531,1.831055,7.324219
5968,-0.012451,0.073364,0.968018,-5.065918,1.770020,7.446289
5978,0.005859,0.082153,1.069702,-5.432129,2.014160,7.995605
5988,-0.016235,-0.101196,0.995483,-4.516602,2.441406,8.666992
5998,-0.016113,-0.015869,1.083862,-3.845215,2.807617,9.155273
6008,0.009277,-0.162598,1.038208,-3.356934,2.685547,9.521484
6019,0.036377,-0.185547,1.004028,-3.051758,2.807617,10.498047
6028,0.063599,-0.070312,1.008911,-1.708984,2.136230,10.925293
6038,0.072632,-0.107544,0.983765,-1.647949,2.197266,11.535645
6048,0.065430,-0.105103,0.999146,-1.464844,1.892090,12.084961
6058,0.038696,-0.065186,1.074463,-1.281738,1.647949,12.573242
6068,0.034668,-0.230103,0.985352,-1.159668,1.342773,12.390137
6077,0.068726,0.008423,1.097168,-1.220703,1.098633,12.023926
6090,0.045288,-0.117920,1.031372,-0.732422,-0.061035,10.925293
6100,-0.005615,-0.254639,0.944702,-1.098633,-0.976562,10.498047
6109,0.030884,-0.099976,0.932373,-1.892090,-0.976562,9.948730
6119,0.010254,-0.118042,0.958618,-2.502441,-0.854492,9.826660
6129,0.007080,0.010376,0.921387,-3.417969,-0.671387,9.826660
6138,-0.015259,-0.017090,0.982422,-3.723145,-0.122070,10.009766
6148,-0.001099,-0.146240,0.949097,-3.845215,0.122070,10.009766
6158,-0.024536,-0.034302,1.061523,-4.516602,0.183105,9.460449
6169,-0.015503,0.008911,1.042603,-4.333496,-0.122070,8.911133
6179,-0.034302,-0.120117,0.972290,-3.784180,-0.488281,8.728027
6188,-0.024658,-0.062012,1.063110,-3.234863,-0.671387,8.911133
6197,-0.007080,-0.191406,0.947144,-2.929688,-0.427246,9.216309
6207,0.051880,-0.052979,1.102173,-2.807617,0.122070,9.765625
6218,0.019897,-0.184692,0.938843,-2.685547,0.488281,10.314941
6227,0.046997,-0.066406,0.978516,-2.380371,-0.244141,9.460449
6237,0.016968,-0.186279,1.033569,-2.014160,-0.793457,8.422852
6248,0.040161,-0.161621,0.947144,-1.708984,-1.220703,7.141113
6257,0.034546,-0.175659,0.874878,-1.770020,-1.647949,6.164551
6268,0.043213,-0.015259,0.955933,-2.258301,-2.075195,5.798340
6277,0.057739,-0.154907,0.917358,-1.464844,-2.136230,5.493164
6287,0.047852,-0.052124,0.968750,-0.793457,-1.953125,5.737305
6297,-0.015381,-0.204224,0.806152,0.244141,-1.647949,5.920410
6307,-0.000610,-0.152344,0.995239,1.892090,-1.708984,5.798340
6317,0.049194,-0.159546,1.044312,0.488281,-1.586914,5.981445
6328,0.026855,-0.029297,1.146973,-0.305176,-1.647949,5.798340
6337,-0.062622,-0.199097,0.915283,-0.244141,-1.525879,5.920410
6347,-0.011230,-0.042236,0.962769,0.061035,-1.342773,5.981445
6358,-0.006226,-0.255737,0.945312,0.427246,-1.159668,6.225586
6367,-0.001709,-0.086304,0.995483,-0.244141,-0.610352,6.469727
6377,-0.000488,-0.040894,1.042725,-0.793457,-0.427246,6.896973
6387,-0.007324,-0.029663,0.981567,-1.770020,-0.610352,6.958008
6398,-0.028442,-0.082397,0.961792,-2.014160,-0.671387,7.202148
6407,0.026123,-0.139648,0.990112,-2.014160,-0.793457,7.141113
6417,0.011230,-0.083130,1.058228,-2.258301,-0.793457,6.835937
6427,0.030762,-0.044312,1.104858,-2.685547,-1.037598,6.896973
6439,0.037231,-0.034424,1.085693,-1.586914,-0.915527,7.446289
6449,0.037476,-0.177612,1.057983,-0.366211,-1.098633,7.751465
6459,0.041138,-0.099609,1.056885,0.000000,-1.403809,7.629395
6468,0.047607,-0.090332,1.043945,0.244141,-1.831055,7.446289
6478,0.032837,-0.139282,1.010010,0.488281,-1.647949,7.446289
6487,0.009399,-0.101685,0.923096,0.427246,-1.831055,7.141113
6497,0.066528,-0.146118,0.925781,0.854492,-2.075195,6.835937
6507,0.026611,-0.267578,0.811401,0.915527,-2.197266,7.019043
6516,0.051270,-0.068115,0.930420,-0.183105,-2.380371,6.225586
6528,0.011475,-0.069824,0.968506,-1.892090,-2.563477,5.737305
6538,-0.027710,-0.090332,0.917114,-2.441406,-2.502441,5.126953
6548,-0.016235,0.036499,1.000366,-2.868652,-2.502441,3.906250
6557,-0.076782,-0.083984,0.947510,-2.563477,-2.319336,3.540039
6566,-0.064819,-0.077759,0.951660,-2.807617,-2.197266,3.173828
6578,-0.003418,0.060547,1.065796,-2.563477,-1.831055,3.356934
6588,-0.008789,0.076660,1.056274,-1.831055,-1.525879,3.234863
6597,-0.019653,-0.166626,0.931641,-0.854492,-1.403809,3.051758
6607,0.005127,-0.059814,1.024048,-0.061035,-0.976562,2.685547
6617,0.037354,-0.188354,0.987305,0.366211,-1.098633,1.831055
6627,0.059692,-0.153076,0.969116,-0.061035,-1.403809,0.915527
6637,0.082031,-0.128906,1.034668,-0.549316,-1.953125,0.366211
6648,0.135132,-0.250854,0.969604,-1.098633,-2.380371,-0.305176
6658,-0.042480,-0.210571,0.914185,-0.976562,-2.685547,-0.549316
6667,-0.073364,-0.026489,0.978882,-1.098633,-2.502441,-0.610352
6677,0.070557,-0.130737,0.914185,-1.281738,-1.770020,0.183105
6687,0.111450,0.030518,0.980591,-1.525879,-0.671387,1.037598
6696,0.050293,-0.057007,1.063843,-1.281738,-0.366211,1.342773
6707,-0.074219,-0.157227,0.924438,-1.403809,-0.854492,0.549316
6716,-0.014404,-0.024170,1.025146,-1.525879,-0.854492,-0.793457
6726,0.061523,-0.145752,1.014893,-1.403809,-1.525879,-2.502441
6738,0.029297,-0.221313,0.961670,-0.793457,-1.770020,-2.380371
6747,0.059326,-0.006592,0.942139,-1.098633,-1.403809,-1.892090
6757,0.078247,-0.196655,0.924683,-0.732422,-0.976562,-0.793457
6766,0.082153,-0.212646,0.987427,-0.976562,-0.366211,0.122070
6777,0.052246,-0.207642,0.939941,-1.831055,0.000000,0.732422
6786,0.008667,-0.113403,0.975220,-2.319336,0.122070,0.671387
6798,-0.019653,-0.115845,0.978394,-3.112793,-0.488281,0.366211
6808,-0.041748,0.021240,1.039307,-3.051758,-0.488281,0.732422
6817,-0.028320,-0.189819,0.980713,-2.563477,0.000000,1.159668
6827,0.031738,-0.015137,1.045654,-2.319336,0.610352,2.075195
6837,-0.030762,-0.190918,0.950684,-1.831055,1.098633,3.723145
6846,0.005615,-0.133911,0.971558,-1.831055,1.403809,4.638672
6857,0.057129,-0.168701,0.953979,-1.647949,1.586914,5.371094
6866,-0.016357,-0.161133,0.879395,-1.586914,1.342773,5.920410
6876,0.016235,-0.109253,1.027344,-1.159668,1.281738,5.981445
6886,-0.031006,-0.058105,0.984253,-1.281738,1.647949,6.103516
6896,-0.029297,-0.288574,0.878296,-1.586914,1.586914,6.469727
6907,-0.041382,-0.066772,0.972656,-2.380371,1.586914,6.774902
6916,-0.059326,-0.150024,0.956543,-2.380371,1.892090,7.385254
6927,-0.048584,-0.055664,0.892090,-2.563477,2.380371,7.934570
6936,-0.009399,-0.086182,0.957031,-2.380371,2.685547,9.643555
6947,0.016968,0.002319,1.056396,-2.990723,2.685547,9.826660
6957,-0.015259,-0.143433,0.965576,-2.868652,2.563477,10.253906
6966,-0.001953,-0.013428,1.022461,-2.624512,2.929688,11.108398
6976,-0.014038,-0.197266,0.968018,-2.502441,2.868652,11.596680
6986,0.007690,-0.111328,1.002075,-2.563477,2.685547,11.840820
6996,0.009521,-0.095581,1.050293,-2.624512,2.441406,12.023926
7006,0.002075,-0.092285,0.979370,-3.051758,2.197266,12.084961
7017,-0.041870,-0.110962,0.969849,-2.563477,2.136230,12.390137
7027,-0.005371,0.028809,1.015869,-2.624512,2.380371,12.939453
7036,-0.037109,-0.072632,1.054688,-2.441406,2.441406,13.488770
7046,-0.005493,-0.078857,1.034546,-2.319336,2.624512,13.732910
7056,-0.024292,-0.013672,1.058716,-2.319336,2.929688,14.160156
7066,0.001953,-0.088623,0.974365,-2.075195,2.990723,14.343262
7077,0.002441,-0.012451,1.009644,-1.647949,2.136230,13.977051
7087,0.006836,-0.120361,0.961304,-1.586914,1.708984,13.610840
7096,0.010742,-0.152222,0.972656,-1.525879,1.647949,13.305664
7106,0.022583,-0.103149,0.944458,-1.953125,1.220703,12.573242
7116,0.028320,-0.101807,0.984985,-1.892090,0.854492,12.451172
7126,0.028442,-0.214355,0.940796,-1.708984,0.610352,12.268066
7136,-0.012817,-0.081055,1.029663,-1.831055,0.610352,12.329102
7145,0.044922,-0.152466,1.024292,-1.953125,0.366211,12.084961
7157,0.027466,-0.165039,0.965576,-1.342773,0.244141,12.878418
7166,0.030396,-0.059082,0.965820,-1.098633,0.488281,13.183594
7176,0.062622,-0.088867,1.010376,-0.976562,0.427246,13.610840
7185,0.036133,-0.160278,0.926758,-0.427246,0.183105,13.854980
7196,0.076050,-0.037598,1.005615,0.000000,-0.122070,14.038086
7205,0.063965,-0.212158,0.923950,-0.549316,-0.915527,13.488770
7215,0.056885,0.055176,1.004517,-1.098633,-1.647949,13.122559
7227,0.038940,-0.056152,0.937866,-1.281738,-2.258301,11.718750
7236,0.070557,-0.140503,0.906372,-1.647949,-2.807617,11.413574
7246,0.069336,-0.010620,0.912842,-2.136230,-3.540039,10.620117
7256,0.089111,-0.087280,0.936768,-2.136230,-3.479004,10.192871
7265,0.038330,-0.154541,0.937988,-1.892090,-3.784180,9.948730
7276,0.083496,0.011963,1.000732,-2.136230,-3.967285,9.277344
7285,0.040405,-0.154053,0.880493,-1.831055,-4.150391,8.544922
7297,0.033447,-0.221313,0.888916,-1.647949,-4.516602,6.774902
7306,0.061646,-0.068726,1.009521,-1.953125,-4.882812,6.042480
7316,-0.003052,-0.245728,0.938721,-1.831055,-5.554199,5.310059
7325,0.021729,-0.035156,1.017822,-2.197266,-5.615234,4.211426
7335,0.012085,-0.257813,1.002441,-2.136230,-5.798340,3.601074
7346,0.037598,-0.165649,0.995605,-2.380371,-5.493164,2.624512
7355,0.002197,-0.152832,1.036621,-2.624512,-5.737305,1.586914
7367,0.000977,-0.057495,1.033813,-2.380371,-6.042480,-0.183105
7376,0.061401,-0.258301,0.976196,-1.953125,-5.920410,-0.854492
7386,0.021973,-0.023193,1.125488,-2.014160,-5.859375,-1.403809
7396,0.045410,-0.111816,1.154053,-1.831055,-5.798340,-1.708984
7405,-0.008667,-0.194336,0.972656,-1.159668,-5.432129,-2.136230
7415,0.066528,-0.135986,1.030640,-1.342773,-5.065918,-2.441406
7425,0.043701,-0.225220,0.900635,-1.525879,-5.310059,-3.112793
7435,0.023804,-0.115601,0.917725,-1.647949,-5.676270,-3.845215
7446,0.024536,-0.038574,1.047852,-2.868652,-5.310059,-3.906250
7456,0.004395,-0.007568,1.091797,-2.685547,-4.943848,-3.906250
7466,-0.017822,-0.105957,1.054321,-2.502441,-4.516602,-4.089355
7476,-0.016724,-0.125854,1.079712,-2.197266,-4.028320,-4.333496
7485,-0.004272,-0.136475,1.087036,-1.831055,-3.845215,-4.455566
7495,-0.012939,-0.159302,1.036377,-1.403809,-3.662109,-4.577637
7504,-0.017212,-0.127319,0.962280,-0.976562,-3.356934,-4.699707
7516,0.031494,-0.128052,0.930786,-1.037598,-2.563477,-3.845215
7526,0.041382,-0.185913,0.827148,-1.525879,-2.319336,-3.356934
7535,0.022705,-0.026733,0.963745,-2.197266,-2.258301,-2.746582
7545,0.025269,-0.171509,0.910034,-2.075195,-2.258301,-2.502441
7555,0.037720,-0.038208,0.971069,-1.770020,-1.831055,-2.380371
7565,0.011597,-0.019409,0.986084,-1.464844,-1.586914,-1.647949
7575,-0.011353,-0.138306,0.917847,-0.732422,-1.220703,-1.281738
7584,0.008423,-0.035278,1.033081,0.000000,-1.159668,-0.915527
7595,-0.006226,-0.006958,0.975830,0.183105,-1.281738,-1.098633
7605,0.017456,-0.123779,0.851929,0.610352,-0.854492,-0.793457
7614,0.014404,-0.081177,0.906128,0.427246,-0.732422,-0.061035
7625,0.022095,-0.056885,0.948608,0.305176,-0.366211,0.427246
7634,0.015991,-0.164429,0.859985,0.061035,-0.488281,0.854492
7647,-0.033081,-0.209717,0.895386,0.366211,-0.122070,2.441406
7657,-0.007568,-0.065552,0.988525,0.000000,0.061035,2.868652
7666,-0.017578,-0.077637,1.071167,-0.366211,0.244141,4.028320
7675,-0.073730,-0.104004,0.983032,-0.549316,0.671387,4.760742
7685,-0.038330,0.033569,1.092896,-0.610352,0.976562,5.004883
7694,-0.071899,-0.170654,0.937256,-0.488281,1.159668,5.249023
7704,-0.043945,-0.064209,1.021973,-0.427246,1.464844,5.798340
7716,-0.029785,-0.152100,1.010620,-1.647949,2.014160,6.347656
7725,-0.010864,-0.009521,1.051636,-2.014160,2.258301,6.896973
7735,-0.056152,-0.136475,1.010132,-2.014160,2.258301,7.019043
7745,-0.066284,-0.072144,1.012573,-2.075195,2.075195,6.896973
7754,-0.062012,-0.060059,0.989136,-1.892090,2.136230,6.958008
7764,-0.046875,-0.139771,1.038940,-1.037598,2.197266,6.713867
7775,-0.054199,-0.230835,0.961670,-0.915527,2.075195,6.347656
7784,-0.001709,-0.040527,1.030518,-1.464844,2.380371,6.103516
7796,-0.032227,-0.209717,1.013916,-1.525879,2.319336,5.310059
7805,-0.036377,0.047363,1.056152,-1.708984,2.258301,4.638672
7814,0.019653,-0.147217,1.019775,-1.708984,2.441406,4.333496
7824,-0.005981,-0.043091,1.012329,-1.525879,2.441406,3.967285
7834,0.034790,-0.070068,0.986206,-1.281738,2.258301,3.845215
7844,0.041748,-0.069824,0.870850,-1.037598,1.953125,4.028320
7854,0.109741,-0.133667,0.910889,-0.732422,2.258301,5.065918
7864,0.131226,-0.259155,0.909058,-0.671387,1.953125,6.408691
7875,0.058105,-0.207886,0.903564,-1.342773,1.586914,6.896973
7885,0.090942,-0.038452,1.034912,-2.197266,1.159668,6.958008
7894,0.057739,-0.193481,0.949097,-2.380371,0.610352,6.652832
7904,-0.000610,-0.135498,0.978760,-2.136230,0.061035,6.347656
7914,0.015991,-0.222290,0.840698,-2.014160,-0.366211,6.530762
7924,0.053223,-0.037476,0.958130,-2.441406,-0.488281,6.469727
7934,0.060425,-0.151978,0.885498,-3.051758,0.000000,7.263184
7945,0.032349,-0.151001,0.970581,-2.746582,0.244141,7.568359
7954,-0.002808,-0.107666,0.893311,-2.441406,0.061035,7.568359
7964,0.033081,-0.144409,1.012207,-2.380371,-0.122070,7.019043
7974,-0.012817,-0.267212,0.977905,-2.380371,-0.549316,5.920410
7984,0.008545,-0.026123,1.043579,-2.746582,-0.915527,4.699707
7994,-0.014160,-0.254150,1.001099,-2.319336,-1.220703,3.662109
8006,0.039673,-0.192383,0.987915,-1.892090,-1.403809,2.136230
8015,0.034790,-0.197754,0.966431,-2.014160,-1.525879,1.464844
8025,0.053833,-0.103027,1.034668,-2.197266,-1.892090,0.793457
8034,0.058594,-0.218140,1.013184,-2.014160,-1.892090,0.366211
8044,0.030518,-0.057861,1.024658,-1.831055,-1.708984,0.061035
8054,0.040405,-0.137695,0.987793,-1.403809,-1.831055,-0.122070
8064,0.053467,-0.141724,0.934814,-1.220703,-1.647949,-0.183105
8073,0.030396,-0.154785,1.022339,-1.342773,-1.525879,0.305176
8085,0.015259,-0.094727,1.006836,-1.953125,-1.525879,1.037598
8094,0.026489,-0.077637,1.018799,-2.258301,-1.464844,1.281738
8104,-0.007935,-0.122559,0.997681,-1.892090,-1.464844,1.525879
8114,-0.004639,-0.174561,0.966064,-2.075195,-1.098633,1.892090
8123,-0.032715,-0.082153,0.986328,-2.624512,-0.915527,1.953125
8134,-0.014648,-0.087524,0.999023,-2.868652,-0.976562,2.258301
8144,-0.030396,-0.139648,0.954712,-3.601074,-0.305176,3.356934
8153,-0.015015,0.068359,1.050537,-3.967285,0.061035,3.906250
8164,-0.048950,-0.006104,0.998779,-3.784180,0.488281,4.577637
8174,-0.030518,-0.028320,1.042358,-3.417969,0.976562,5.554199
8183,-0.105225,-0.082275,0.987183,-3.234863,1.281738,6.347656
8194,-0.030396,0.006592,1.034546,-2.868652,1.708984,7.019043
8203,-0.085693,-0.150757,0.881470,-2.868652,1.770020,7.873535
8216,-0.050537,-0.085815,1.009521,-2.502441,2.258301,9.582520
8225,-0.022949,-0.034058,0.997437,-2.136230,2.380371,10.375977
8235,-0.059814,-0.096069,0.986572,-1.647949,2.685547,11.291504
8245,-0.026367,-0.096069,0.925049,-1.342773,3.417969,12.023926
8255,-0.033691,-0.058838,1.006348,-0.915527,3.295898,12.573242
8264,-0.032227,-0.220825,0.883545,-0.183105,2.624512,13.305664
8273,0.016235,-0.022827,1.006348,-0.122070,2.441406,13.488770
8283,0.051270,-0.222900,0.861572,0.122070,2.380371,14.282227
8294,0.096558,-0.173584,0.971191,-0.366211,2.197266,15.747070
8303,0.077148,-0.035767,1.015015,-0.793457,1.831055,16.235352
8313,0.071777,-0.012695,1.051636,-0.427246,1.586914,17.089844
8324,0.051270,-0.229858,0.936890,0.305176,1.525879,17.272949
8333,0.104004,-0.058472,1.049316,0.305176,0.915527,16.845703
8343,0.034912,-0.239380,1.006714,-0.122070,-0.122070,16.296387
8353,0.009888,-0.021973,1.036743,-0.427246,-1.281738,15.380859
8364,0.017578,-0.091431,0.977661,-0.488281,-2.258301,13.977051
8374,0.035767,0.018555,1.000854,-0.854492,-2.014160,13.916016
8383,0.026978,-0.194214,0.974976,-0.854492,-1.892090,13.427734
8393,0.073975,-0.092041,1.097290,-0.732422,-2.258301,12.573242
8403,0.024902,-0.300415,0.956543,-0.671387,-2.624512,11.108398
8413,0.055420,-0.016602,1.009766,-0.976562,-3.601074,9.094238
8423,0.020020,-0.160034,0.958252,-0.793457,-4.699707,7.019043
8432,0.057251,-0.166504,0.950684,-0.793457,-5.798340,3.845215
8444,0.094727,-0.208252,0.893799,-1.403809,-5.920410,3.051758
8454,0.068237,-0.099854,0.885864,-2.380371,-6.103516,2.502441
8463,0.076294,-0.104492,0.900391,-2.929688,-6.286621,1.831055
8472,0.059204,-0.148804,0.952393,-3.356934,-6.408691,1.098633
8483,0.037354,-0.148804,0.898071,-3.662109,-6.774902,-0.183105
8493,0.035767,-0.069336,1.107300,-3.479004,-7.141113,-1.892090
8502,0.026367,-0.200806,0.936646,-3.540039,-7.629395,-4.882812
8514,0.033936,-0.178955,0.943604,-2.990723,-7.568359,-5.676270
8524,0.026123,-0.032349,0.979736,-2.441406,-7.141113,-6.103516
8533,0.047607,-0.218872,1.008545,-1.892090,-6.652832,-6.042480
8542,0.023560,-0.214478,0.881104,-1.953125,-6.164551,-6.347656
8553,0.062866,0.015015,1.047974,-2.563477,-6.103516,-6.713867
8562,0.003784,-0.229736,0.932739,-2.502441,-5.981445,-7.141113
8575,0.028809,-0.197754,1.019897,-3.417969,-6.652832,-9.033203
8585,-0.007813,-0.063721,0.993896,-3.417969,-6.469727,-9.765625
8594,0.034546,-0.105225,1.029785,-3.234863,-5.798340,-9.826660
8604,-0.027100,-0.148804,0.939697,-2.990723,-5.432129,-9.521484
8613,0.022827,-0.094238,1.036499,-2.868652,-5.004883,-9.033203
8623,-0.021118,-0.196289,1.040649,-2.624512,-4.516602,-8.361816
8632,-0.013062,-0.131470,0.961304,-2.441406,-3.784180,-7.995605
8645,-0.000366,-0.148193,0.968506,-2.563477,-2.868652,-7.202148
8655,-0.027100,-0.138550,0.979370,-3.051758,-2.502441,-7.080078
8664,-0.060303,-0.079712,0.922607,-3.051758,-2.014160,-6.591797
8674,-0.047607,-0.093628,0.970947,-2.990723,-1.464844,-6.042480
8683,-0.035034,-0.112305,0.877808,-2.868652,-1.098633,-5.126953
8693,-0.011230,-0.035156,0.942749,-3.051758,-0.488281,-4.028320
8702,-0.065308,-0.184570,0.819336,-3.234863,-0.244141,-2.624512
8715,-0.032959,-0.146484,0.942017,-3.906250,0.610352,-0.549316
8724,0.005005,0.056763,1.017090,-3.967285,0.793457,0.549316
8734,-0.040649,-0.027954,1.005127,-3.784180,0.976562,1.403809
8743,-0.020264,-0.006592,1.004028,-3.417969,1.708984,2.136230
8753,-0.019531,-0.008179,1.088867,-2.929688,2.136230,2.929688
8762,-0.028320,-0.156372,0.959351,-2.441406,1.831055,3.112793
8772,-0.023437,-0.043579,1.008667,-2.258301,1.770020,2.990723
8785,0.008911,-0.080078,0.892944,-1.953125,1.647949,3.173828
8794,0.031250,-0.204956,0.799927,-2.197266,1.525879,3.479004
8803,0.025269,-0.011963,0.958984,-2.746582,1.708984,3.784180
8813,0.029785,-0.170166,0.878174,-3.112793,1.525879,3.906250
8823,-0.003174,0.009155,0.973511,-3.662109,1.525879,4.028320
8832,-0.009277,-0.092041,0.986938,-3.723145,1.464844,4.150391
8842,-0.062134,-0.032715,1.013672,-3.784180,1.525879,3.662109
8855,-0.071655,-0.077515,1.036255,-3.356934,1.159668,2.929688
8864,-0.057007,0.016357,1.070801,-3.295898,1.525879,2.868652
8873,-0.049438,-0.128174,0.977783,-3.356934,2.075195,2.990723
8883,-0.033569,0.005005,1.038452,-3.356934,2.380371,3.540039
8892,-0.029175,-0.098755,1.006104,-3.051758,2.441406,3.906250
8902,-0.020874,-0.043701,1.018311,-2.807617,2.746582,3.601074
8912,0.006226,-0.089355,0.993652,-2.685547,2.868652,3.479004
8923,0.000122,-0.106812,1.004395,-2.441406,2.380371,2.197266
8933,-0.011475,-0.143799,1.044067,-2.136230,1.770020,1.220703
8942,0.010498,-0.078857,1.093872,-1.892090,1.586914,0.671387
8952,0.026855,-0.134155,1.005249,-1.525879,1.464844,0.549316
8962,0.058960,-0.098389,0.981689,-1.159668,1.708984,1.037598
8972,0.023682,-0.154663,1.016357,-0.915527,1.953125,1.953125
8982,0.023804,-0.060059,0.922974,-1.037598,1.953125,2.685547
8995,0.010864,-0.102295,0.936279,-1.342773,2.441406,4.638672
9004,-0.014038,-0.105591,0.966431,-1.281738,2.136230,4.760742
9013,-0.001099,-0.166504,0.937378,-1.464844,1.770020,4.821777
9023,0.036743,0.036133,1.051514,-1.831055,1.892090,4.943848
9032,0.020752,-0.106812,0.946411,-1.525879,1.770020,5.187988
9041,-0.027588,-0.039673,1.019165,-1.037598,1.831055,5.126953
9052,-0.046997,-0.244385,0.893311,-0.244141,1.953125,5.676270
9061,-0.030151,-0.080078,0.953247,-0.366211,2.563477,6.286621
9073,-0.062622,-0.155762,0.917603,-0.549316,2.868652,7.019043
9082,-0.043701,-0.228394,0.865234,-1.892090,2.868652,6.958008
9092,-0.036011,-0.020752,0.874634,-2.990723,2.807617,6.408691
9101,-0.003540,-0.102539,0.951660,-2.929688,2.563477,5.798340
9112,-0.057007,-0.149536,0.974243,-2.502441,2.197266,4.882812
9122,-0.067261,-0.135620,0.913330,-2.258301,2.136230,4.211426
9131,-0.004517,-0.072510,0.947144,-2.624512,2.136230,3.723145
9143,0.021118,-0.238647,0.875977,-1.770020,2.258301,4.272461
9152,0.006592,0.020020,1.046265,-1.525879,2.441406,4.699707
9162,0.049072,-0.194580,0.918823,-1.525879,2.380371,5.065918
9171,0.027100,-0.054443,1.015137,-1.647949,2.258301,5.371094
9182,0.031006,-0.239014,0.992798,-1.464844,2.258301,5.859375
9192,-0.011108,-0.072021,0.937988,-1.770020,2.319336,6.164551
9202,0.063843,-0.028687,1.048950,-1.647949,2.380371,6.286621
9213,0.037964,-0.109375,1.064575,-1.342773,2.441406,6.652832
9223,-0.001465,-0.183594,1.015991,-2.075195,2.136230,6.347656
9232,0.034424,-0.132202,1.056885,-2.685547,1.892090,6.164551
9242,0.015625,-0.090088,1.091064,-2.746582,1.525879,6.164551
9252,-0.004150,-0.094360,1.078491,-2.990723,1.708984,6.164551
9262,-0.011597,-0.107056,1.028687,-2.807617,1.892090,6.469727
9271,-0.010254,-0.128906,1.036987,-2.441406,1.647949,7.141113
9284,-0.002930,-0.161865,0.993530,-2.868652,1.953125,7.568359
9293,0.018433,-0.053955,0.982910,-3.112793,1.770020,7.690430
9303,0.000732,-0.088867,0.941895,-3.112793,1.525879,7.507324
9312,0.038208,-0.077515,0.930176,-3.295898,1.403809,7.202148
9322,-0.001465,-0.088623,1.029785,-3.295898,1.220703,6.958008
9331,0.026733,-0.114258,0.942871,-3.601074,1.037598,6.530762
9342,-0.019043,0.047607,1.066650,-3.662109,0.976562,6.530762
9351,-0.014404,-0.078979,0.979980,-3.295898,1.281738,6.225586
9361,-0.026978,0.037720,0.999634,-2.563477,1.647949,6.408691
9371,-0.045288,-0.074219,0.963501,-2.197266,1.647949,6.652832
9381,-0.006592,-0.015015,1.013306,-2.380371,1.770020,6.591797
9392,-0.005859,-0.083374,0.939453,-1.953125,1.770020,6.530762
9401,0.011230,0.027588,0.990967,-1.586914,1.831055,6.652832
9411,0.008057,-0.187256,0.855835,-1.037598,1.525879,6.774902
9423,0.052124,-0.215210,0.927979,-0.732422,1.770020,7.263184
9432,0.030029,-0.074341,0.944458,0.183105,1.770020,7.568359
9442,0.083252,-0.206177,0.948242,0.305176,1.464844,7.812500
9451,0.053467,-0.143555,0.926147,0.183105,0.976562,8.056641
9462,0.082397,-0.109741,0.995972,0.061035,0.671387,7.995605
9471,0.040039,-0.187622,0.910278,-0.122070,0.000000,8.239746
9482,0.073853,0.007202,1.017334,-0.488281,0.000000,8.483887
9491,-0.003540,-0.218506,0.882935,-0.793457,-0.061035,8.972168
9503,0.002075,-0.165283,0.971436,-1.281738,-0.061035,9.338379
9512,0.021240,-0.007324,1.046265,-1.220703,-0.244141,9.460449
9522,0.010132,-0.054321,1.023560,-0.549316,-0.183105,9.460449
9531,-0.011963,-0.123657,0.981323,-0.122070,-0.244141,9.765625
9542,0.022461,-0.106812,1.129639,0.305176,-0.122070,10.009766
9551,-0.013916,-0.243774,0.916382,0.183105,-0.366211,9.399414
9561,0.024414,-0.044678,1.030518,-0.305176,-0.549316,8.789063
9572,-0.012695,-0.057007,0.999634,-1.220703,-1.098633,7.690430
9582,-0.019165,-0.101563,1.024780,-1.464844,-1.403809,6.958008
9591,-0.001831,-0.151245,0.978271,-1.525879,-1.525879,6.408691
9601,-0.002319,-0.135254,1.024658,-1.831055,-1.342773,5.981445
9611,-0.008545,-0.174561,0.860962,-2.014160,-1.220703,5.676270
9621,0.022949,-0.099976,0.948120,-2.258301,-1.159668,5.371094
9633,0.019409,-0.090698,0.868652,-2.807617,-1.586914,4.272461
9643,0.030151,-0.154541,0.879639,-3.112793,-1.647949,3.784180
9653,0.033691,-0.007202,0.991943,-3.601074,-1.586914,3.295898
9662,-0.002808,-0.117676,0.903931,-3.662109,-1.831055,2.746582
9672,0.014404,-0.000244,1.059204,-3.601074,-1.586914,2.319336
9682,-0.019409,-0.255859,0.960083,-3.234863,-1.403809,2.075195
9691,-0.003174,-0.073853,1.025757,-3.356934,-1.403809,1.403809
9701,-0.008911,-0.067017,1.021484,-3.662109,-1.464844,1.037598
9711,0.003052,-0.129761,1.001465,-3.356934,-0.854492,1.464844
9721,-0.008789,-0.208740,0.889526,-3.234863,-0.549316,1.342773
9731,0.000000,-0.062378,1.033325,-3.295898,-0.427246,1.403809
9741,0.002441,-0.224854,0.981445,-3.295898,-0.122070,1.403809
9751,0.010864,-0.145996,1.048828,-3.540039,-0.122070,0.915527
9761,0.032349,-0.131470,1.055786,-3.540039,-0.488281,0.427246
9770,0.022827,-0.131958,1.010010,-3.051758,-0.366211,0.061035
9782,0.013794,-0.189331,0.973633,-2.441406,-0.488281,0.183105
9792,0.070679,-0.148315,0.998291,-1.953125,-0.854492,0.061035
9801,0.051270,-0.180908,0.967163,-2.075195,-0.549316,0.488281
9811,0.039063,-0.096069,0.978760,-2.380371,-0.305176,0.915527
9820,0.073486,-0.025146,1.031494,-2.807617,-0.305176,1.464844
9831,0.021851,-0.049805,0.989746,-2.868652,-0.427246,2.014160
9840,-0.009766,-0.005981,1.028809,-3.112793,-0.549316,2.624512
9852,-0.006348,-0.010254,1.052734,-2.807617,0.488281,4.638672
9861,-0.040649,-0.054810,1.022705,-2.136230,0.915527,5.737305
9871,-0.000366,-0.011353,0.960327,-1.586914,1.037598,6.835937
9880,-0.004517,-0.088989,0.921509,-1.464844,1.098633,7.446289
9891,0.007690,-0.146484,0.859863,-1.525879,1.159668,8.422852
9901,0.052734,-0.083374,0.995972,-2.136230,1.220703,8.789063
9910,0.003906,-0.258301,0.837158,-2.746582,1.037598,8.789063
9923,-0.041504,-0.077148,0.967651,-3.784180,0.366211,7.324219
9932,-0.004028,0.017334,1.034424,-3.662109,0.061035,6.652832
9941,-0.057983,-0.076904,0.989258,-2.746582,0.183105,6.469727
9951,-0.017090,-0.072144,0.974487,-2.197266,0.488281,6.469727
9960,-0.021606,-0.008545,1.035889,-1.403809,0.671387,6.835937
9970,-0.007324,-0.080078,0.911011,-0.732422,0.427246,7.568359
9980,-0.019531,-0.011475,1.008423,-0.244141,0.671387,8.056641
9990,-0.007690,-0.199341,0.922974,0.183105,1.403809,8.850098
10001,-0.017822,-0.088013,1.090332,0.183105,1.281738,8.666992
10011,-0.085571,-0.153809,0.957642,0.427246,1.464844,8.300781
10020,-0.042114,-0.015869,1.082886,0.427246,1.525879,7.568359
10030,-0.062256,-0.184448,0.961792,0.488281,1.281738,7.141113
10040,-0.001221,-0.028931,0.988403,0.549316,1.037598,6.408691
10050,-0.004761,-0.193970,0.932495,0.671387,1.037598,6.103516
10062,-0.002075,-0.055298,0.959961,-0.061035,1.403809,5.310059
10072,0.039429,-0.076050,0.991211,0.000000,1.831055,5.187988
10081,0.015381,-0.041260,1.002563,0.000000,1.586914,5.065918
10090,0.036621,-0.140015,1.017944,-0.122070,1.647949,4.882812
10100,0.039795,-0.041748,1.064697,-0.183105,1.525879,4.516602
10110,0.051025,-0.140015,1.046997,-0.244141,1.220703,4.760742
10120,0.146118,-0.130859,1.087769,-0.061035,1.403809,4.943848
10129,0.107544,-0.224976,1.069824,0.122070,0.732422,5.493164
10141,-0.041016,-0.180420,0.930298,1.037598,-0.732422,6.225586
10150,0.039673,-0.187866,0.878296,1.342773,-0.488281,7.385254
10160,0.131348,-0.016968,0.917358,0.915527,0.427246,8.911133
10170,0.141968,-0.202515,0.906982,0.305176,1.342773,10.620117
10180,0.009644,-0.003174,1.047363,-0.671387,1.464844,11.657715
10190,-0.091187,-0.050171,0.970581,-1.403809,0.854492,11.291504
10202,0.002319,0.019775,1.129639,-1.037598,0.122070,9.338379
10211,-0.103271,-0.183594,1.106567,0.183105,-0.244141,8.972168
10221,-0.070923,-0.175781,1.097168,0.976562,-0.183105,9.033203
10230,-0.105225,-0.138672,0.937256,1.342773,0.366211,9.155273
10239,0.002075,-0.091797,0.976196,1.647949,0.732422,9.399414
10250,-0.013306,-0.288696,0.918457,2.258301,1.281738,9.582520
10260,0.036499,-0.240601,0.823486,1.831055,1.220703,8.605957
10269,0.073120,-0.174683,0.911743,1.159668,0.793457,7.751465
10281,0.061157,-0.138184,0.873169,-15.258789,-0.305176,5.310059
10290,0.073120,-0.044922,0.918457,-1.647949,-0.549316,4.638672
10300,0.092041,0.245850,1.351074,-1.770020,-1.037598,4.333496
10310,0.053955,-0.008911,1.236206,-0.610352,-0.793457,4.516602
10320,-0.070557,-0.242310,0.896851,1.037598,-0.366211,4.943848
10329,0.025269,-0.275879,0.866089,1.342773,0.122070,5.187988
10341,0.146240,-0.326538,0.703735,-0.305176,-1.342773,5.554199
10350,0.088501,-0.237427,0.594849,-4.150391,-1.708984,6.835937
10360,0.093872,0.096680,0.760986,-7.751465,-2.014160,7.934570
10369,0.097534,0.213989,0.926392,-8.544922,-1.892090,7.812500
10379,-0.015381,-0.109253,0.948364,-7.385254,-1.281738,7.446289
10390,-0.039673,-0.129028,1.121826,-7.141113,-1.403809,6.164551
10400,-0.030884,-0.158203,1.095581,-7.629395,-2.075195,4.089355
10409,0.007813,0.024292,1.186768,-7.812500,-2.380371,2.868652
10421,0.016479,-0.069458,1.050781,-5.126953,-2.319336,4.150391
10431,0.010376,-0.079590,1.071533,-4.211426,-1.403809,6.225586
10440,-0.005859,-0.109985,1.056763,-3.967285,-0.732422,7.751465
10450,0.017456,-0.054321,1.082275,-3.906250,-0.610352,8.300781
10459,-0.010132,-0.046997,1.002075,-4.516602,-0.366211,8.605957
10470,0.002197,-0.050659,0.955688,-4.760742,-0.366211,8.361816
10479,0.039551,-0.067139,0.962158,-4.821777,-0.976562,7.812500
10491,0.020874,-0.030151,1.082520,-5.432129,-2.014160,6.591797
10501,0.009277,-0.071777,0.997314,-5.981445,-2.197266,5.920410
10510,-0.011353,0.050049,1.075317,-6.164551,-1.953125,5.920410
10519,-0.006592,-0.033813,1.110596,-5.737305,-1.647949,6.042480
10529,-0.036133,-0.056152,1.062622,-4.943848,-1.037598,5.615234
10540,-0.040894,-0.080444,1.134399,-4.028320,-0.915527,5.249023
10549,-0.042358,-0.142456,1.047852,-3.662109,-0.793457,4.943848
10559,0.012451,-0.098145,1.052124,-3.784180,-1.037598,4.638672
10570,0.037842,-0.016479,0.981079,-3.784180,-1.037598,5.432129
10580,0.068481,-0.142822,0.892700,-3.479004,-1.159668,5.920410
10589,0.107422,0.049927,0.981567,-3.967285,-1.098633,6.652832
10599,0.062866,-0.095215,1.046021,-4.150391,-1.281738,7.690430
10609,0.089111,-0.012451,1.101074,-3.356934,-1.525879,7.629395
10619,0.048950,-0.108154,0.994873,-2.136230,-1.647949,7.690430
10629,0.097534,-0.251587,0.980713,-0.671387,-2.136230,7.263184
10640,0.017456,-0.071533,0.982788,-1.708984,-2.990723,6.530762
10650,-0.007568,0.054443,1.093872,-2.258301,-3.356934,6.042480
10659,0.033447,-0.252075,0.913696,-2.319336,-3.784180,5.310059
10669,-0.020264,0.131958,0.889771,-2.746582,-3.723145,5.126953
10679,0.052246,0.100220,0.777222,-1.342773,-2.868652,5.737305
10689,0.070312,-0.119507,0.794067,1.342773,-2.929688,5.737305
10701,0.022217,-0.216675,0.837891,2.807617,-3.845215,4.333496
10711,0.054321,-0.283325,0.899658,2.136230,-4.272461,3.540039
10720,0.049927,-0.062378,1.015747,1.220703,-4.577637,2.624512
10729,-0.021118,-0.171021,0.877319,0.854492,-4.821777,2.075195
10739,-0.011841,-0.086792,0.967651,0.671387,-4.516602,1.770020
10749,-0.035889,-0.191895,0.991211,0.671387,-3.967285,1.708984
10759,-0.003418,-0.103882,1.019043,0.061035,-3.784180,1.586914
10768,-0.024780,-0.091675,1.061890,0.183105,-3.479004,1.098633
10780,-0.010132,-0.046631,1.041870,0.183105,-3.234863,1.037598
10789,0.033081,-0.220459,0.938965,0.183105,-2.807617,1.159668
10798,-0.008301,-0.140991,1.026978,-0.061035,-2.868652,0.854492
10809,-0.004150,-0.258545,0.955444,-0.366211,-2.990723,0.793457
10819,0.000122,-0.214966,0.943359,-0.671387,-2.746582,1.037598
10828,0.028198,-0.091675,1.064453,-1.220703,-2.685547,1.403809
10841,-0.016602,-0.160889,1.066650,-1.098633,-2.380371,2.075195
10851,0.013062,-0.191772,1.097168,-1.098633,-2.258301,2.563477
10860,0.011963,-0.167480,1.110718,-1.708984,-1.831055,3.112793
10870,0.001343,-0.161255,1.039307,-2.136230,-1.770020,3.417969
10879,-0.040894,-0.064087,1.069214,-2.624512,-1.403809,3.417969
10889,-0.027832,-0.105713,0.988647,-2.746582,-1.708984,3.234863
10899,0.015991,-0.056152,1.057495,-2.746582,-1.770020,2.807617
10908,-0.004517,-0.116455,1.019531,-2.807617,-1.831055,2.746582
10920,-0.000610,-0.015503,1.055908,-3.112793,-2.197266,1.953125
10929,0.000122,-0.060059,1.071045,-2.563477,-1.953125,2.136230
10939,0.003784,-0.146973,0.971802,-2.075195,-1.647949,1.892090
10948,0.040894,-0.057495,0.982788,-1.953125,-1.403809,1.647949
10959,0.029297,-0.172119,0.975342,-2.075195,-1.647949,1.708984
10969,0.049927,-0.145386,0.933716,-2.319336,-1.892090,1.342773
10978,0.024048,-0.035156,0.942627,-2.563477,-1.953125,0.854492
10990,0.068726,-0.007202,0.965576,-2.746582,-1.586914,0.488281
10999,0.035645,-0.133057,0.855591,-2.380371,-1.953125,0.549316
11009,0.061157,0.000854,1.023926,-2.319336,-2.319336,0.549316
11018,0.017944,-0.101074,0.965332,-1.770020,-2.502441,0.305176
11029,0.056885,0.038330,1.025269,-0.976562,-2.380371,0.366211
11038,0.013550,-0.117554,1.028931,0.061035,-2.441406,0.366211
11049,-0.000854,-0.235596,0.876221,0.671387,-2.502441,-0.183105
11059,0.042236,-0.233154,0.924561,0.610352,-2.502441,0.000000
11069,0.023315,-0.016602,0.986816,0.061035,-2.563477,-0.244141
11078,0.041016,-0.155884,0.925415,-0.061035,-2.502441,-0.610352
11089,-0.003784,-0.059570,0.952026,-0.305176,-2.258301,-0.732422
11098,0.038208,-0.069214,1.023926,-0.061035,-2.258301,-1.037598
11108,-0.026733,-0.165283,0.967407,0.061035,-2.319336,-1.525879
11120,0.008789,-0.039673,1.022583,-0.061035,-2.319336,-1.586914
11129,-0.002441,-0.036377,1.016235,0.000000,-2.441406,-1.770020
11139,-0.027832,-0.149536,0.936157,0.366211,-1.953125,-2.014160
11148,-0.026733,-0.073975,0.979736,0.488281,-1.586914,-1.831055
11158,-0.002441,-0.129272,0.920288,0.000000,-1.281738,-1.586914
11169,-0.021240,-0.096680,0.936523,-0.610352,-1.281738,-1.525879
11178,0.001099,-0.018677,1.021362,-1.098633,-1.037598,-1.525879
11188,-0.063843,-0.139648,0.955322,-1.342773,-0.671387,-1.342773
11198,-0.057495,0.077271,1.058105,-1.403809,-0.061035,-1.037598
11209,-0.065674,-0.018799,1.057373,-0.976562,0.488281,-1.037598
11219,-0.078857,-0.187378,0.950317,-0.610352,0.854492,-0.549316
11229,-0.025269,-0.089722,0.988770,-0.488281,1.098633,-0.183105
11238,0.039063,-0.228760,0.944092,-0.610352,1.159668,0.427246
11249,-0.005615,-0.185303,0.938477,-1.586914,1.464844,0.976562
11258,-0.000122,-0.147461,0.934448,-2.441406,1.647949,1.770020
11270,0.032227,0.029785,1.067383,-3.540039,1.953125,3.234863
11279,-0.016113,-0.085083,0.993652,-3.234863,2.502441,4.089355
11289,0.007446,0.059937,1.110718,-2.990723,2.868652,4.333496
11298,-0.018555,-0.129761,1.025391,-2.685547,2.807617,4.760742
11308,0.003418,-0.043945,1.012085,-2.441406,2.563477,5.065918
11318,0.034302,-0.170532,1.016357,-2.136230,2.258301,5.004883
11328,0.019775,-0.089478,0.932007,-1.953125,2.014160,5.371094
11340,0.077881,-0.108887,0.932983,-1.953125,1.647949,6.347656
11350,0.039185,-0.266479,0.849609,-2.258301,1.586914,6.530762
11359,-0.040283,-0.118164,0.944214,-3.051758,1.220703,6.530762
11368,-0.003052,-0.090210,0.982544,-3.784180,1.037598,6.408691
11378,-0.016113,-0.050659,0.964844,-4.028320,1.098633,6.225586
11388,-0.028320,-0.052979,1.048706,-3.784180,1.098633,6.103516
11398,-0.068970,-0.138306,0.960815,-3.356934,1.220703,5.737305
11409,-0.012207,-0.142456,0.922119,-3.356934,1.525879,5.310059
11419,0.005981,-0.048340,0.938721,-3.540039,1.403809,5.371094
11428,0.019165,-0.171753,0.892212,-3.540039,1.342773,5.493164
11438,0.009399,-0.090576,0.973022,-3.906250,1.403809,5.737305
11448,0.007324,-0.150269,0.852539,-4.089355,1.281738,5.554199
11458,0.074585,-0.067139,1.071899,-4.150391,1.403809,5.065918
11468,0.051392,-0.213867,0.957642,-4.028320,1.342773,4.638672
11478,0.022949,-0.110474,0.962158,-3.662109,0.549316,3.601074
11488,0.045044,-0.084351,1.028564,-3.784180,0.000000,2.807617
11498,0.040527,-0.146606,0.981934,-3.967285,-0.488281,2.258301
11508,0.046265,-0.080322,0.993286,-4.028320,-0.488281,2.075195
11518,0.030884,-0.142944,0.940308,-4.272461,-0.244141,2.075195
11528,0.020630,-0.136353,0.974243,-4.516602,-0.305176,2.319336
11538,0.023437,-0.110352,0.993652,-4.638672,-0.061035,2.563477
11548,0.001465,-0.077515,0.942139,-4.577637,-0.061035,2.929688
11559,0.024292,-0.097290,1.047363,-4.211426,-0.244141,2.624512
11569,-0.015991,-0.036499,1.070801,-3.723145,-0.183105,2.624512
11578,-0.032227,-0.082520,1.110107,-2.746582,-0.061035,2.746582
11588,-0.049683,-0.140015,0.970337,-2.197266,0.183105,2.563477
11597,-0.025146,-0.101196,1.020752,-2.075195,0.244141,2.441406
11608,-0.044434,-0.153198,1.051636,-1.953125,0.732422,2.685547
11617,-0.059082,-0.081787,1.006714,-2.197266,1.281738,3.112793
11627,-0.038330,-0.098022,1.028076,-2.502441,1.464844,3.479004
11638,-0.019653,-0.147461,0.958740,-2.258301,1.953125,3.723145
11647,-0.009033,-0.033447,1.031982,-2.319336,1.892090,3.784180
11658,0.013794,-0.079102,0.981567,-2.075195,1.708984,3.723145
11667,0.012573,-0.044312,0.978271,-1.708984,1.770020,3.845215
11678,0.010376,-0.067993,0.931641,-1.403809,1.708984,3.906250
11687,0.034424,-0.103271,0.880737,-0.976562,1.525879,4.272461
11698,0.076782,-0.145264,0.882202,-1.098633,1.281738,4.516602
11708,0.063110,-0.021362,1.001465,-1.647949,1.037598,5.065918
11718,0.025024,-0.165283,0.889404,-1.525879,1.159668,5.554199
11727,0.023926,0.040039,1.003296,-2.014160,0.915527,5.432129
11738,0.058838,-0.173584,0.910156,-2.014160,0.915527,5.676270
11747,0.016479,0.047119,1.022705,-1.953125,0.854492,5.798340
11758,0.024170,-0.121094,0.937134,-1.342773,0.610352,5.249023
11767,0.002930,-0.174805,0.894287,-0.793457,0.488281,5.249023
11778,0.017456,-0.075684,0.997681,-0.549316,0.366211,5.310059
11788,0.022583,-0.096436,1.071411,-0.183105,0.488281,5.065918
11797,-0.015259,-0.089966,0.989136,-0.427246,0.671387,5.126953
11808,-0.002197,0.021973,1.084106,-0.122070,0.488281,5.187988
11817,-0.028442,-0.255005,1.014648,0.915527,0.854492,5.249023
11828,-0.027222,-0.071777,1.048462,1.770020,1.220703,5.310059
11838,-0.002930,-0.143921,0.956665,1.464844,1.098633,5.371094
11847,-0.013184,-0.274292,0.840698,0.854492,0.671387,5.554199
11857,0.013184,-0.145752,0.925781,0.061035,0.610352,5.615234
11867,0.001343,-0.184814,0.878418,-0.610352,0.244141,5.676270
11877,-0.015869,-0.056274,0.924316,-1.098633,0.366211,5.798340
11887,-0.019775,-0.174805,0.953491,-1.403809,0.732422,6.164551
11897,-0.022827,-0.169556,0.915405,-1.831055,1.037598,6.408691
11906,0.028198,-0.153442,1.028076,-2.563477,0.854492,7.080078
11918,0.003174,-0.070068,1.008667,-2.746582,0.793457,7.324219
11927,0.004395,-0.218506,0.875610,-2.929688,1.159668,7.751465
11937,0.022339,0.002197,1.040894,-3.784180,1.403809,8.178711
11947,-0.021973,-0.204102,0.932495,-4.089355,1.281738,8.605957
11957,-0.012329,-0.032715,1.045166,-4.760742,1.159668,8.850098
11967,-0.058472,-0.047241,1.073975,-5.004883,1.647949,9.277344
11977,-0.035034,-0.017334,1.077759,-3.967285,1.647949,9.704590
11988,-0.061890,-0.158081,1.037354,-3.417969,1.708984,9.948730
11997,-0.050537,-0.124512,1.056885,-2.868652,1.953125,9.948730
12007,-0.000610,-0.098267,1.097656,-2.380371,1.708984,9.826660
12016,-0.059204,-0.100830,0.970215,-2.136230,1.281738,9.521484
12027,-0.018677,-0.151978,1.031372,-1.708984,1.525879,9.094238
12037,-0.022095,-0.236206,1.009644,-1.159668,1.892090,8.911133
12048,0.011475,-0.151367,1.016357,-1.098633,1.708984,7.873535
12058,-0.001465,-0.142090,0.982910,-0.793457,1.159668,7.507324
12067,0.010620,-0.158691,1.019165,-0.732422,0.976562,6.835937
12077,0.012695,-0.089478,0.988159,-0.793457,0.671387,6.469727
12086,0.029785,-0.128174,0.977417,-0.427246,0.671387,6.530762
12097,0.029297,-0.159424,0.927490,-0.427246,0.793457,6.530762
12108,0.057129,-0.060547,0.972290,-0.305176,0.366211,6.530762
12118,0.067505,0.027466,0.954590,-0.854492,0.122070,6.591797
12128,0.077148,-0.198242,0.895386,-1.098633,0.122070,6.713867
12138,0.076172,-0.080200,0.944946,-1.708984,0.061035,6.286621
12147,0.104370,-0.051880,1.010254,-2.380371,-0.488281,5.676270
12156,0.055786,-0.050537,0.929810,-2.929688,-1.220703,4.882812
12166,0.070557,-0.001099,1.001709,-2.990723,-1.342773,4.211426
12177,0.054565,-0.118164,1.006836,-2.746582,-1.770020,3.295898
12186,0.067139,0.036499,1.068726,-2.380371,-2.136230,2.258301
12197,0.037231,-0.036133,1.015137,-1.525879,-2.319336,1.647949
12207,0.039307,-0.113892,1.020508,-0.976562,-2.502441,1.403809
12216,0.028320,-0.123535,0.978516,-0.488281,-2.563477,0.854492
12226,0.027954,-0.053833,1.011597,-0.061035,-2.868652,0.366211
12237,0.024902,-0.114014,1.006714,0.610352,-2.563477,-0.183105
12246,0.014404,-0.018555,1.052002,1.220703,-2.624512,-0.915527
12259,-0.035156,-0.171997,0.976196,1.892090,-2.380371,-1.464844
12268,-0.001099,-0.084839,1.027954,2.136230,-2.197266,-1.525879
12277,-0.019775,-0.166138,0.932129,2.258301,-1.831055,-1.525879
12287,-0.031738,-0.012451,0.997559,1.953125,-1.708984,-1.525879
12296,-0.045776,-0.193604,0.876709,1.831055,-1.464844,-1.281738
12307,-0.038452,-0.024658,0.989380,1.281738,-0.732422,-0.732422
12316,-0.057129,-0.102783,0.960327,0.793457,0.000000,0.000000
12327,-0.056641,-0.083374,0.944702,-0.122070,1.220703,1.037598
12337,-0.089844,-0.136230,0.924072,-0.427246,1.586914,1.586914
12346,-0.031006,-0.016968,1.012207,-0.732422,1.708984,2.136230
12356,-0.024902,-0.229492,0.909180,-0.671387,2.075195,2.685547
12366,-0.029419,-0.080444,0.996216,-1.281738,2.502441,3.540039
12376,-0.056885,-0.200562,0.831665,-1.586914,2.319336,4.455566
12386,-0.010010,-0.003662,0.987793,-2.197266,2.685547,5.065918
12396,-0.052002,-0.152466,0.936401,-2.624512,2.990723,6.042480
12407,-0.018188,-0.164429,0.920288,-2.746582,3.723145,7.385254
12417,0.007813,-0.039063,0.955444,-3.051758,4.150391,8.300781
12426,-0.012207,-0.142456,0.964600,-3.295898,4.394531,8.911133
12436,-0.015503,-0.077026,0.930176,-3.417969,3.906250,9.338379
12446,0.018066,-0.136475,0.860107,-3.479004,3.906250,10.070801
12456,0.046143,-0.016479,0.999634,-3.417969,4.028320,10.681152
12467,0.002686,-0.170898,0.936401,-3.662109,3.845215,11.840820
12477,0.014038,-0.019287,1.079468,-3.723145,4.028320,12.512207
12487,-0.039917,-0.128174,0.948975,-2.807617,4.394531,13.244629
12496,-0.031616,-0.096680,1.081299,-2.258301,4.516602,13.671875
12506,-0.038818,-0.232788,0.908081,-2.136230,4.394531,13.732910
12516,0.018799,-0.054077,0.978638,-2.441406,4.089355,13.671875
12526,0.048340,-0.337402,0.878906,-2.136230,3.601074,13.549805
12537,0.048096,-0.076294,0.932983,-3.967285,3.051758,13.671875
12546,0.053223,-0.031128,1.011719,-4.333496,2.502441,13.427734
12557,0.030640,-0.199341,0.972046,-4.089355,2.319336,12.939453
12566,0.029419,-0.171021,1.081055,-4.272461,1.892090,12.451172
12575,0.009766,-0.079468,1.071533,-4.272461,1.525879,11.718750
12586,0.042725,-0.091187,1.029297,-3.845215,1.220703,11.291504
12595,0.096069,-0.143555,1.033203,-3.723145,1.098633,10.925293
12606,0.069336,-0.253784,0.981689,-3.662109,0.549316,10.498047
12617,0.052612,-0.150391,0.962158,-4.150391,-0.244141,9.643555
12627,0.107544,-0.055054,1.002319,-4.821777,-0.610352,9.033203
12636,0.069092,-0.102417,1.041016,-5.187988,-1.037598,8.239746
12645,0.041870,-0.042969,1.076660,-5.493164,-1.281738,7.202148
12656,0.016235,-0.087280,1.115112,-4.882812,-1.647949,5.981445
12665,0.007080,-0.100098,1.028564,-4.150391,-1.953125,5.126953
12675,0.002930,-0.077515,1.102661,-3.784180,-1.831055,5.004883
12685,0.031494,-0.102661,1.017944,-2.990723,-1.831055,4.699707
12697,0.018921,-0.081909,1.008545,-2.380371,-1.525879,5.249023
12706,0.022339,-0.085815,0.944092,-1.708984,-1.464844,5.676270
12716,0.003784,-0.142944,0.924561,-0.915527,-1.220703,5.920410
12725,-0.009155,-0.164551,0.888672,-1.037598,-1.159668,6.042480
12736,0.003784,0.009033,0.984497,-1.586914,-1.342773,5.920410
12745,0.000977,-0.170044,0.888794,-1.464844,-1.342773,6.164551
12757,-0.022339,-0.145142,0.885132,-1.586914,-1.098633,6.652832
12766,-0.062866,0.057495,0.931274,-1.220703,-0.183105,6.958008
12776,-0.029175,-0.135132,0.947632,-0.549316,0.000000,7.629395
12785,-0.053223,-0.114746,0.976318,-0.122070,0.427246,7.812500
12795,-0.015869,-0.093384,0.971436,0.000000,0.610352,8.605957
12805,-0.055054,-0.162109,0.936401,0.122070,0.671387,9.460449
12815,0.010498,0.004395,1.007813,0.244141,0.976562,10.070801
12828,0.031616,0.015137,1.045044,-0.244141,1.586914,11.779785
12837,0.022583,-0.181519,0.939453,-0.366211,1.220703,12.207031
12846,-0.016968,-0.082153,0.971191,-0.610352,1.037598,12.207031
12856,0.023071,-0.133179,0.984619,-0.732422,0.915527,12.390137
12865,-0.003540,-0.076660,0.923584,-1.098633,0.488281,12.390137
12875,0.078369,-0.040039,1.063110,-1.220703,0.061035,12.390137
12886,0.022095,-0.190063,0.921509,-1.281738,0.061035,13.000488
12895,0.068970,0.034790,1.067993,-1.647949,0.000000,14.160156
12906,0.067261,0.074585,1.029663,-1.831055,-0.305176,14.343262
12916,0.061523,-0.121704,1.088989,-1.403809,-1.037598,14.343262
12925,0.070435,-0.125366,1.029053,-0.915527,-1.220703,13.977051
12935,0.076660,0.007935,1.107544,-0.671387,-1.464844,13.549805
12945,0.050049,-0.221313,0.966431,-0.183105,-2.075195,13.183594
12955,0.075806,0.000122,0.991089,-0.122070,-2.807617,12.390137
12965,0.074097,-0.313354,0.955444,0.061035,-3.173828,12.084961
12976,0.054199,-0.049561,1.044556,-1.098633,-4.333496,10.864258
12986,0.047119,-0.176392,0.935059,-1.159668,-4.577637,10.314941
12995,0.029175,-0.018555,1.054810,-1.403809,-4.455566,9.887695
13004,0.021240,-0.268677,0.915649,-1.403809,-4.577637,9.216309
13015,0.020752,-0.006958,1.044434,-1.708984,-4.821777,8.178711
13024,0.002441,-0.147705,1.042725,-1.464844,-5.187988,7.263184
13037,0.053589,-0.153320,1.038452,-0.915527,-5.615234,5.432129
13047,0.040161,-0.197998,0.996582,-0.549316,-5.676270,4.699707
13056,0.038086,-0.067139,1.022339,-0.488281,-5.920410,3.723145
13066,0.035889,-0.178467,1.020996,-0.061035,-6.286621,3.112793
13075,0.004517,-0.093140,1.031494,-0.427246,-6.347656,2.563477
13085,0.025513,-0.159058,0.996948,-0.366211,-6.469727,1.892090
13095,0.024536,-0.161987,0.921631,-0.244141,-6.225586,1.220703
13105,0.053101,-0.102417,0.983276,-0.427246,-5.920410,0.915527
13116,0.014526,-0.069336,0.984375,-0.122070,-6.103516,0.427246
13126,0.019653,-0.227783,0.982544,0.061035,-6.286621,0.122070
13135,0.044800,-0.098389,1.033691,-0.183105,-6.042480,-0.244141
13145,0.066650,-0.176758,1.027344,-0.122070,-5.676270,-0.732422
13154,0.023437,-0.142578,0.957642,-0.244141,-5.554199,-1.281738
13165,0.037354,-0.097534,1.000977,0.183105,-5.310059,-1.525879
13174,0.033936,-0.199097,0.943604,-0.061035,-5.554199,-1.953125
13186,0.042480,-0.282471,0.892944,0.122070,-6.347656,-3.234863
13195,0.053467,-0.086548,0.905640,0.366211,-6.286621,-3.723145
13204,0.069092,-0.174561,0.943848,0.183105,-6.164551,-3.662109
13215,0.072754,-0.138428,0.907349,-0.244141,-5.981445,-4.211426
13224,0.080811,-0.070190,0.977295,-0.549316,-5.981445,-4.760742
13235,0.041504,-0.260498,0.844849,-0.671387,-6.347656,-4.699707
13249,0.081543,-0.221802,0.882935,-1.098633,-6.469727,-5.920410
13259,0.057373,0.022827,1.005005,-1.403809,-6.469727,-6.164551
13268,0.051514,-0.158203,0.948364,-1.403809,-6.225586,-6.408691
13277,0.034546,-0.099121,0.953491,-1.525879,-5.920410,-6.469727
13287,0.043701,-0.031738,1.100220,-1.647949,-5.554199,-6.286621
13296,0.004395,-0.242676,0.964233,-1.892090,-5.554199,-6.164551
13306,0.019043,0.018921,1.068237,-2.258301,-5.126953,-6.103516
13315,0.016968,-0.071167,1.028320,-2.197266,-5.065918,-6.408691
13324,-0.012817,-0.091553,1.063721,-2.136230,-5.126953,-6.774902
13334,-0.014648,-0.154785,1.047363,-1.647949,-4.882812,-6.896973
13345,-0.029541,-0.094482,0.965088,-1.098633,-4.455566,-6.835937
13354,0.007080,-0.156860,0.939941,-1.159668,-3.967285,-6.713867
13364,-0.021851,-0.057617,0.931519,-1.708984,-3.906250,-6.347656
13375,-0.007568,-0.057617,0.954712,-1.831055,-3.845215,-5.859375
13384,-0.032104,-0.141602,0.896606,-2.380371,-3.295898,-5.554199
13396,-0.049561,-0.067261,0.945435,-3.051758,-2.258301,-4.211426
13405,-0.077515,0.118286,1.034790,-3.723145,-1.708984,-3.601074
13415,-0.085327,-0.101929,0.940552,-3.845215,-1.342773,-2.563477
13425,-0.117065,0.063354,1.004272,-4.150391,-0.427246,-1.586914
13434,-0.085571,-0.110840,0.905640,-3.906250,0.305176,-0.610352
13445,-0.081665,0.033691,0.953125,-3.906250,1.098633,0.366211
13454,-0.078369,-0.116455,0.882812,-3.967285,1.281738,1.525879
13464,-0.068848,0.047363,0.949463,-4.455566,1.586914,3.051758
13475,-0.088135,-0.022583,0.953979,-4.272461,2.380371,4.150391
13485,-0.063965,-0.027954,0.995483,-4.028320,3.112793,5.493164
13495,-0.067505,-0.092773,0.945435,-3.479004,3.723145,6.652832
13504,-0.053345,-0.031494,1.052124,-3.295898,4.272461,7.751465
13514,-0.065674,-0.151245,0.968628,-3.051758,4.394531,8.728027
13524,-0.052490,-0.029053,1.059692,-2.807617,4.272461,9.460449
13536,-0.055054,-0.035278,1.068604,-2.380371,4.028320,10.253906
13546,-0.007202,-0.123657,1.038818,-2.136230,4.028320,10.559082
13555,0.016113,-0.152832,1.035767,-1.892090,4.211426,10.986328
13564,0.005737,-0.142456,1.014160,-1.525879,4.028320,11.291504
13574,0.019165,-0.151978,0.940674,-1.220703,3.540039,11.352539
13584,0.081177,-0.091431,1.024170,-1.037598,3.173828,11.230469
13594,0.105713,-0.248291,0.959106,-0.610352,2.502441,10.986328
13604,0.042358,-0.128906,1.026978,-0.488281,1.525879,10.009766
13615,0.042725,-0.129517,0.867432,-1.037598,1.220703,9.643555
13624,0.084351,-0.309692,0.781738,-1.647949,0.915527,8.789063
13634,0.054687,-0.120361,0.848511,-2.990723,0.000000,7.751465
13644,0.070923,-0.180176,0.826416,-4.333496,-0.854492,6.774902
13654,0.051147,0.052612,0.993774,-5.371094,-1.037598,5.371094
13664,0.028442,-0.130493,0.925049,-5.676270,-1.525879,3.967285
13673,0.003540,0.003906,1.062134,-5.981445,-1.708984,1.831055
13685,0.034424,-0.036011,1.055298,-5.249023,-1.892090,1.098633
13694,0.064453,-0.022827,1.100586,-4.455566,-2.075195,0.793457
13703,0.019409,-0.064087,1.025757,-3.723145,-2.014160,1.037598
13714,0.072754,-0.055298,1.084229,-2.502441,-1.831055,1.037598
13724,0.077393,-0.234863,1.022461,-1.342773,-1.953125,0.854492
13733,0.059204,-0.129395,0.985107,-0.915527,-2.258301,0.671387
13745,0.080200,-0.157104,1.092163,-0.976562,-3.356934,0.305176
13754,0.017334,-0.114624,0.977417,-0.793457,-3.173828,0.183105
13764,0.027588,-0.248047,0.972412,-0.549316,-3.723145,-0.122070
13774,0.033691,-0.141357,0.944702,-0.427246,-3.601074,-0.244141
13783,0.024780,-0.157349,0.967529,-0.610352,-3.601074,0.305176
13794,0.017334,-0.109497,0.979248,-0.854492,-3.662109,0.427246
13804,0.033569,-0.153076,0.970703,-0.854492,-3.479004,0.610352
13813,-0.001099,-0.209839,0.982178,-0.732422,-3.173828,0.976562
13825,0.001953,-0.070068,1.053833,-1.159668,-2.990723,0.610352
13834,0.021240,-0.091431,1.007080,-0.732422,-3.051758,0.183105
13843,0.004883,-0.180786,1.042114,-0.915527,-3.112793,-0.244141
13854,0.000000,-0.130737,0.972534,-1.037598,-3.295898,-0.610352
13863,0.003174,-0.156250,1.000488,-1.037598,-3.356934,-1.220703
13874,-0.013306,-0.195557,0.861084,-1.403809,-3.356934,-1.403809
13883,0.005615,-0.011719,1.000610,-2.014160,-3.051758,-1.220703
13895,-0.028931,0.064453,0.989380,-3.417969,-2.441406,-1.403809
13904,-0.040527,0.003906,1.031860,-3.601074,-2.502441,-1.098633
13914,-0.100952,-0.044067,1.009644,-3.417969,-2.258301,-1.098633
13923,-0.056641,0.050415,1.122681,-2.929688,-1.708984,-1.098633
13934,-0.040649,-0.050903,0.999756,-2.380371,-1.525879,-0.976562
13943,-0.023437,0.016846,1.060425,-1.708984,-1.220703,-0.976562
13955,0.014893,-0.153442,0.922485,-0.305176,-1.342773,-0.488281
13964,0.063843,-0.190674,0.851196,0.061035,-1.159668,0.000000
13974,0.075073,-0.104126,0.851685,-0.122070,-1.403809,0.244141
13983,0.083252,-0.148315,0.849854,-0.305176,-1.464844,0.732422
13993,0.077759,-0.116333,0.922119,-0.854492,-1.770020,0.793457
14003,0.057129,-0.083618,1.007446,-1.403809,-2.075195,1.098633
14014,0.047241,-0.156738,0.939575,-1.342773,-2.258301,0.732422
14023,0.012207,-0.056152,1.002319,-1.586914,-2.258301,0.427246
14033,0.053955,-0.213867,0.913574,-1.831055,-2.319336,-0.854492
14044,0.046021,-0.162354,0.994019,-2.136230,-2.929688,-1.403809
14054,-0.008911,-0.017456,0.997192,-2.258301,-3.417969,-1.831055
14063,0.072021,-0.093140,1.003540,-2.258301,-3.662109,-1.770020
14073,0.029541,-0.103027,0.973022,-2.746582,-3.356934,-1.464844
14083,0.085083,0.044922,1.074829,-2.990723,-2.868652,-1.159668
14093,0.021851,-0.128662,1.095215,-2.563477,-2.929688,-0.732422
14105,-0.005859,-0.078369,1.047852,-2.502441,-3.051758,-1.342773
14114,0.035645,-0.156128,1.053589,-1.220703,-3.234863,-2.258301
14123,-0.013428,-0.201782,1.003784,-0.854492,-3.662109,-3.479004
14133,0.006714,-0.195190,0.988403,-1.159668,-3.967285,-4.882812
14143,0.021851,-0.097656,1.024780,-1.281738,-4.516602,-6.164551
14153,0.002197,-0.170166,0.897217,-1.403809,-5.004883,-6.958008
14164,0.015137,-0.106323,0.987061,-2.014160,-3.906250,-7.202148
14174,0.050049,-0.089233,1.054565,-2.502441,-3.234863,-6.958008
14184,-0.017212,-0.091797,0.984497,-2.380371,-3.051758,-6.469727
14193,-0.052002,-0.089844,1.004761,-2.136230,-2.746582,-6.103516
14203,-0.044678,-0.170410,0.987671,-1.831055,-2.563477,-5.981445
14213,-0.067383,-0.148682,0.924194,-1.831055,-2.441406,-5.615234
14223,-0.061035,-0.100952,1.011108,-1.831055,-2.258301,-5.187988
14233,-0.109253,-0.225830,0.848022,-1.647949,-1.586914,-4.455566
14244,-0.124268,-0.170410,0.800903,-2.014160,-0.732422,-2.746582
14254,-0.105347,-0.053833,0.945557,-2.197266,0.610352,-1.953125
14263,-0.094849,-0.190308,0.955811,-2.258301,1.403809,-0.976562
14273,-0.104370,-0.083252,0.959961,-2.685547,2.075195,-0.122070
14284,-0.040894,-0.061401,1.050537,-2.685547,2.563477,0.915527
14293,-0.108398,-0.139404,0.896484,-2.319336,2.746582,2.014160
14303,-0.095215,-0.099976,0.991211,-2.197266,3.112793,2.685547
14313,-0.068115,-0.218384,0.968872,-2.014160,3.662109,4.150391
14324,-0.062866,-0.094482,1.028198,-2.014160,3.479004,4.516602
14334,-0.045410,-0.058716,0.982178,-1.892090,3.295898,4.821777
14343,-0.032715,-0.126099,0.977539,-1.586914,3.417969,5.249023
14352,-0.024292,-0.195435,0.926392,-1.464844,3.540039,5.920410
14363,0.008423,-0.048218,1.003296,-1.525879,3.784180,6.591797
14372,0.003174,-0.093506,1.062500,-1.281738,3.601074,7.080078
14385,0.060547,-0.118164,1.074951,-0.671387,3.479004,7.446289
14394,0.012939,-0.232422,0.965332,-0.244141,3.051758,7.995605
14403,-0.001587,-0.192261,0.994507,-0.244141,2.990723,7.995605
14413,0.042358,-0.119751,1.066895,-0.671387,2.441406,7.690430
14423,0.032349,-0.068604,1.111816,-0.976562,1.770020,7.263184
14432,0.012695,-0.085083,1.050049,-1.464844,1.220703,6.591797
14443,-0.018433,-0.141357,0.979126,-1.525879,0.732422,5.676270
14452,0.037354,-0.096802,0.986450,-1.464844,0.488281,4.150391
14463,0.019287,-0.036987,0.992676,-1.464844,0.244141,2.868652
14473,0.026611,-0.055786,0.993042,-1.281738,0.000000,1.892090
14482,0.014771,-0.148804,0.924072,-1.403809,-0.488281,0.671387
14493,0.064575,-0.069214,0.962158,-1.953125,-0.671387,-0.488281
14502,0.026245,-0.146973,0.929810,-2.197266,-0.915527,-1.586914
14513,0.069580,0.004517,0.985962,-2.441406,-1.220703,-3.051758
14522,0.018066,-0.061768,0.963379,-2.685547,-1.464844,-5.187988
14534,0.004639,-0.057007,1.008301,-2.624512,-1.953125,-5.920410
14543,0.034546,-0.078979,0.961670,-2.441406,-2.075195,-6.286621
14553,0.026489,-0.029297,1.022217,-2.197266,-1.831055,-6.591797
14562,-0.002197,-0.101318,0.975830,-1.831055,-1.586914,-6.774902
14572,0.017456,0.096558,1.087402,-1.647949,-1.159668,-6.896973
14583,-0.027344,-0.113281,1.014771,-1.037598,-1.098633,-6.835937
14592,-0.040039,-0.083008,0.989136,-0.305176,-0.549316,-7.141113
14602,-0.054810,-0.095215,1.063843,0.793457,-0.244141,-7.263184
14613,-0.053711,-0.096436,0.979248,1.037598,0.183105,-7.080078
14622,0.001953,-0.284180,0.890137,1.403809,0.427246,-7.263184
14633,-0.023315,-0.134521,0.996094,0.915527,0.610352,-7.507324
14642,-0.034546,-0.250854,0.863525,0.427246,0.915527,-7.202148
14653,-0.033691,-0.045898,0.998535,0.122070,1.403809,-7.202148
14662,0.009399,-0.124268,0.971069,-0.061035,1.708984,-6.958008
14674,-0.069214,-0.033569,1.092896,-0.366211,2.075195,-6.347656
14683,-0.050415,-0.189087,0.936157,-0.061035,2.746582,-5.737305
14693,-0.072266,-0.045410,1.055176,0.183105,3.417969,-4.516602
14702,-0.047485,-0.181641,0.933472,0.061035,3.906250,-3.417969
14712,-0.009033,-0.061646,0.996094,-0.427246,4.394531,-1.831055
14723,0.002319,-0.106201,1.034180,-0.427246,4.760742,0.061035
14732,-0.016602,-0.198975,0.987671,-0.549316,5.432129,1.586914
14744,-0.046753,-0.135132,0.968384,-0.549316,5.981445,4.394531
14753,0.010376,-0.073975,0.985352,-0.549316,5.981445,5.371094
14762,-0.017212,-0.080688,1.069092,-0.854492,5.981445,6.103516
14772,-0.058105,-0.139526,1.004517,-0.793457,5.798340,7.019043
14782,-0.027954,-0.043945,0.993408,-0.854492,6.103516,7.629395
14792,0.013672,-0.128540,0.947632,-0.488281,6.042480,8.361816
14803,-0.018921,-0.140015,0.910400,-0.610352,5.676270,9.521484
14812,-0.034912,-0.235840,0.931763,-1.159668,5.798340,10.009766
14822,0.003906,-0.198364,0.795044,-1.342773,5.615234,10.864258
14832,0.014160,-0.004028,0.963989,-1.708984,5.798340,11.596680
14843,-0.031128,-0.211914,0.811646,-1.525879,5.737305,12.390137
14852,-0.020874,-0.066040,0.925049,-1.708984,5.737305,12.939453
14862,0.021606,-0.162109,0.987183,-2.014160,5.554199,13.305664
14874,-0.052002,-0.225098,1.002319,-2.380371,4.882812,13.610840
14883,-0.006470,-0.142944,0.996094,-2.685547,4.882812,13.854980
14893,-0.027466,-0.062866,1.014404,-2.807617,4.638672,13.732910
14902,0.002319,-0.193237,0.954712,-2.868652,4.516602,13.977051
14911,-0.006226,-0.110229,1.002319,-3.479004,4.333496,13.977051
14922,0.034912,-0.117676,1.007813,-3.906250,3.967285,13.854980
14932,0.030029,-0.080444,1.059692,-3.845215,3.356934,13.427734
14941,0.010864,-0.034668,1.074341,-3.479004,3.173828,13.122559
14954,0.041870,-0.161865,1.022339,-2.441406,2.380371,11.962891
14963,0.030884,-0.224487,0.931396,-2.258301,1.892090,11.291504
14973,0.047729,-0.151611,0.998657,-2.746582,1.403809,10.681152
14982,0.056763,-0.150024,0.915771,-3.295898,0.854492,10.131836
14991,0.044434,-0.035645,0.934570,-3.906250,0.732422,9.704590
15002,0.048462,-0.011841,1.022217,-4.150391,0.366211,9.277344
15011,0.033936,-0.123657,0.951904,-4.455566,0.061035,8.911133
15024,-0.024536,-0.103027,0.931763,-4.699707,0.061035,8.300781
15033,0.007813,-0.000366,1.041016,-4.760742,-0.183105,8.178711
15043,-0.003540,-0.046387,1.042603,-4.333496,-0.488281,7.995605
15052,-0.018066,-0.048706,1.063232,-3.662109,-0.854492,8.056641
15062,0.060669,-0.059204,1.077637,-2.807617,-0.671387,7.995605
15071,-0.011230,-0.175049,0.944946,-2.258301,-0.793457,8.300781
15083,0.054321,-0.061401,1.044678,-2.197266,-1.525879,7.385254
15093,0.085693,-0.023926,1.042725,-2.197266,-2.014160,7.202148
15102,0.053101,-0.120239,1.004639,-2.136230,-2.380371,6.591797
15112,0.041992,-0.143311,0.920044,-2.075195,-2.746582,6.225586
15121,0.082764,-0.113647,1.012695,-2.136230,-2.685547,5.737305
15132,0.058228,-0.126221,0.969849,-2.197266,-2.990723,5.310059
15142,0.080688,-0.067505,0.999512,-1.831055,-2.990723,4.821777
15151,0.083252,-0.176636,0.909912,-1.403809,-3.356934,4.455566
15163,0.010620,-0.245605,0.898682,-0.793457,-3.723145,3.112793
15172,0.028809,-0.044556,0.969482,-0.793457,-5.249023,2.136230
15182,0.047852,-0.166138,0.950684,-0.610352,-5.310059,2.075195
15192,0.046387,-0.089233,0.941772,-0.854492,-5.065918,2.136230
15201,0.030151,-0.093628,0.883545,-1.037598,-5.004883,2.502441
15212,0.028320,-0.115723,0.929810,-1.220703,-4.882812,2.685547
15221,0.003052,-0.165039,0.923340,-1.525879,-4.943848,2.685547
15234,-0.022461,-0.094238,0.960449,-2.563477,-4.821777,2.685547
15244,-0.033691,-0.063232,0.881958,-3.051758,-4.943848,2.319336
15253,-0.016357,-0.029419,1.015259,-3.295898,-4.943848,1.953125
15263,-0.053223,-0.174316,0.938477,-3.051758,-4.943848,1.953125
15273,-0.027588,0.008667,1.071167,-3.356934,-4.699707,1.770020
15282,-0.002441,-0.081055,1.067017,-2.929688,-3.967285,1.708984
15292,-0.031982,-0.067627,1.015503,-2.563477,-3.967285,1.525879
15302,0.004150,-0.189331,1.081177,-1.525879,-4.211426,0.549316
15311,0.033447,-0.268921,1.008423,-1.403809,-4.455566,0.000000
15322,0.028076,-0.266602,0.983154,-1.098633,-4.577637,-0.183105
15332,0.064209,-0.119141,0.989258,-1.281738,-4.943848,-0.610352
15341,0.047852,-0.193481,1.034790,-1.464844,-4.821777,-0.732422
15352,-0.004883,-0.103027,1.031372,-1.464844,-5.126953,-0.793457
15361,-0.010376,-0.138550,1.055298,-1.098633,-5.126953,-0.732422
15371,-0.020996,-0.218872,0.918945,-0.793457,-4.394531,-1.403809
15383,0.032227,-0.178589,1.013428,-1.403809,-4.516602,-1.953125
15392,-0.026978,-0.169312,0.978638,-1.342773,-4.821777,-2.502441
15402,0.013428,-0.131958,1.073120,-1.953125,-4.638672,-3.051758
15412,-0.009766,-0.157104,1.004883,-2.136230,-4.455566,-3.784180
15421,-0.014282,-0.036743,1.006714,-1.892090,-4.394531,-4.760742
15432,-0.015137,-0.209473,0.928711,-1.770020,-4.821777,-5.554199
15441,-0.010010,-0.111328,0.963135,-2.380371,-4.394531,-6.713867
15451,0.003662,-0.092896,0.970459,-3.051758,-4.333496,-6.958008
15461,-0.020874,-0.060669,0.934937,-2.929688,-4.089355,-6.774902
15472,-0.011841,-0.150757,0.914062,-2.685547,-3.540039,-6.652832
15481,0.012695,-0.085083,0.983398,-2.685547,-3.295898,-6.530762
15491,-0.004272,-0.184326,0.880615,-2.563477,-3.051758,-6.225586
15502,0.014893,-0.088745,0.954102,-2.502441,-2.929688,-6.164551
15511,0.001099,-0.259155,0.822388,-2.197266,-2.685547,-5.859375
15521,0.068604,-0.064697,0.925293,-2.685547,-2.746582,-5.737305
15531,0.001953,-0.081055,0.930542,-3.051758,-2.624512,-5.554199
15541,0.046509,0.005249,1.108032,-3.051758,-2.380371,-5.126953
15551,-0.007935,-0.166138,0.975952,-2.685547,-2.075195,-4.577637
15561,-0.019165,0.031616,1.067871,-2.319336,-2.014160,-4.333496
15571,-0.041626,-0.105591,1.002563,-2.014160,-2.136230,-3.845215
15581,-0.067139,-0.091675,0.939697,-1.953125,-1.831055,-3.234863
15593,-0.025635,-0.177246,0.817993,-1.647949,-1.464844,-2.990723
15602,-0.010742,-0.054687,0.917480,-1.831055,-1.220703,-2.441406
15612,-0.005249,-0.140991,0.891479,-2.624512,-0.671387,-1.464844
15621,-0.012817,0.000122,1.039673,-2.990723,-0.427246,-1.098633
15631,-0.010498,-0.137085,0.973022,-3.417969,-0.244141,-0.915527
15641,-0.081787,-0.093872,1.011108,-3.845215,-0.488281,-0.976562
15651,-0.066528,-0.083130,1.009155,-3.906250,-0.366211,-1.220703
15663,-0.006226,-0.036621,1.049927,-3.845215,-0.183105,-1.831055
15672,-0.065186,-0.106201,1.016113,-4.211426,-0.305176,-1.953125
15682,-0.027344,0.018188,1.079956,-4.150391,0.122070,-1.892090
15691,-0.024292,-0.065063,1.011597,-3.784180,0.671387,-1.220703
15701,-0.043213,-0.081055,0.999023,-3.540039,1.037598,-1.037598
15711,-0.000977,-0.085449,0.998047,-3.601074,0.976562,-0.976562
15722,-0.021851,-0.117188,0.984497,-3.540039,0.549316,-1.403809
15732,-0.037842,-0.158691,0.903320,-3.356934,0.488281,-1.770020
15742,0.028320,0.011230,0.987427,-3.417969,0.793457,-1.770020
15751,0.051025,-0.103638,0.963135,-3.540039,1.159668,-1.586914
15761,0.003418,-0.049316,1.050659,-3.723145,1.037598,-1.831055
15770,-0.003296,-0.008789,1.093140,-3.845215,0.976562,-2.014160
15781,0.001343,-0.076782,1.013306,-3.417969,1.037598,-1.892090
15791,0.010742,-0.017090,1.088989,-2.807617,0.610352,-2.807617
15802,0.033081,-0.072388,0.997314,-1.953125,0.244141,-2.929688
15812,0.103638,-0.185181,0.939575,-1.403809,0.305176,-2.929688
15821,0.087036,-0.096436,0.969238,-1.098633,0.244141,-3.051758
15831,0.090698,-0.148926,0.972656,-0.976562,-0.061035,-3.112793
15840,0.048340,-0.158203,0.870239,-0.915527,0.000000,-3.601074
15851,0.108154,-0.073120,1.014893,-0.915527,-0.244141,-4.333496
15861,0.066284,-0.274658,0.961304,-0.732422,-0.915527,-5.249023
15870,0.055298,-0.079346,1.011353,-0.732422,-2.075195,-6.896973
15881,0.020630,-0.113281,0.942749,-1.281738,-2.380371,-7.446289
15891,0.078979,-0.143555,0.943970,-1.159668,-2.380371,-7.446289
15900,0.013428,-0.169556,0.892090,-1.525879,-2.075195,-7.019043
15911,0.017578,-0.056763,0.959351,-1.831055,-1.464844,-6.591797
15921,0.025269,-0.119385,0.941162,-1.831055,-1.342773,-6.408691
15930,0.012451,0.055664,1.039673,-1.525879,-1.281738,-6.591797
15942,-0.025146,-0.099731,0.957886,-0.793457,-0.976562,-6.652832
15952,0.023804,-0.160156,0.986450,-0.122070,-0.793457,-7.019043
15961,0.031616,-0.234131,0.938721,-0.122070,-1.098633,-7.202148
15971,0.054321,-0.078125,1.008545,-0.671387,-1.159668,-7.446289
15980,0.064697,-0.237061,0.941772,-1.159668,-1.159668,-7.690430
15991,0.062378,-0.061401,1.019897,-1.708984,-1.220703,-7.751465
16000,0.033203,-0.200317,1.030640,-1.770020,-1.342773,-7.751465
16012,-0.014648,0.005615,1.097534,-1.953125,-1.098633,-7.751465
16022,-0.007446,-0.130371,1.061646,-1.708984,-0.427246,-7.751465
16031,-0.045288,-0.120728,1.066040,-1.342773,-0.488281,-7.751465
16041,-0.029053,-0.133423,1.013794,-0.976562,0.061035,-7.568359
16051,-0.052246,-0.207886,0.947998,-0.793457,0.671387,-7.202148
16060,-0.039307,-0.060303,0.998779,-0.793457,1.159668,-6.713867
16071,-0.083374,-0.142456,1.029785,-0.732422,1.159668,-6.347656
16080,-0.075806,-0.161621,0.921387,-0.976562,2.319336,-5.371094
16090,-0.102051,-0.031372,0.893921,-1.037598,2.807617,-4.638672
16101,-0.102783,-0.058472,1.000732,-1.403809,3.295898,-4.028320
16110,-0.137085,-0.055786,0.988403,-2.014160,4.089355,-2.929688
16120,-0.135742,0.047485,0.988281,-2.502441,4.882812,-1.892090
16130,-0.136597,0.096069,1.042114,-2.563477,5.493164,-0.915527
16142,-0.118286,-0.121094,0.912964,-2.014160,7.202148,2.197266
16152,-0.122925,-0.175171,0.935425,-1.953125,7.873535,3.417969
16161,-0.145996,-0.034424,0.973877,-2.014160,8.300781,4.394531
16171,-0.070679,-0.112183,0.989258,-1.770020,8.728027,5.554199
16181,-0.089478,-0.129028,0.910278,-1.525879,9.155273,6.835937
16190,-0.058594,-0.024658,0.998047,-1.281738,9.338379,8.117676
16200,-0.031250,-0.202881,0.922485,-1.037598,9.521484,9.338379
16210,-0.025757,-0.017578,1.035156,-0.976562,9.704590,10.681152
16220,-0.041748,-0.148926,1.006592,-0.976562,9.216309,12.634277
16230,0.003174,-0.123291,0.970459,-1.342773,8.972168,13.488770
16240,0.031982,-0.135864,1.024536,-1.098633,8.605957,14.648438
16250,0.014648,-0.036499,1.063965,-0.854492,8.239746,16.052246
16260,0.046997,-0.041748,1.034668,-0.549316,7.995605,17.028809
16270,0.016357,-0.097290,1.007568,-0.122070,7.873535,18.188477
16280,0.064453,0.024048,1.074219,0.061035,7.690430,19.042969
16292,0.052734,-0.138184,0.969116,0.854492,6.347656,19.165039
16302,-0.011597,-0.203247,0.849365,1.098633,5.676270,18.920898
16311,-0.005005,0.092896,1.218506,0.366211,4.882812,18.310547
16321,0.010864,-0.083496,1.016479,0.854492,4.150391,17.944336
16330,-0.014893,-0.056396,1.037964,0.976562,3.723145,17.333984
16340,-0.032471,-0.049194,1.026367,0.549316,3.723145,17.089844
16350,-0.105103,-0.518799,0.655029,1.953125,3.417969,16.601562
16360,-0.008667,-0.247192,0.773193,0.061035,2.929688,13.854980
16371,0.027710,-0.013428,0.894897,-3.112793,1.281738,12.939453
16381,-0.022461,0.084106,0.973511,-2.807617,0.671387,11.962891
16390,0.032959,-0.141602,1.008423,-1.892090,0.732422,11.535645
16400,-0.015137,-0.139038,1.046753,-1.525879,0.976562,11.047363
16410,0.053833,-0.117554,1.171021,-1.464844,0.854492,10.314941
16420,-0.016968,-0.260132,0.971313,-1.525879,0.427246,9.338379
16432,0.036377,-0.205078,0.907715,-1.098633,-1.098633,7.568359
16442,0.075562,-0.118286,0.914185,-0.732422,-1.464844,7.080078
16451,0.033813,-0.253296,0.891113,-0.732422,-2.136230,6.774902
16461,0.067871,-0.209106,0.875122,-1.708984,-2.380371,6.164551
16470,0.051880,-0.005005,1.009277,-2.929688,-2.441406,6.164551
16480,0.001587,-0.131348,0.967407,-2.746582,-2.502441,5.920410
16490,-0.018188,-0.127319,1.045166,-2.014160,-2.685547,5.371094
16500,-0.014160,-0.164185,1.036743,-1.403809,-2.624512,3.784180
16510,-0.056519,-0.172485,1.029907,-0.549316,-2.563477,2.746582
16520,-0.064209,-0.266968,0.951782,-0.610352,-2.624512,2.075195
16530,-0.007446,-0.139404,0.915283,-0.915527,-2.807617,1.037598
16540,-0.027710,-0.266602,0.874878,-0.854492,-2.807617,0.427246
16550,-0.009644,-0.191895,0.795288,-1.220703,-2.746582,-0.366211
16559,0.022095,-0.187378,0.892578,-2.258301,-2.624512,-1.098633
16572,0.036987,-0.034668,0.979248,-5.065918,-2.014160,-2.014160
16582,0.020142,-0.097534,0.944092,-5.859375,-1.892090,-2.258301
16592,0.007690,-0.032715,1.060669,-6.042480,-1.953125,-2.685547
16601,-0.010498,-0.039551,1.058105,-5.737305,-2.075195,-2.807617
16611,-0.017944,-0.014771,1.086792,-5.432129,-2.319336,-2.929688
16621,0.016968,-0.094116,1.088135,-4.943848,-2.380371,-2.746582
16631,0.008423,-0.278809,0.986450,-4.394531,-1.953125,-2.319336
16641,0.055420,-0.026001,0.999146,-5.554199,-1.831055,-1.708984
16650,0.055420,-0.026001,0.999146,-5.554199,-1.647949,-1.403809
16659,0.098755,0.062012,1.013672,-6.408691,-2.014160,-1.403809
16670,0.120972,0.087402,1.021118,-7.263184,-2.319336,-2.014160
16679,0.054810,0.041504,1.044556,-5.737305,-2.868652,-2.990723
16689,0.044189,-0.135742,0.967529,-3.906250,-3.234863,-4.272461
16700,0.019287,-0.148560,0.983887,-3.112793,-3.723145,-5.554199
16709,0.049927,-0.083618,1.078125,-2.746582,-4.211426,-6.774902
16721,0.059814,-0.011597,1.002686,-3.479004,-4.089355,-8.178711
16731,0.001465,-0.091431,0.932129,-3.784180,-3.662109,-8.483887
16740,0.046265,-0.042358,0.907837,-4.028320,-3.295898,-8.911133
16750,0.002319,0.003540,0.983887,-3.417969,-2.868652,-9.216309
16760,-0.000610,-0.144897,0.927124,-3.112793,-2.685547,-9.643555
16769,-0.048584,0.075195,1.033325,-3.479004,-2.563477,-9.948730
16779,-0.015381,-0.038696,1.064575,-2.868652,-2.441406,-9.887695
16789,-0.108521,-0.115601,0.999878,-1.281738,-1.403809,-9.704590
16800,-0.061768,-0.120850,1.061523,-0.305176,-0.549316,-8.911133
16810,-0.014648,-0.136963,1.016479,0.061035,0.122070,-7.690430
16819,-0.069458,-0.064819,1.036377,-0.305176,0.915527,-6.835937
16830,-0.009277,-0.103882,1.027588,-0.549316,1.342773,-5.737305
16840,-0.071777,-0.023071,1.039795,-0.122070,1.708984,-4.699707
16849,-0.058716,-0.071777,0.982056,0.366211,2.075195,-3.845215
16861,-0.039185,-0.140259,0.923340,0.915527,3.112793,-2.441406
16871,-0.004272,-0.216919,0.809937,0.793457,3.356934,-1.953125
16880,-0.056274,-0.163818,0.840942,-0.061035,3.601074,-1.464844
16890,0.013550,-0.091187,0.824951,-1.159668,3.967285,-1.098633
16900,-0.022949,0.009033,0.943970,-1.892090,3.845215,-1.037598
16910,-0.017944,-0.141846,0.853271,-2.136230,3.662109,-0.732422
16920,-0.143921,0.022583,1.015381,-2.319336,4.150391,0.610352
16931,-0.119995,0.031372,1.006470,-1.586914,5.249023,2.258301
16941,-0.026855,0.064209,1.098511,-1.037598,6.774902,4.577637
16950,-0.058960,-0.064331,0.994629,-0.366211,7.873535,7.385254
16960,-0.033203,0.065918,1.089233,0.305176,8.483887,9.765625
16970,-0.046631,-0.129150,1.033813,0.793457,8.666992,11.962891
16979,-0.082397,-0.171753,0.927124,1.037598,8.850098,13.793945
16990,-0.021484,-0.061768,1.051880,1.220703,8.483887,15.136719
16999,0.008789,-0.249878,0.920044,0.366211,7.629395,17.211914
17010,-0.039795,-0.232544,0.987061,0.244141,7.263184,18.005371
17020,-0.044800,-0.230347,0.910645,0.061035,7.141113,18.676758
17029,-0.010254,-0.071167,1.012451,-0.366211,7.446289,19.165039
17040,0.012695,-0.222046,0.956665,-0.305176,7.263184,19.592285
17049,-0.059570,-0.119507,1.070923,-0.671387,7.202148,19.714355
17059,-0.057983,-0.122437,1.052246,-0.671387,6.713867,19.348145
17069,-0.052856,-0.137939,1.025879,0.000000,5.371094,18.554687
17080,-0.065552,-0.164917,1.054321,0.366211,5.249023,18.310547
17090,0.007813,-0.140869,0.996948,0.122070,4.760742,18.005371
17099,0.036011,-0.060303,1.057129,-0.488281,4.333496,17.700195
17109,0.077515,-0.149902,1.012207,-0.610352,4.028320,17.700195
17119,-0.001465,-0.204346,0.950195,-0.854492,3.417969,17.822266
17129,0.065063,-0.237793,0.889282,-1.708984,2.807617,17.517090
17141,0.124512,-0.099121,1.040283,-2.868652,1.586914,17.089844
17151,0.045044,-0.176514,0.937744,-3.234863,0.854492,17.028809
17160,0.089722,0.014038,1.018188,-4.028320,0.427246,16.723633
17170,0.082275,-0.040527,1.053467,-4.028320,0.000000,16.296387
17179,0.079590,-0.080811,1.051147,-3.051758,-0.366211,15.258789
17189,0.021240,-0.103149,1.011719,-2.441406,-1.159668,14.404297
17199,0.045410,-0.102905,0.898193,-2.197266,-1.647949,13.549805
17209,0.040405,-0.054321,0.992554,-0.122070,-2.624512,12.023926
17220,0.013062,-0.127197,0.912354,0.366211,-3.295898,11.230469
17230,0.049683,-0.269409,0.824585,0.305176,-3.784180,10.559082
17239,0.019531,-0.187256,0.882324,-0.366211,-4.333496,9.643555
17249,0.048950,-0.113525,0.863892,-0.976562,-5.065918,8.422852
17259,0.051147,-0.232178,0.771240,-1.770020,-5.126953,7.629395
17269,0.033325,-0.106567,0.891113,-3.051758,-5.615234,6.958008
17281,0.020996,0.051147,0.995972,-4.760742,-5.798340,5.615234
17291,0.025391,-0.077026,1.010742,-5.310059,-6.103516,5.249023
17300,-0.039795,0.027100,1.054810,-5.554199,-6.164551,4.333496
17310,0.019897,0.023071,1.056396,-5.554199,-5.798340,4.089355
17319,0.001709,-0.131226,1.040894,-5.310059,-5.371094,3.967285
17329,0.000732,-0.049316,1.043091,-4.882812,-5.310059,3.662109
17339,0.011963,-0.172607,0.965332,-4.516602,-5.371094,3.234863
17349,0.014160,-0.056152,1.006714,-4.760742,-6.347656,2.075195
17360,0.053955,-0.130371,1.015991,-4.577637,-6.958008,1.708984
17370,0.112305,-0.125610,0.974487,-4.577637,-7.080078,1.281738
17379,0.043579,-0.113525,0.991699,-4.699707,-7.263184,0.976562
17389,0.171021,-0.003296,1.067505,-4.882812,-7.751465,0.366211
17398,0.107544,-0.131104,1.045654,-4.760742,-7.873535,-0.183105
17409,0.123901,-0.048706,1.043945,-4.760742,-8.239746,-1.220703
17419,0.104492,-0.061279,1.114990,-4.699707,-9.826660,-3.173828
17429,0.066284,-0.141235,1.118164,-4.089355,-10.070801,-4.028320
17438,0.098877,-0.093140,1.041870,-3.906250,-10.437012,-4.638672
17449,0.082031,-0.025635,0.994629,-3.662109,-10.314941,-5.249023
17458,0.074585,-0.013550,1.086548,-2.990723,-10.192871,-5.676270
17469,0.077637,-0.229126,0.892944,-1.953125,-10.314941,-6.347656
17479,0.070435,-0.099121,0.979126,-1.647949,-10.498047,-7.263184
17488,0.079590,-0.199829,0.904663,-1.953125,-10.803223,-8.178711
17498,0.014282,-0.044434,1.012207,-2.075195,-11.413574,-10.498047
17509,-0.028687,-0.148315,0.964600,-1.953125,-11.230469,-11.230469
17518,-0.011719,0.066528,1.094116,-1.770020,-10.925293,-11.535645
17529,-0.011841,-0.161133,1.018921,-0.915527,-10.314941,-11.474609
17538,-0.058228,-0.169312,1.014160,-0.366211,-9.826660,-11.291504
17549,-0.003906,-0.049072,1.064697,-0.244141,-9.338379,-11.230469
17559,-0.055908,-0.196289,1.020874,0.488281,-8.056641,-10.742188
17568,-0.031982,-0.089844,1.049927,0.854492,-7.751465,-10.681152
17579,-0.036377,-0.118774,0.996582,1.647949,-7.568359,-10.375977
17589,-0.084595,-0.127930,0.980225,2.624512,-6.896973,-10.131836
17598,-0.046265,-0.166504,1.014648,3.417969,-6.530762,-10.070801
17609,-0.068481,-0.105103,0.995361,3.906250,-6.164551,-9.826660
17619,-0.018066,-0.113037,1.005981,4.638672,-5.554199,-9.338379
17628,-0.015259,-0.196899,0.968750,5.187988,-5.065918,-8.728027
17640,0.002930,-0.168213,0.994507,5.004883,-3.784180,-7.385254
17649,0.014893,-0.246338,0.928589,4.699707,-3.356934,-6.835937
17659,-0.015991,-0.043701,0.958130,3.845215,-3.234863,-6.530762
17669,-0.067871,-0.069702,0.981567,3.662109,-3.051758,-6.408691
17678,-0.028931,-0.201172,0.908813,4.211426,-2.990723,-6.469727
17689,-0.038086,-0.065186,0.973267,4.272461,-2.807617,-6.225586
17699,-0.056519,-0.194824,0.953613,4.272461,-2.441406,-5.249023
17708,-0.046875,-0.284668,0.912109,3.723145,-2.075195,-4.394531
17718,-0.003174,-0.221191,0.942749,3.295898,-2.014160,-3.295898
17729,-0.021973,-0.151245,0.847778,2.746582,-1.831055,-2.136230
17738,-0.001465,-0.191284,0.856201,1.953125,-1.098633,-0.976562
17748,-0.010864,-0.243530,0.826904,0.976562,-0.793457,-0.244141
17758,0.026367,0.054199,1.034180,-0.366211,-0.671387,0.061035
17768,0.007690,-0.186890,1.036743,-1.159668,-1.220703,0.305176
17778,-0.080933,-0.082031,0.932495,-0.854492,-1.403809,-0.061035
17788,-0.015869,-0.206421,0.917358,-1.098633,-1.586914,-0.488281
17799,0.015259,-0.043579,1.030273,-1.220703,-2.014160,-1.037598
17808,0.025513,-0.060181,1.035889,-0.976562,-2.258301,-1.464844
17818,0.014038,-0.188965,0.942505,-1.342773,-2.624512,-2.014160
17829,0.027222,-0.014404,1.038330,-1.892090,-2.685547,-2.380371
17838,0.065796,-0.039917,1.058350,-1.892090,-2.441406,-2.868652
17848,0.042236,-0.064453,1.056030,-2.136230,-2.807617,-5.310059
17860,0.003418,-0.142578,1.002686,-2.197266,-3.540039,-6.958008
17869,0.021851,-0.056519,1.000488,-2.502441,-4.272461,-8.728027
17879,0.047607,-0.196289,0.941772,-2.746582,-4.699707,-10.437012
17888,0.039307,-0.086426,0.887817,-3.417969,-5.004883,-11.779785
17899,0.072266,-0.032593,0.992065,-4.394531,-5.004883,-12.817383
17908,0.018555,-0.060303,0.885742,-5.065918,-4.821777,-13.610840
17918,0.041748,0.164673,1.080688,-5.371094,-4.028320,-15.197754
17930,-0.041748,0.016968,1.051880,-5.493164,-3.967285,-16.235352
17939,-0.031616,-0.028809,1.109253,-5.126953,-3.540039,-16.967773
17949,-0.039673,-0.117798,1.015991,-4.699707,-3.479004,-17.578125
17959,-0.040771,-0.059814,1.068481,-4.577637,-3.356934,-18.249512
17968,-0.034424,-0.109497,0.955078,-4.455566,-2.746582,-18.249512
17978,0.023804,-0.043823,1.011108,-4.638672,-2.319336,-17.761230
17990,-0.006714,-0.039185,1.010132,-4.211426,-1.831055,-16.052246
17999,-0.042236,-0.082031,0.992187,-4.150391,-0.305176,-14.953613
18009,-0.032837,-0.057129,1.018799,-3.906250,0.183105,-14.465332
18019,-0.046753,-0.007690,1.096191,-3.295898,0.549316,-14.099121
18029,-0.104614,-0.154907,0.969971,-2.380371,0.915527,-13.427734
18038,-0.074341,-0.070312,1.005859,-1.831055,1.281738,-13.305664
18048,-0.023804,-0.096558,0.942749,-1.281738,1.647949,-12.756348
18058,-0.052612,-0.042969,0.961304,-0.061035,2.441406,-10.437012
18069,-0.078247,-0.145020,0.845215,0.061035,3.479004,-9.155273
18079,-0.033447,-0.042480,0.959106,-0.122070,4.089355,-7.812500
18089,-0.075562,-0.170288,0.895386,0.122070,4.699707,-6.958008
18099,-0.104126,-0.010132,0.986206,-0.183105,5.126953,-5.981445
18108,-0.105103,-0.096069,0.975098,-0.183105,5.859375,-4.760742
18118,-0.067871,-0.001831,0.989868,-0.305176,6.103516,-3.784180
18128,-0.100342,0.043579,1.079956,1.037598,7.141113,-1.220703
18137,-0.093872,-0.192505,1.011719,1.098633,7.507324,-0.183105
18148,-0.013794,-0.155518,1.002075,1.464844,7.873535,0.793457
18158,-0.096558,-0.174072,0.973022,1.586914,8.117676,2.075195
18168,-0.066772,-0.151001,0.967773,1.647949,8.239746,3.356934
18178,-0.088989,-0.215698,0.887451,1.159668,8.544922,4.638672
18187,0.001953,-0.062622,0.973389,0.732422,8.666992,5.737305
18200,-0.074341,-0.154297,0.932983,0.061035,9.033203,7.690430
18209,-0.064209,-0.089600,0.949097,-0.671387,8.728027,8.056641
18219,-0.040527,-0.128540,0.927490,-1.159668,8.544922,8.483887
18228,-0.025146,-0.163330,1.011230,-1.403809,8.605957,8.728027
18238,-0.091919,-0.171997,0.874146,-1.831055,8.300781,9.094238
18248,0.006714,-0.023926,1.012939,-2.014160,8.178711,9.460449
18257,-0.023926,-0.194946,0.935303,-1.831055,8.117676,10.009766
18270,-0.040771,-0.097412,1.015259,-2.319336,7.934570,11.169434
18285,0.009277,-0.131836,0.956787,-2.197266,7.446289,11.352539
18294,0.001953,-0.081787,1.088989,-1.464844,6.835937,10.742188
18304,-0.003418,-0.271606,0.943359,-1.647949,6.408691,10.437012
18313,0.060059,-0.125000,0.986450,-1.708984,5.920410,10.131836
18323,0.033936,-0.159180,0.975220,-2.136230,5.310059,9.521484
18332,0.028809,-0.003540,1.056274,-2.502441,4.760742,8.728027
18342,0.020020,-0.180664,0.965210,-2.441406,4.211426,8.117676
18351,0.013672,-0.016113,0.972778,-2.685547,4.028320,7.507324
18360,0.031494,-0.110107,0.985107,-2.319336,3.662109,7.080078
18370,0.003418,-0.080078,0.953735,-2.685547,3.234863,6.042480
18379,0.042725,-0.008057,1.015015,-3.173828,2.624512,5.310059
18389,0.016846,-0.098633,0.997192,-3.051758,2.075195,4.577637
18398,0.044189,-0.007690,1.005127,-2.807617,1.892090,3.845215
18407,0.037231,-0.135498,1.011597,-2.441406,1.647949,2.685547
18419,0.001343,-0.043701,1.078369,-2.502441,1.037598,1.831055
18428,0.022949,-0.108643,1.036499,-2.624512,0.976562,1.098633
18438,-0.020142,-0.125488,1.034912,-2.380371,0.793457,0.610352
18447,-0.004395,-0.199219,0.945190,-2.380371,0.366211,0.061035
18458,0.020386,-0.067261,1.003052,-2.563477,0.366211,-0.549316
18467,0.079834,-0.126953,0.976562,-2.441406,0.671387,-0.732422
18477,0.025513,-0.067627,1.007568,-2.441406,0.366211,-0.671387
18489,0.043335,-0.102783,0.978638,-2.319336,-0.305176,-0.732422
18498,0.103516,0.022949,1.106201,-2.197266,-0.488281,-0.854492
18507,0.021484,-0.120361,1.032715,-1.647949,-0.793457,-1.037598
18517,0.073853,-0.066528,1.051758,-1.220703,-0.915527,-1.159668
18528,0.110840,-0.069824,1.070923,-0.427246,-0.976562,-1.770020
18537,0.079712,-0.113281,0.933472,0.244141,-1.403809,-2.441406
18547,0.084595,-0.095825,0.994995,1.159668,-1.708984,-3.234863
18559,0.027344,-0.009399,0.951660,1.342773,-3.051758,-4.577637
18568,-0.003662,-0.201538,0.858032,0.488281,-3.173828,-4.821777
18578,0.039917,0.015503,0.942871,0.000000,-2.624512,-4.577637
18587,-0.011963,-0.156372,0.895874,0.183105,-2.197266,-3.784180
18597,-0.031250,-0.103882,0.856567,-0.122070,-1.647949,-2.929688
18608,-0.046753,-0.177124,0.911865,-0.122070,-0.976562,-2.502441
18617,-0.030884,-0.235107,0.942749,-0.671387,-0.732422,-2.075195
18627,-0.079224,-0.186646,0.898560,-2.197266,-0.915527,-2.441406
18637,-0.115723,-0.124146,0.913452,-2.868652,-0.610352,-2.502441
18647,-0.141235,-0.163208,0.923096,-3.173828,-0.244141,-1.892090
18657,-0.067627,0.031494,1.088745,-3.784180,0.366211,-1.586914
18667,-0.103149,-0.129883,0.994995,-3.540039,1.220703,-0.671387
18677,-0.063965,-0.000854,1.136719,-3.234863,1.892090,0.305176
18687,-0.097534,-0.080200,1.064209,-2.624512,2.075195,0.976562
18697,-0.037964,-0.167114,1.007080,-1.220703,2.807617,1.525879
18707,-0.026733,-0.224365,0.866821,-0.915527,2.624512,1.708984
18717,0.017944,-0.093628,1.020996,-1.342773,2.563477,2.014160
18727,-0.007935,-0.264282,0.851440,-1.831055,2.380371,2.563477
18737,-0.005127,-0.056152,0.943359,-2.563477,2.502441,2.990723
18747,-0.042603,-0.200684,0.883545,-2.624512,2.563477,3.845215
18758,-0.055054,-0.186401,0.954346,-3.784180,2.807617,4.211426
18768,-0.066895,-0.053955,1.005249,-4.211426,3.051758,4.089355
18778,-0.103394,-0.022949,1.055542,-4.028320,3.112793,3.967285
18787,-0.121948,-0.122070,0.988403,-3.662109,3.173828,4.089355
18797,-0.089355,-0.093750,1.055664,-3.173828,3.479004,4.089355
18807,-0.061035,-0.179443,0.987305,-2.746582,3.967285,4.516602
18817,-0.080688,-0.076172,1.046509,-2.868652,4.333496,4.821777
18827,-0.042969,-0.059570,1.049683,-3.234863,4.516602,5.187988
18836,-0.007080,-0.086548,1.060791,-2.868652,4.699707,5.859375
18848,0.009277,-0.161255,1.028809,-2.258301,4.516602,6.103516
18858,0.027100,-0.184692,0.935425,-2.014160,4.455566,6.042480
18867,0.098999,-0.233643,0.906616,-2.502441,3.845215,5.920410
18877,0.088013,-0.164795,0.888306,-3.601074,3.295898,5.737305
18887,0.118652,-0.151733,0.866943,-4.760742,2.380371,5.554199
18896,0.082764,-0.109497,0.883057,-5.432129,1.892090,5.493164
18909,0.048950,0.018188,1.002686,-6.103516,1.342773,5.310059
18918,0.019287,0.055786,1.048218,-5.676270,1.037598,5.126953
18927,-0.024536,-0.098633,0.975952,-5.065918,0.610352,4.699707
18937,-0.010010,0.006836,1.087646,-4.272461,0.549316,4.272461
18946,-0.009399,-0.032959,1.047852,-3.295898,0.061035,3.723145
18956,-0.015747,-0.029541,0.989014,-2.136230,-0.244141,3.295898
18967,0.030518,-0.088623,0.987427,-1.281738,-0.305176,2.868652
18976,0.017944,-0.193481,0.855103,-0.732422,0.244141,2.136230
18988,0.036255,-0.246460,0.825317,-1.708984,-0.061035,1.647949
18997,0.062012,-0.013428,0.986816,-2.807617,-0.610352,0.793457
19007,-0.011963,-0.112671,0.880005,-3.417969,-1.403809,-0.610352
19017,0.003174,0.038452,0.988525,-3.723145,-1.220703,-2.075195
19026,-0.022705,-0.143799,0.959229,-3.662109,-1.281738,-2.929688
19036,-0.026611,-0.031738,0.974243,-3.784180,-1.647949,-3.723145
19048,-0.026611,-0.062744,0.999390,-3.356934,-1.220703,-4.455566
19059,-0.016724,-0.030640,1.018188,-2.685547,-0.732422,-4.272461
19068,-0.015747,-0.133179,0.939209,-2.136230,-0.122070,-4.333496
19078,-0.001221,-0.063721,1.030151,-1.647949,0.061035,-4.455566
19087,-0.020264,-0.205444,0.959961,-1.403809,0.244141,-4.577637
19097,-0.028320,-0.034424,1.062744,-2.014160,0.183105,-5.310059
