timestamp,accX,accY,accZ,gyrX,gyrY,gyrZ
10,-0.008057,-0.093628,1.044678,0.427246,3.356934,0.976562
21,-0.026733,-0.142456,1.005859,-0.244141,2.746582,0.610352
30,-0.015991,-0.082764,1.026733,-0.549316,3.173828,0.915527
40,0.007568,-0.008911,0.981812,-0.671387,3.662109,1.342773
50,0.002563,-0.190186,0.899902,-1.220703,3.662109,1.708984
60,-0.009277,-0.137817,0.951538,-2.075195,3.540039,1.586914
70,-0.043091,0.083496,0.979614,-2.929688,3.601074,1.892090
80,-0.031738,-0.013184,0.974976,-2.685547,4.455566,2.014160
90,0.004395,-0.093506,0.964844,-2.502441,4.760742,1.770020
100,0.003052,-0.156372,0.858398,-2.990723,4.272461,1.770020
110,0.014893,0.015503,0.957886,-4.089355,3.662109,2.258301
120,0.010986,-0.054687,1.006836,-4.760742,3.845215,2.807617
130,-0.014648,-0.043701,0.920166,-4.638672,4.028320,3.906250
141,0.016846,-0.180298,0.913574,-4.577637,4.211426,5.493164
151,0.002197,-0.034180,0.950317,-5.187988,3.784180,5.126953
160,-0.014282,0.013184,1.029419,-5.371094,3.051758,4.638672
170,-0.036621,-0.055542,0.975464,-4.943848,2.746582,4.028320
180,-0.026001,0.031250,1.067505,-4.272461,2.990723,3.417969
190,0.000000,0.009644,1.052124,-3.479004,2.929688,2.868652
201,-0.008667,-0.137207,0.995850,-2.624512,2.990723,2.197266
210,0.032104,-0.140137,0.904785,-2.319336,2.502441,1.708984
221,0.064697,-0.135376,0.868408,-2.136230,1.892090,1.403809
230,0.020508,-0.041138,0.973633,-2.014160,1.586914,1.342773
240,-0.014404,-0.166992,0.996094,-2.014160,1.220703,1.342773
250,-0.031860,-0.075684,1.006104,-1.831055,2.014160,1.953125
260,-0.006348,-0.056152,1.044312,-1.831055,2.746582,2.319336
269,-0.009766,-0.243896,0.897095,-1.770020,2.624512,1.892090
281,-0.029297,-0.045410,1.001953,-2.197266,1.831055,0.854492
290,-0.086182,-0.054565,0.966309,-3.051758,1.281738,0.732422
300,0.002563,0.030762,1.074097,-2.746582,2.258301,1.525879
309,-0.036499,-0.053955,1.010010,-2.563477,3.051758,2.563477
319,-0.045166,-0.004761,1.024170,-2.868652,3.112793,2.807617
330,-0.087524,0.016846,1.066284,-2.502441,3.540039,2.136230
340,-0.052002,-0.010620,1.101929,-1.831055,3.723145,0.915527
352,0.051270,-0.067993,0.998535,-1.281738,3.112793,0.183105
361,0.082397,-0.069824,1.021729,-1.647949,2.563477,0.122070
371,0.055786,0.030029,1.067017,-1.892090,2.136230,0.732422
380,0.045898,-0.042358,1.121094,-1.281738,2.502441,1.281738
390,0.031128,-0.034424,1.136353,-0.549316,2.929688,1.525879
400,0.035645,-0.036133,1.135010,0.122070,2.990723,0.793457
411,0.025757,-0.128418,1.071045,0.854492,1.464844,-3.112793
421,0.038086,-0.054810,0.942505,1.647949,0.366211,-4.333496
430,0.040039,-0.088013,0.939697,2.014160,-0.122070,-5.310059
440,0.085083,-0.286499,0.802124,2.014160,-0.244141,-4.638672
449,0.123291,-0.100220,0.884277,1.037598,0.183105,-2.441406
460,0.162842,-0.134644,0.908569,0.122070,0.732422,0.549316
469,0.091919,-0.036255,0.915771,-0.610352,1.159668,3.173828
480,0.104492,0.101685,1.063477,-0.305176,1.098633,5.004883
491,0.093750,-0.016113,1.005371,0.061035,0.915527,6.713867
501,0.140869,0.018433,1.078857,-0.122070,-0.061035,6.164551
510,0.146729,-0.068604,0.891846,-0.244141,-0.610352,5.615234
520,0.020264,0.124390,1.058960,-0.305176,-1.281738,4.699707
529,-0.121216,-0.427490,0.815063,-0.122070,-1.892090,3.967285
540,0.292114,-0.193237,0.838501,-0.915527,-1.098633,3.479004
549,-0.018555,-0.220581,1.035645,-0.061035,-2.685547,2.502441
561,-0.057495,-0.124878,1.235352,0.488281,-3.662109,3.356934
570,-0.183960,-0.030884,1.217773,0.549316,-2.380371,5.676270
580,-0.195435,-0.068481,0.946289,0.000000,-1.403809,7.751465
589,-0.062622,0.099121,0.882690,-0.061035,0.305176,10.620117
600,-0.051514,-0.099243,0.812256,0.610352,1.159668,13.244629
609,0.019287,-0.285767,0.766602,1.586914,1.159668,14.404297
620,0.031982,-0.246704,1.056519,2.441406,0.915527,15.441895
629,-0.015259,-0.383423,1.025024,2.075195,0.183105,15.075684
641,-0.187134,-0.088745,1.012939,0.183105,-0.366211,13.244629
650,-0.218628,-0.376709,0.850830,-0.244141,-1.403809,11.230469
660,-0.088013,-0.180176,0.818970,-1.037598,-1.708984,9.887695
669,-0.012085,-0.038940,1.060425,-1.586914,-1.525879,9.704590
679,0.142578,-0.139282,1.042358,-2.319336,-0.671387,10.864258
690,0.160400,-0.159424,1.031006,-3.234863,0.244141,12.756348
699,0.143188,0.055054,0.994263,-4.882812,-0.915527,13.305664
711,-0.027466,-0.078613,1.035889,-4.882812,-1.953125,11.840820
720,-0.021118,-0.045166,1.182129,-5.065918,-2.868652,10.131836
730,-0.067871,-0.188232,1.129150,-4.821777,-4.028320,8.300781
740,-0.055786,-0.097168,1.077148,-4.577637,-4.821777,6.591797
749,-0.058716,-0.003662,1.077271,-4.211426,-4.882812,5.920410
759,-0.060547,-0.093506,1.012451,-3.662109,-4.760742,6.042480
769,-0.132690,-0.188354,0.971069,-2.807617,-3.112793,8.483887
779,-0.099731,0.041382,1.073364,-2.136230,-1.892090,9.643555
789,-0.131714,-0.232910,0.872192,-1.892090,-1.586914,10.070801
799,-0.109985,-0.134766,0.943359,-1.525879,-1.586914,9.582520
810,-0.014404,-0.148437,0.908081,-1.281738,-2.014160,8.239746
819,-0.014282,-0.197266,0.849121,-1.281738,-2.990723,6.713867
829,-0.033081,-0.034180,0.983398,-1.281738,-3.540039,5.126953
841,-0.056885,-0.167358,0.888306,-1.281738,-2.441406,3.723145
851,-0.029053,0.026245,0.922852,-1.159668,-2.319336,2.563477
861,-0.030762,-0.015381,0.946045,-1.159668,-2.136230,1.708984
870,0.000488,-0.185669,0.957031,-1.403809,-2.258301,0.854492
880,-0.047852,0.039307,1.039307,-1.647949,-2.075195,0.000000
889,-0.051270,0.128540,1.103394,-1.770020,-2.258301,-0.976562
899,-0.053955,-0.117920,0.998901,-1.525879,-2.319336,-1.892090
908,-0.068115,-0.036987,0.970703,-1.281738,-2.441406,-2.990723
920,-0.097534,-0.025024,1.067505,-0.671387,-2.929688,-6.286621
930,-0.004883,-0.080200,1.008667,0.183105,-1.770020,-7.324219
940,0.057251,0.002441,1.061035,0.610352,-1.220703,-8.300781
949,0.061157,-0.218140,0.859741,0.854492,-1.464844,-9.765625
959,0.072021,-0.130249,0.841187,0.122070,-2.136230,-11.230469
969,0.148193,0.012451,0.972656,-0.671387,-2.258301,-11.718750
979,0.063965,-0.197144,0.864380,-0.854492,-2.624512,-10.986328
989,0.055054,-0.104492,0.912720,-1.098633,-2.380371,-10.009766
998,-0.032715,-0.234009,0.887451,-1.586914,-1.647949,-8.666992
1009,-0.026489,-0.054077,0.988159,-2.197266,-1.098633,-7.995605
1019,-0.054321,-0.220581,0.810669,-2.319336,-0.915527,-7.507324
1029,-0.047852,-0.092651,0.824463,-2.807617,-0.305176,-6.896973
1038,-0.003418,-0.115967,0.871338,-3.173828,0.244141,-6.225586
1051,0.003540,0.101929,1.017700,-4.821777,1.464844,-3.784180
1061,-0.012573,0.023193,1.054810,-4.638672,2.319336,-2.685547
1071,-0.051880,-0.177368,0.979980,-4.394531,2.563477,-1.892090
1080,-0.057495,0.040283,1.084839,-4.333496,2.807617,-1.464844
1089,-0.023682,-0.019897,1.080322,-4.272461,2.502441,-1.098633
1099,0.021606,-0.199097,0.951660,-4.394531,2.319336,-0.610352
1108,0.023315,0.031738,1.060913,-4.333496,2.075195,0.183105
1120,0.021118,0.044312,1.076904,-3.723145,2.380371,2.258301
1129,0.022949,-0.001831,1.037476,-3.417969,2.502441,2.563477
1139,0.003296,-0.067383,1.106689,-3.112793,2.807617,2.746582
1148,0.005615,-0.207520,0.993896,-2.807617,2.624512,2.258301
1159,-0.001953,-0.086426,1.035645,-2.929688,2.075195,1.098633
1168,0.103760,-0.128784,1.006958,-2.868652,1.586914,0.061035
1179,0.082397,-0.179199,0.924316,-2.868652,0.793457,-0.793457
1188,0.144897,-0.039185,0.993408,-3.112793,0.305176,-1.220703
1200,0.144287,-0.193481,0.940674,-3.845215,-0.305176,-0.488281
1210,0.149780,-0.008545,1.049194,-4.455566,-0.488281,0.366211
1219,0.134277,-0.282349,0.991211,-4.211426,-0.549316,1.525879
1229,0.093140,-0.258789,0.944702,-4.333496,-0.915527,1.831055
1238,0.052856,-0.001221,1.078613,-4.211426,-1.464844,1.586914
1249,-0.033203,-0.203491,1.050415,-3.967285,-2.136230,0.671387
1259,-0.038208,-0.232300,0.966797,-3.662109,-2.075195,-0.732422
1268,-0.028076,-0.054321,1.003662,-1.831055,-2.258301,-2.563477
1279,-0.007935,-0.482178,0.845703,-1.586914,-2.136230,-3.234863
1288,0.052002,-0.153564,0.965820,-2.258301,-2.075195,-3.845215
1299,0.027466,-0.020386,0.994263,-3.051758,-2.441406,-4.028320
1309,0.027588,-0.178345,0.882202,-2.868652,-2.441406,-4.333496
1318,0.035156,-0.046875,0.870605,-2.502441,-2.197266,-4.760742
1330,0.073975,-0.026489,0.937866,-1.892090,-2.685547,-4.699707
1340,0.043335,-0.029663,0.994507,-1.892090,-3.234863,-4.638672
1349,0.027832,0.052612,1.056885,-1.342773,-3.295898,-4.211426
1359,0.044067,-0.052979,1.048462,-0.671387,-3.356934,-3.479004
1368,0.065918,-0.142456,1.011719,-0.366211,-2.929688,-2.441406
1378,0.040039,-0.030762,1.002808,-0.488281,-2.807617,-1.403809
1389,-0.002563,0.054077,1.052612,-0.488281,-2.563477,0.183105
1398,0.012573,0.010376,1.063477,-0.671387,-2.502441,1.464844
1408,-0.076416,-0.056152,1.003052,0.061035,-1.586914,3.356934
1420,-0.073608,0.000732,1.040161,0.122070,-1.464844,3.967285
1429,-0.031494,-0.163574,1.023071,0.183105,-1.159668,4.211426
1439,-0.110352,-0.165527,0.992432,-0.183105,-1.159668,3.967285
1448,-0.139160,0.072021,1.072510,-0.610352,-1.098633,3.723145
1458,-0.165039,0.076904,1.112793,-0.732422,-1.037598,3.479004
1469,-0.142090,-0.005127,1.107788,-0.305176,-0.671387,3.295898
1478,-0.120728,-0.015869,1.092041,1.098633,0.549316,3.173828
1489,-0.091187,-0.098877,1.017212,1.281738,0.122070,3.051758
1498,-0.003174,-0.174438,0.983643,1.220703,-0.183105,2.929688
1508,0.006836,-0.278198,0.902832,0.671387,-0.610352,2.624512
1518,0.073853,-0.033447,0.940063,0.000000,-0.854492,2.380371
1528,0.091675,-0.145508,0.913574,-0.366211,-0.732422,2.197266
1538,0.063110,-0.190552,0.873413,-0.915527,-0.671387,1.586914
1550,0.061523,-0.061279,1.056519,-1.831055,-0.976562,0.244141
1559,0.028687,-0.117920,1.023926,-1.647949,-2.197266,-0.427246
1569,0.005615,-0.073608,1.039063,-0.732422,-2.319336,-0.915527
1578,0.022583,0.012573,1.076294,0.061035,-2.502441,-1.464844
1588,0.072021,-0.135010,1.031250,0.732422,-2.990723,-1.892090
1598,0.044067,-0.295654,0.921997,1.464844,-3.173828,-1.647949
1608,0.065308,-0.124268,0.913330,1.892090,-3.295898,-1.159668
1618,0.107422,-0.078491,0.900391,2.197266,-3.479004,-0.244141
1628,0.114990,-0.286255,0.872070,1.525879,-3.662109,-0.427246
1638,0.090454,-0.075928,0.952881,0.427246,-4.028320,-1.525879
1648,0.040283,-0.187378,0.926758,-0.305176,-4.638672,-3.173828
1658,0.020264,-0.217896,0.895508,-0.854492,-5.493164,-4.943848
1668,0.006348,-0.077759,0.990845,-1.098633,-6.103516,-6.713867
1678,0.038452,0.081787,1.043213,-1.525879,-6.774902,-8.422852
1690,0.017700,-0.161011,1.001465,-1.037598,-6.530762,-10.070801
1700,0.046509,-0.006592,0.990845,-1.281738,-5.920410,-10.620117
1710,0.061035,-0.085693,0.979980,-1.708984,-5.737305,-10.620117
1719,0.051270,-0.155273,0.986938,-2.014160,-5.432129,-10.803223
1729,0.057739,-0.037476,1.084106,-2.197266,-5.249023,-11.047363
1739,0.068848,-0.009399,1.120361,-2.075195,-5.187988,-11.657715
1749,0.013184,-0.218262,1.072998,-1.892090,-5.554199,-13.366699
1759,0.004883,-0.190674,1.052734,-2.014160,-6.042480,-13.977051
1768,0.076904,0.023926,1.171509,-2.136230,-5.920410,-14.160156
1778,-0.001221,-0.083374,1.040771,-1.525879,-5.615234,-13.671875
1787,0.022705,-0.113403,0.969849,-1.098633,-4.882812,-12.695313
1798,0.011108,-0.103394,0.971069,-0.732422,-3.967285,-11.596680
1808,-0.047729,-0.061279,0.972046,-0.671387,-3.417969,-10.681152
1818,-0.006348,-0.122925,0.954346,-0.610352,-2.868652,-10.253906
1828,-0.061157,-0.189453,0.943481,-0.732422,-2.807617,-10.070801
1837,-0.095947,-0.116943,0.923218,-0.610352,-2.624512,-10.192871
1848,-0.102051,-0.086182,0.965454,-0.488281,-1.892090,-10.070801
1858,-0.122925,-0.145996,0.991699,-0.671387,-1.159668,-9.826660
1868,-0.129028,-0.010376,1.109497,-0.854492,-0.488281,-9.216309
1877,-0.085937,0.101807,1.179565,-0.549316,0.488281,-8.239746
1888,-0.158691,0.054565,1.097900,0.732422,1.586914,-7.202148
1897,-0.112549,-0.256348,0.802368,2.319336,2.319336,-6.347656
1909,0.020996,-0.094727,0.833008,-0.122070,3.540039,-4.089355
1918,-0.053955,-0.153442,0.691284,-2.075195,3.601074,-2.807617
1928,0.034058,0.173584,0.893311,-3.723145,3.662109,-1.770020
1937,0.001831,0.057861,0.766968,-3.479004,4.577637,0.610352
1948,-0.096802,-0.165649,0.797485,-3.112793,4.882812,1.647949
1957,-0.037109,0.000366,1.114624,-3.845215,4.638672,1.464844
1969,-0.027222,0.141479,1.262207,-4.028320,3.112793,0.427246
1978,-0.013672,-0.147461,0.979492,-2.380371,2.746582,0.183105
1987,-0.015015,-0.178345,0.874756,-1.220703,3.417969,0.793457
1998,0.036499,-0.071777,0.987915,-1.525879,3.723145,2.197266
2007,0.013916,-0.131958,0.961304,-2.075195,3.906250,3.662109
2018,0.003052,-0.088867,0.908936,-3.051758,4.150391,5.004883
2028,-0.020752,0.051270,0.960083,-4.028320,4.333496,5.737305
2037,-0.079834,-0.095825,0.932739,-3.845215,4.272461,5.859375
2049,-0.121826,0.054443,1.185791,-4.089355,3.112793,3.295898
2058,-0.088989,0.092285,1.213257,-4.455566,2.563477,2.075195
2068,-0.119507,-0.057129,1.131470,-3.662109,2.441406,1.159668
2077,-0.085937,-0.146240,0.993286,-2.746582,3.112793,1.037598
2087,-0.080078,-0.048218,0.950195,-2.258301,3.845215,1.525879
2098,-0.017944,-0.045288,0.979614,-2.380371,4.333496,2.319336
2107,0.016357,-0.262451,0.924927,-3.173828,4.333496,2.807617
2119,-0.085815,0.044434,0.884521,-4.699707,3.540039,3.540039
2129,-0.064453,-0.086792,0.914185,-4.760742,3.540039,3.662109
2138,0.006104,-0.212280,0.872314,-4.882812,4.150391,3.845215
2148,0.058594,-0.047607,1.040161,-5.676270,4.272461,3.479004
2157,0.021851,-0.110596,1.048584,-6.469727,3.662109,2.075195
2167,-0.001953,-0.070801,1.011597,-6.652832,2.929688,0.061035
2179,0.042969,0.098511,1.115723,-6.286621,1.037598,-4.211426
2188,0.038940,0.042236,1.060059,-5.493164,0.549316,-5.432129
2198,0.117432,0.031738,1.025879,-4.028320,0.671387,-6.225586
2207,0.042480,0.029419,1.034546,-2.319336,0.488281,-6.347656
2218,0.021484,-0.000244,0.911377,-0.915527,0.305176,-6.347656
2227,0.096069,-0.358032,0.813599,0.854492,0.488281,-6.103516
2238,0.143066,-0.170410,0.978027,1.586914,0.244141,-5.432129
2247,0.121582,-0.173340,1.002808,1.403809,0.366211,-4.760742
2257,0.091187,-0.269043,0.904541,-0.427246,0.000000,-4.577637
2268,0.028809,-0.098999,0.978271,-0.427246,-0.427246,-4.882812
2278,-0.026001,-0.105591,0.986816,-0.305176,-0.915527,-5.249023
2288,-0.020752,-0.174316,1.022095,-0.183105,-1.037598,-5.493164
2297,-0.015747,-0.119019,0.995972,0.549316,-0.915527,-5.310059
2307,-0.024048,-0.078369,1.011353,1.342773,-0.610352,-4.516602
2317,-0.018188,-0.221191,0.940674,1.770020,-0.061035,-3.356934
2328,0.038208,-0.114380,0.994995,1.708984,0.671387,-0.549316
2338,-0.022705,0.010620,1.072266,0.244141,1.525879,0.366211
2347,-0.026489,-0.096069,1.022339,0.061035,1.708984,1.037598
2357,-0.036499,-0.150269,1.003906,-0.122070,1.342773,1.098633
2367,-0.063721,-0.103394,1.072021,0.244141,0.854492,1.159668
2377,-0.000366,-0.051758,1.108398,0.366211,0.671387,1.037598
2387,-0.012939,-0.035889,1.074219,-0.122070,0.488281,1.220703
2399,0.004883,-0.039307,0.892578,-0.244141,0.244141,1.586914
2408,0.040771,-0.122559,0.757568,-0.061035,0.671387,1.953125
2417,0.031738,-0.162964,0.787354,-0.793457,0.305176,2.136230
2426,0.092041,-0.119263,0.768555,-2.685547,-0.061035,2.014160
2437,0.022827,0.186646,0.902100,-3.845215,-0.061035,1.892090
2447,0.035889,0.037598,0.992798,-4.211426,-0.549316,1.525879
2457,-0.020264,-0.107422,0.977051,-4.455566,-1.037598,1.098633
2466,-0.034302,-0.037598,0.949707,-4.272461,-0.854492,0.366211
2478,-0.051514,0.028320,1.118896,-3.417969,-1.281738,0.061035
2488,-0.014160,-0.136475,1.048340,-3.356934,-0.610352,-0.122070
2498,-0.075562,-0.131836,0.953491,-3.112793,-0.427246,-0.305176
2508,-0.047729,-0.050049,0.937866,-2.441406,-0.183105,-0.122070
2517,-0.040161,-0.110718,0.949463,-2.258301,0.244141,0.061035
2527,0.004639,-0.182251,0.988525,-2.746582,0.549316,-0.122070
2536,0.006470,-0.139648,0.989746,-3.112793,0.427246,-0.854492
2548,0.035522,-0.111328,1.069824,-3.417969,-1.159668,-1.342773
2558,0.044922,-0.074707,1.191650,-2.929688,-1.464844,-2.136230
2567,0.102905,0.059570,1.306030,-1.892090,-2.075195,-2.868652
2576,0.083984,-0.068848,1.282715,-0.305176,-2.441406,-3.173828
2587,0.087036,-0.244141,1.053711,1.037598,-2.624512,-3.784180
2596,0.108521,-0.146484,0.982178,2.014160,-2.685547,-4.333496
2609,0.090454,-0.183105,0.794678,1.281738,-3.295898,-5.310059
2618,0.117676,-0.035278,0.809082,-0.122070,-3.784180,-5.920410
2628,0.109863,-0.045654,0.866821,-1.647949,-4.455566,-6.347656
2637,0.054077,-0.081543,0.910278,-2.624512,-5.249023,-6.958008
2647,0.033203,0.139771,1.104492,-3.173828,-5.554199,-7.690430
2656,0.011108,0.184448,1.258789,-3.295898,-5.493164,-8.666992
2667,-0.009399,0.015747,1.250488,-2.563477,-5.493164,-9.033203
2676,-0.043091,-0.024658,1.125000,14.526367,-5.065918,-9.521484
2688,-0.032593,-0.048584,1.020020,1.831055,-4.272461,-9.277344
2697,-0.036377,-0.015259,0.987183,2.136230,-3.356934,-8.605957
2707,-0.059814,-0.103882,0.831055,2.319336,-2.624512,-7.873535
2717,-0.070923,-0.169067,0.829834,2.685547,-2.075195,-7.202148
2726,-0.083496,-0.065186,0.905518,3.295898,-1.708984,-6.469727
2737,-0.072510,-0.057983,0.977905,3.662109,-1.464844,-6.164551
2746,-0.056396,-0.271484,1.002686,3.845215,-1.281738,-5.432129
2758,-0.079712,-0.115479,0.959106,3.112793,-0.610352,-4.821777
2768,-0.062988,0.079346,0.996948,2.624512,-0.305176,-4.455566
2777,-0.100708,-0.125977,0.961060,3.295898,0.122070,-3.845215
2787,-0.042847,-0.375366,0.812866,3.784180,0.488281,-2.990723
2796,-0.112305,-0.205200,0.833862,3.356934,1.037598,-2.319336
2807,-0.059082,-0.095459,0.875366,2.563477,1.403809,-2.136230
2817,-0.066895,-0.188843,0.887085,1.159668,1.831055,-1.098633
2826,-0.080811,-0.264160,0.832031,0.793457,2.136230,-0.854492
2837,-0.007935,-0.117676,0.940430,0.244141,2.319336,-0.366211
2847,-0.017822,-0.207642,1.018066,-1.037598,2.441406,0.244141
2856,-0.055298,-0.178833,1.022461,-2.441406,2.563477,0.610352
2867,-0.041748,0.105835,1.098633,-3.601074,2.624512,0.793457
2876,-0.023193,0.150024,1.119263,-3.906250,2.929688,1.159668
2886,-0.050903,0.067383,1.127441,-3.723145,2.868652,1.159668
2898,-0.054932,0.001099,1.197388,-1.892090,3.173828,0.732422
2907,-0.019531,-0.011963,1.136353,-0.976562,2.807617,0.549316
2917,-0.068115,-0.185791,0.989746,0.000000,2.197266,-0.061035
2926,0.006348,-0.190796,1.017212,0.061035,2.380371,-0.366211
2937,0.038208,-0.090942,1.057739,-1.220703,2.807617,-0.061035
2946,0.071777,0.022705,1.049561,-2.197266,2.441406,0.061035
2956,0.043701,0.016724,1.049072,-2.685547,1.892090,0.000000
2967,0.017212,0.047485,1.105957,-2.746582,1.342773,-0.305176
2977,0.013550,0.087158,1.116699,-2.380371,0.732422,-0.793457
2986,-0.008545,0.016968,1.056885,-1.831055,0.427246,-1.220703
2997,0.029541,-0.019165,0.985962,-1.220703,0.061035,-1.464844
3006,0.037964,-0.113403,0.905029,-1.037598,0.244141,-1.403809
3017,0.020020,-0.181641,0.864868,-0.976562,0.061035,-1.098633
3026,0.051514,0.022827,0.890015,-1.220703,0.305176,-0.793457
3038,0.050415,-0.207275,0.946289,-1.586914,-0.305176,-1.403809
3047,-0.018066,-0.129517,0.899170,-1.953125,-0.671387,-2.075195
3057,0.004883,0.041870,0.958740,-2.014160,-1.037598,-2.685547
3067,0.002319,-0.039917,0.928955,-1.831055,-1.342773,-3.051758
3076,-0.016113,-0.055786,0.917603,-1.586914,-1.281738,-3.479004
3086,0.020264,-0.007568,0.974731,-0.915527,-1.220703,-3.417969
3096,-0.013306,-0.035278,0.974365,-0.366211,-1.098633,-2.990723
3108,-0.027710,-0.152588,0.923828,0.854492,-0.854492,-3.479004
3118,0.011108,-0.066040,0.984375,0.671387,-0.549316,-3.906250
3127,-0.030884,-0.143555,0.960815,0.427246,-0.854492,-4.150391
3137,-0.030518,-0.150513,0.940796,0.305176,-1.281738,-4.760742
3147,-0.005005,-0.051514,0.940796,0.305176,-1.037598,-4.943848
3156,0.005127,-0.078735,0.982422,0.305176,-1.037598,-4.882812
3166,-0.006348,-0.173584,0.995483,0.183105,-1.220703,-4.882812
3176,-0.011963,-0.071411,1.037354,-0.183105,-0.854492,-4.699707
3186,-0.015503,-0.127686,1.038574,0.061035,-0.854492,-4.516602
3196,0.050903,-0.212769,1.043457,-0.061035,-0.671387,-4.638672
3207,-0.000488,-0.192505,1.077393,-0.488281,-1.098633,-4.638672
3216,-0.038818,-0.035278,0.995972,-0.915527,-1.708984,-4.882812
3226,0.015625,-0.059204,0.962036,-0.854492,-1.892090,-5.310059
3236,0.048584,-0.129639,0.962646,-0.793457,-1.647949,-5.249023
3247,0.060303,0.000977,1.037598,-1.403809,-0.854492,-4.943848
3257,-0.016968,-0.009033,1.048950,-2.868652,-1.159668,-5.676270
3267,-0.023315,-0.089111,1.052856,-3.601074,-1.953125,-6.774902
3276,-0.025513,-0.026855,1.098633,-3.479004,-2.441406,-7.751465
3286,0.012085,-0.000488,1.119629,-2.990723,-2.868652,-8.239746
3296,0.006348,0.021973,1.062622,-2.563477,-2.746582,-8.300781
3306,-0.018433,-0.024536,1.055908,-1.770020,-2.319336,-7.995605
3316,0.041016,-0.201660,0.888184,-1.464844,-1.037598,-7.202148
3327,0.060913,-0.213257,0.839600,-1.647949,-0.549316,-6.835937
3337,-0.013794,-0.174561,0.738647,-1.953125,-0.610352,-6.958008
3347,0.051392,0.023926,0.911621,-2.746582,-0.976562,-7.263184
3356,0.006714,-0.196167,0.805542,-3.662109,-1.647949,-7.568359
3366,-0.044556,-0.105957,0.799805,-4.394531,-1.647949,-7.873535
3376,-0.029175,0.137451,0.938599,-4.638672,-1.403809,-7.812500
3386,-0.027710,-0.002441,1.039307,-3.967285,-0.854492,-7.141113
3397,-0.060913,0.023437,1.013794,-3.479004,-0.427246,-6.713867
3406,-0.045776,-0.012207,1.008545,-2.807617,0.000000,-6.347656
3416,-0.073120,-0.188965,0.961060,-1.892090,0.366211,-5.981445
3426,-0.049316,-0.100342,0.964600,-1.770020,0.549316,-5.432129
3436,-0.065918,0.013916,0.935181,-1.525879,0.549316,-4.821777
3446,-0.011597,-0.196289,0.874878,-1.770020,0.854492,-4.211426
3457,0.018799,-0.023560,1.028198,-2.319336,1.464844,-2.380371
3467,-0.049805,-0.088745,1.026978,-3.417969,2.319336,-1.708984
3477,-0.022583,-0.120117,0.981201,-3.601074,2.319336,-1.586914
3486,-0.028198,-0.016602,1.072510,-3.784180,2.014160,-1.281738
3496,-0.028198,-0.019409,1.073242,-3.723145,2.136230,-1.525879
3505,0.006836,-0.078003,1.030762,-3.662109,2.197266,-1.770020
3516,-0.001343,-0.040649,1.042847,-3.356934,2.319336,-1.892090
3526,-0.018799,0.004395,1.027954,-3.051758,1.708984,-1.831055
3537,-0.003784,-0.163452,1.002563,-3.234863,1.953125,-1.525879
3547,-0.026489,-0.025513,1.024658,-3.356934,2.197266,-1.159668
3556,-0.022461,0.094849,1.075317,-3.784180,2.258301,-0.854492
3566,-0.019897,-0.019531,1.069092,-3.845215,2.136230,-0.854492
3575,-0.019287,-0.108276,1.052979,-3.356934,2.014160,-0.610352
3586,-0.015381,-0.010620,1.095703,-3.234863,1.892090,-0.488281
3595,0.028198,0.001831,1.080078,-2.807617,1.953125,0.061035
3607,0.026611,-0.088623,0.874878,-2.624512,1.770020,0.000000
3616,0.024170,0.071777,0.964844,-2.502441,1.525879,0.305176
3626,0.027222,-0.083618,0.898071,-2.258301,1.220703,0.183105
3635,0.016113,-0.084229,0.869385,-2.075195,0.732422,0.061035
3646,0.050659,0.092651,0.958374,-1.708984,0.244141,-0.061035
3655,0.062500,-0.109009,0.968140,-1.159668,0.122070,0.061035
3667,0.031860,-0.026611,0.948120,-0.915527,-0.427246,-0.244141
3677,0.041260,-0.225708,0.917236,-0.549316,-0.671387,-0.305176
3686,0.001709,-0.244629,0.798218,-0.915527,-0.671387,-0.427246
3696,-0.000122,0.038330,0.921387,-1.464844,-0.671387,-0.427246
3705,0.008667,-0.046875,0.980591,-1.403809,-1.159668,-0.427246
3715,-0.048950,-0.241455,0.862549,-1.037598,-1.403809,-0.488281
3726,-0.020020,-0.094238,0.948608,-1.159668,-1.281738,-1.037598
3736,-0.048462,0.017212,1.042236,-1.342773,-1.098633,-1.647949
3746,-0.048340,-0.200684,0.979858,-1.281738,-0.915527,-2.197266
3755,-0.014038,0.035645,1.056396,-1.281738,-0.915527,-2.441406
3765,-0.038696,-0.049438,1.047852,-0.976562,-0.915527,-2.807617
3776,-0.000488,-0.210937,0.998291,-0.793457,-0.549316,-2.990723
3786,-0.043335,-0.143677,1.044800,-0.671387,-0.854492,-3.234863
3795,0.001953,-0.034180,1.074585,-0.732422,-0.854492,-3.784180
3805,-0.081787,-0.110474,1.006714,-0.427246,-1.098633,-4.882812
3815,-0.008789,-0.259644,0.999512,-0.366211,-0.915527,-5.554199
3825,0.006836,-0.046143,1.050293,-0.793457,-1.037598,-5.676270
3835,-0.002686,-0.133667,1.027588,-1.403809,-1.159668,-5.920410
3846,0.021240,-0.255005,0.946289,-1.647949,-0.915527,-6.286621
3855,-0.008789,-0.132568,0.947021,-2.502441,-1.098633,-6.652832
3865,0.002930,-0.008301,0.981689,-2.990723,-0.671387,-6.713867
3875,-0.010498,-0.071777,0.939087,-3.295898,-0.671387,-7.141113
3887,-0.017212,0.082397,0.990601,-4.028320,-0.671387,-7.202148
3896,-0.051392,0.024170,1.027100,-3.784180,-0.183105,-7.202148
3906,-0.023193,-0.132446,1.018433,-3.601074,-0.305176,-7.263184
3916,-0.040405,-0.068604,1.018433,-3.295898,-0.244141,-7.385254
3925,-0.042236,0.049683,1.047241,-2.624512,-0.183105,-7.324219
3935,-0.032227,0.019653,1.033447,-1.892090,0.122070,-7.019043
3945,-0.005005,-0.160400,0.978271,-1.464844,0.915527,-6.896973
3956,0.002319,0.035767,0.990845,-1.708984,0.732422,-6.469727
3966,-0.024902,0.041748,0.973633,-1.831055,1.159668,-6.103516
3975,0.017578,-0.136353,0.936157,-1.586914,1.403809,-5.981445
3985,-0.000122,-0.140991,0.921631,-1.159668,1.098633,-6.042480
3995,-0.009155,-0.048828,1.038208,-1.159668,1.159668,-6.286621
4005,0.049072,-0.062866,1.024170,-1.159668,0.732422,-6.347656
4018,-0.009399,-0.030640,1.048706,-0.244141,0.427246,-6.347656
4027,-0.015381,-0.041870,1.025146,0.366211,0.549316,-6.103516
4036,0.010132,-0.039673,1.039551,0.732422,0.610352,-5.737305
4046,0.007202,-0.130493,1.002686,0.976562,1.159668,-5.126953
4055,-0.020386,-0.136108,0.873413,0.793457,0.915527,-4.516602
4065,0.029785,-0.010254,0.959473,0.488281,1.037598,-4.089355
4075,-0.026733,-0.172729,0.934692,0.000000,1.159668,-3.601074
4085,-0.017212,-0.125488,0.920776,-0.549316,1.586914,-3.234863
4095,-0.027100,0.085449,0.984375,-1.098633,1.831055,-3.173828
4106,-0.082764,-0.085815,1.004150,-1.220703,1.831055,-3.356934
4116,-0.076172,-0.026611,1.011353,-1.037598,1.953125,-3.417969
4125,-0.048584,0.081421,1.055664,-0.488281,2.380371,-3.417969
4135,-0.094482,-0.014771,1.017456,0.061035,2.197266,-3.234863
4145,-0.094849,-0.315796,0.833618,0.427246,2.624512,-3.234863
4155,-0.044434,-0.105347,0.856934,0.183105,3.417969,-2.990723
4165,-0.025757,-0.077148,0.890991,-2.136230,3.234863,-2.075195
4175,-0.067749,0.066650,0.888062,-3.051758,3.234863,-1.708984
4185,0.002075,0.096436,0.958862,-3.356934,3.479004,-0.671387
4194,-0.033203,-0.077637,1.006470,-3.234863,3.723145,0.061035
4205,-0.000122,-0.132690,1.059082,-2.929688,4.333496,1.159668
4214,-0.020996,0.018555,1.090454,-3.112793,4.821777,1.647949
4226,-0.054199,-0.095703,1.048950,-2.197266,3.845215,0.549316
4236,-0.005737,0.022705,0.950195,-2.319336,3.845215,0.244141
4245,0.029175,0.041504,1.006958,-2.563477,3.601074,0.671387
4254,0.035400,-0.203003,0.966431,-2.807617,3.173828,0.732422
4265,-0.032959,-0.071655,1.012451,-3.356934,3.051758,1.586914
4275,0.006470,0.089600,1.078125,-3.417969,3.234863,2.441406
4285,-0.024048,-0.050293,1.100830,-2.624512,3.723145,3.356934
4294,-0.045410,-0.300537,1.039429,-1.892090,4.028320,3.417969
4306,-0.017334,0.001099,1.148315,-1.892090,3.601074,3.356934
4315,-0.016846,-0.066895,1.044922,-1.342773,3.173828,3.051758
4325,-0.014526,-0.198975,0.962891,-1.159668,2.807617,2.685547
4335,-0.043213,-0.231567,0.886353,-1.464844,2.197266,2.136230
4344,0.013062,-0.001709,0.991089,-2.014160,2.258301,1.831055
4355,0.010864,-0.053223,0.991211,-2.502441,2.258301,1.892090
4364,-0.020386,-0.184082,0.892944,-3.173828,2.258301,1.892090
4376,0.069092,-0.106567,0.928223,-3.295898,2.380371,1.831055
4386,-0.000610,-0.243530,0.881226,-3.417969,1.770020,1.342773
4395,-0.002197,-0.053833,0.972534,-4.272461,1.647949,1.037598
4405,0.035400,0.005981,0.933472,-4.516602,1.098633,0.427246
4414,0.028687,0.000000,1.105225,-4.638672,0.549316,0.366211
4424,-0.012817,-0.096436,1.022217,-3.723145,0.244141,0.427246
4435,0.011719,0.090576,1.130859,-2.990723,0.183105,0.183105
4444,0.056152,0.031128,1.158447,-2.075195,0.427246,0.549316
4455,0.035522,-0.135620,1.027466,0.244141,0.244141,0.427246
4465,0.039429,-0.113403,1.021484,0.610352,0.305176,0.244141
4474,0.038208,-0.039917,0.989624,1.464844,-0.122070,0.122070
4484,0.005615,-0.051514,0.938354,1.953125,-0.549316,0.000000
4494,0.014648,-0.212524,0.934326,1.831055,-0.671387,0.305176
4504,0.001587,-0.204956,0.951416,0.915527,-0.854492,0.244141
4516,-0.008301,0.120117,1.046875,0.610352,-0.610352,0.610352
4526,-0.026855,-0.031372,1.079834,1.037598,-0.183105,0.732422
4535,-0.060303,-0.216553,1.007202,2.136230,-0.183105,0.366211
4547,-0.028198,-0.239624,1.073486,2.746582,-0.427246,0.183105
4557,-0.095093,-0.146240,1.031250,2.380371,0.122070,-0.183105
4567,-0.084595,-0.031616,1.055664,1.159668,-0.366211,-0.793457
4576,-0.045410,-0.089111,0.821045,1.037598,0.000000,-0.488281
4585,-0.045410,-0.089111,0.821045,0.366211,0.427246,0.061035
4595,-0.017212,-0.087646,0.839844,-0.732422,0.610352,0.488281
4604,-0.004517,-0.224976,0.764771,-1.708984,0.610352,1.220703
4614,0.014648,0.068237,0.848267,-3.295898,0.610352,1.586914
4624,0.071289,0.185913,0.966797,-3.906250,0.305176,1.892090
4635,0.063965,-0.041382,0.967041,-3.906250,0.061035,1.708984
4644,0.058838,-0.047729,1.033936,-3.967285,-0.671387,1.098633
4656,0.035034,0.114868,1.132568,-2.136230,-1.892090,-0.183105
4666,0.048462,-0.025635,1.040649,-1.037598,-2.319336,-1.159668
4676,0.053223,-0.153809,0.934204,-0.122070,-2.563477,-1.831055
4685,0.043579,0.001221,0.943237,0.366211,-2.868652,-1.953125
4694,0.047729,0.040649,0.987305,0.366211,-3.173828,-1.953125
4704,0.070312,-0.143677,0.946777,0.305176,-3.173828,-1.892090
4713,0.050903,-0.223633,0.964233,-0.305176,-2.624512,-1.464844
4726,-0.021973,-0.016235,1.050293,-0.854492,-2.807617,-2.197266
4736,-0.001831,-0.059082,1.062012,-0.671387,-3.295898,-3.173828
4745,-0.057129,-0.229248,1.094360,-0.061035,-3.601074,-4.333496
4755,-0.006226,-0.215576,1.043091,0.000000,-3.906250,-5.249023
4765,-0.016724,-0.089966,0.992554,-0.488281,-3.540039,-5.798340
4774,0.012451,-0.131470,0.972656,-0.793457,-3.112793,-5.981445
4784,-0.015015,-0.162354,0.994629,-1.037598,-2.990723,-5.981445
4794,0.021606,-0.025269,1.034790,-1.464844,-2.563477,-5.981445
4805,-0.037354,-0.290405,1.015503,-1.159668,-2.319336,-6.286621
4815,-0.009399,-0.173950,1.031860,-1.953125,-2.441406,-6.469727
4825,0.009766,-0.056152,1.062988,-2.197266,-2.380371,-6.652832
4835,-0.049438,-0.052124,1.012329,-2.014160,-2.502441,-6.958008
4844,0.007813,0.011597,0.952881,-2.441406,-2.441406,-7.080078
4854,0.020874,-0.130737,0.911987,-2.441406,-2.319336,-7.202148
4863,-0.002319,-0.134155,0.871094,-2.380371,-2.441406,-7.751465
4875,0.038330,0.033325,0.959839,-3.051758,-2.746582,-8.605957
4885,0.039551,-0.115723,0.969238,-2.502441,-2.746582,-9.033203
4895,0.010620,-0.022705,0.896240,-1.770020,-2.441406,-9.399414
4904,0.039429,0.020874,0.957397,-0.793457,-2.441406,-10.009766
4914,0.014038,-0.120483,0.985596,0.061035,-2.380371,-10.437012
4924,0.005127,-0.222046,0.955444,0.610352,-2.380371,-10.742188
4933,0.016235,-0.184082,0.936157,1.098633,-2.197266,-10.681152
4945,0.000122,-0.171509,0.942261,0.244141,-1.220703,-9.704590
4955,0.003296,-0.174072,0.938965,-0.244141,-0.915527,-8.911133
4964,-0.029419,-0.063965,0.938599,-0.671387,-0.488281,-8.178711
4974,-0.034424,-0.010376,1.014404,-0.427246,0.061035,-7.446289
4983,-0.023193,-0.059082,1.014893,-0.183105,0.610352,-6.774902
4993,-0.026855,-0.203369,1.024292,-0.183105,0.549316,-6.286621
5005,-0.062622,-0.223999,1.016113,-0.732422,0.122070,-6.164551
5014,-0.015869,0.039307,1.069336,-1.220703,0.305176,-5.615234
5024,0.001099,-0.053467,0.995361,-1.220703,0.671387,-5.187988
5034,-0.026611,-0.124756,0.987671,-1.647949,0.915527,-4.699707
5043,0.001343,-0.040405,1.031982,-2.197266,1.464844,-3.967285
5053,-0.029053,0.017578,1.044189,-2.685547,1.220703,-3.601074
5063,-0.036377,0.081787,1.051025,-3.234863,1.403809,-3.723145
5073,-0.030518,0.088379,1.070190,-3.601074,1.159668,-3.784180
5083,-0.021362,0.069092,1.074707,-2.868652,1.098633,-3.967285
5094,-0.034668,0.006348,1.007568,-2.563477,1.098633,-4.028320
5104,-0.026489,-0.022339,0.991455,-2.136230,1.403809,-3.906250
5114,-0.022217,-0.051758,0.956543,-2.075195,1.342773,-3.845215
5123,-0.042480,0.093994,0.942383,-1.892090,1.770020,-3.967285
5133,-0.001465,0.088135,0.985352,-1.525879,2.075195,-3.845215
5147,-0.054077,-0.194702,0.781860,-1.342773,2.258301,-4.394531
5157,-0.076660,0.061646,0.931885,-1.281738,2.502441,-4.882812
5167,-0.048096,-0.029419,0.939575,-1.586914,2.685547,-5.065918
5176,-0.063721,-0.195435,0.800903,-2.075195,2.624512,-5.187988
5186,0.007324,-0.106689,0.871094,-2.319336,2.990723,-4.821777
5195,-0.032959,-0.104858,0.962158,-2.624512,3.112793,-4.333496
5205,-0.089844,-0.173340,0.931274,-3.173828,2.990723,-2.563477
5215,-0.013306,-0.015503,1.014282,-2.624512,3.845215,-1.464844
5224,-0.051392,-0.083252,1.023926,-1.647949,4.638672,-0.305176
5234,0.015259,-0.187988,1.039185,-0.976562,5.310059,0.976562
5243,-0.028564,-0.059448,1.121094,-0.854492,5.493164,1.403809
5252,-0.107178,-0.076904,1.158569,-0.183105,4.760742,1.281738
5263,-0.084473,-0.173584,1.049683,0.305176,4.089355,0.793457
5272,-0.016235,-0.136475,1.025391,0.427246,3.662109,0.732422
5283,0.010742,-0.121948,1.037842,0.488281,3.906250,1.220703
5294,-0.030396,-0.133789,0.958862,0.366211,4.333496,3.417969
5304,-0.003296,-0.076538,0.956421,-0.366211,4.760742,4.211426
5313,-0.014160,0.002441,1.029297,-0.549316,4.882812,4.333496
5323,0.002686,-0.047852,1.079102,-0.671387,4.821777,4.516602
5333,-0.019043,-0.129150,1.053345,-0.305176,4.577637,3.906250
5343,-0.055176,-0.174561,1.020996,-0.427246,3.601074,2.807617
5353,-0.068970,-0.171143,0.955200,-0.305176,3.295898,2.075195
5363,-0.039063,-0.109253,0.855103,-0.610352,3.234863,1.770020
5374,0.006226,-0.172852,0.804810,-2.441406,3.417969,2.258301
5384,0.013550,-0.184082,0.789673,-3.662109,3.601074,2.868652
5393,0.063354,0.131104,0.947266,-4.821777,3.662109,3.479004
5402,0.017822,0.099365,1.001831,-5.065918,3.417969,4.211426
5413,-0.007568,-0.124512,0.925537,-4.638672,2.929688,4.394531
5422,0.002808,-0.086182,1.047485,-4.455566,2.929688,4.760742
5435,-0.013550,-0.063477,1.072144,-3.295898,2.319336,5.432129
5445,0.060059,-0.165527,0.982300,-2.197266,2.258301,5.615234
5454,-0.018921,-0.050171,0.980469,-1.342773,2.136230,5.798340
5464,0.066650,0.039185,1.056396,-0.854492,1.831055,5.554199
5473,-0.027588,-0.056152,1.009155,-0.305176,1.220703,5.554199
5482,0.008667,-0.221436,1.036865,0.183105,0.854492,4.821777
5493,-0.009033,-0.138306,1.029053,0.488281,0.549316,3.967285
5502,-0.000244,-0.112183,0.984497,1.037598,0.183105,3.112793
5514,-0.045044,-0.278564,0.962036,1.098633,0.061035,2.624512
5523,0.014771,-0.190796,1.000854,0.366211,-0.122070,2.197266
5533,-0.021484,-0.058228,0.948120,0.000000,0.183105,2.136230
5543,-0.038208,-0.043335,0.960937,-0.610352,-0.122070,2.014160
5552,-0.015015,-0.140503,0.996582,-1.525879,0.122070,1.708984
5563,-0.033325,-0.143555,1.045532,-1.892090,0.183105,1.281738
5572,-0.015381,0.014038,1.099243,-2.197266,0.061035,0.488281
5584,-0.016724,-0.022095,1.064697,-1.586914,-0.244141,-0.854492
5594,-0.032349,-0.093994,1.023804,-1.281738,-0.427246,-1.525879
5603,0.023071,-0.163330,0.975830,-1.159668,-0.671387,-2.197266
5613,0.009644,-0.102661,0.907349,-1.464844,-1.037598,-2.563477
5622,0.086548,-0.028687,0.921875,-1.953125,-0.854492,-2.502441
5632,0.081421,-0.140137,0.859497,-2.380371,-0.671387,-2.441406
5644,0.112915,-0.004517,0.883911,-3.173828,-1.159668,-2.685547
5653,0.123535,-0.076782,1.001587,-2.685547,-1.953125,-3.479004
5663,0.076172,-0.138794,0.969360,-2.319336,-2.502441,-4.760742
5673,0.066528,0.020264,1.033813,-1.647949,-3.051758,-5.859375
5683,0.083740,0.169800,1.074707,-1.098633,-3.967285,-6.774902
5692,0.075439,-0.000977,1.029297,-0.122070,-4.455566,-7.324219
5703,0.091309,-0.222290,0.981445,0.854492,-4.516602,-7.568359
5712,0.047974,-0.182617,0.951782,1.342773,-4.211426,-7.690430
5722,0.049683,0.007324,0.970093,1.892090,-3.540039,-7.568359
5733,0.009155,-0.294922,0.939819,1.892090,-3.356934,-7.873535
5743,-0.007446,-0.281494,0.860962,1.464844,-3.173828,-8.300781
5753,-0.014648,-0.105469,0.931885,1.098633,-3.234863,-8.483887
5763,0.007324,-0.108398,1.026245,0.610352,-3.356934,-8.972168
5773,-0.032593,-0.183716,0.990601,-0.427246,-3.417969,-9.338379
5783,-0.000610,-0.191284,0.995361,-1.220703,-2.319336,-9.094238
5792,0.024170,-0.136597,1.079102,-1.342773,-2.075195,-8.605957
5802,-0.051270,0.010742,1.051270,-1.159668,-1.831055,-8.361816
5812,0.010864,-0.024536,1.153198,-0.671387,-1.525879,-8.056641
5821,-0.046143,-0.089478,1.117310,0.122070,-1.220703,-7.995605
5832,-0.048462,-0.132568,0.977905,0.122070,-1.098633,-7.873535
5842,-0.037720,-0.131470,1.011230,0.000000,-0.854492,-7.812500
5852,-0.162842,-0.156738,1.030029,0.061035,-0.366211,-7.507324
5862,0.004761,0.015869,1.081665,-0.549316,0.549316,-7.019043
5872,-0.106934,-0.206177,0.961060,0.549316,0.976562,-6.591797
5881,-0.036011,-0.164673,0.973511,0.488281,1.831055,-6.103516
5892,-0.092651,-0.168823,0.924316,0.244141,2.441406,-5.798340
5901,-0.067871,-0.232422,0.792969,0.549316,2.685547,-5.676270
5912,-0.054443,0.035400,0.798950,0.000000,2.990723,-5.187988
5921,-0.034912,0.113770,0.822632,-0.549316,3.417969,-4.760742
5934,-0.052612,-0.173706,0.727539,-0.488281,4.516602,-3.479004
5944,-0.075562,-0.030640,0.866089,-1.525879,4.882812,-2.319336
5953,-0.066772,-0.068237,0.863281,-2.441406,5.065918,-1.525879
5963,-0.122314,-0.101929,0.815308,-3.356934,5.432129,-0.366211
5972,-0.012939,0.043335,0.903076,-4.028320,6.103516,1.037598
5981,-0.064331,0.027588,0.984131,-4.211426,6.286621,2.746582
5992,-0.058105,-0.062622,1.057983,-4.333496,6.713867,3.906250
6002,-0.010132,-0.034424,1.112793,-3.540039,7.263184,6.774902
6013,-0.069946,0.026367,1.122925,-3.173828,6.835937,7.385254
6022,-0.056519,-0.075928,1.142456,-2.807617,6.958008,8.056641
6032,0.025024,-0.052124,1.130615,-2.075195,7.324219,8.728027
6041,0.004028,0.019287,1.102295,-1.220703,6.652832,9.094238
6052,0.007202,-0.054077,1.034912,-0.671387,6.408691,9.521484
6062,-0.018066,-0.177002,1.005981,-0.610352,6.408691,9.704590
6072,0.043091,-0.215210,0.994629,-0.976562,5.187988,9.460449
6083,-0.008667,0.018921,1.049316,-1.403809,4.333496,8.789063
6093,-0.018433,0.008423,1.035156,-1.525879,3.723145,8.239746
6102,-0.018433,-0.056641,1.002197,-1.831055,3.295898,7.751465
6112,-0.007080,-0.078613,1.008789,-2.014160,3.051758,7.141113
6122,-0.013184,-0.003906,0.989868,-2.258301,2.624512,6.713867
6132,-0.028320,0.036499,0.957397,-2.380371,2.197266,6.103516
6142,-0.035645,-0.069580,0.924194,-2.868652,2.685547,5.371094
6151,-0.033325,-0.210937,0.963745,-3.967285,2.807617,4.516602
6162,0.010498,0.115845,1.050903,-4.760742,2.685547,3.784180
6171,-0.039795,-0.037476,0.992187,-4.577637,2.380371,3.051758
6182,-0.043213,-0.013672,1.037720,-4.272461,2.319336,1.953125
6191,-0.039551,0.134155,1.040771,-3.417969,2.258301,1.342773
6201,-0.059204,0.020996,1.079956,-2.136230,2.258301,0.671387
6214,-0.019165,-0.085449,0.969971,0.000000,2.685547,0.061035
6224,-0.015259,0.098999,0.997314,0.610352,2.807617,0.427246
6233,-0.011597,-0.122559,0.938110,1.647949,2.868652,0.793457
6242,0.052002,-0.288574,0.844604,1.831055,3.051758,0.976562
6252,0.110840,-0.171021,0.997192,1.892090,2.990723,1.525879
6261,-0.042358,-0.159790,1.015503,2.075195,2.197266,1.647949
6271,-0.059692,-0.236694,0.951904,2.197266,1.525879,1.037598
6281,0.024292,-0.230591,0.811279,2.197266,1.220703,1.281738
6292,0.110596,-0.057617,0.939575,2.319336,1.586914,2.990723
6301,0.036133,-0.237183,0.914551,1.098633,2.685547,3.784180
6311,-0.008057,-0.236938,0.962036,0.122070,2.258301,3.479004
6321,-0.043457,-0.041992,1.098999,-0.610352,1.403809,2.929688
6331,0.028809,-0.030884,1.073486,-0.488281,0.854492,2.136230
6341,0.018921,-0.128540,1.042725,-0.122070,0.732422,1.953125
6351,0.047607,-0.207764,1.005615,-0.305176,0.549316,2.075195
6362,0.062134,-0.126953,0.913696,-0.732422,0.976562,3.295898
6371,0.080322,-0.073730,0.949829,-2.624512,1.220703,3.784180
6381,0.115112,-0.019043,1.013794,-2.868652,1.098633,4.150391
6391,0.036621,-0.081299,1.006958,-2.685547,0.549316,3.784180
6401,-0.001587,-0.155396,1.038696,-3.112793,-0.061035,2.685547
6411,0.037231,-0.164551,1.063721,-3.723145,-0.671387,1.281738
6422,0.018921,-0.037231,1.132568,-2.929688,-1.464844,0.305176
6432,-0.008423,0.026611,1.033081,-2.075195,-1.647949,0.000000
6442,0.031372,-0.048706,1.046997,-1.220703,-1.037598,-0.061035
6451,-0.015015,-0.123047,1.006836,-0.732422,-0.976562,-0.061035
6461,0.009277,-0.182739,0.957153,-0.610352,-0.671387,0.122070
6471,-0.011841,0.028809,0.916138,-1.037598,-0.915527,-0.061035
6481,0.004883,-0.003296,0.927612,-1.647949,-0.915527,-0.549316
6491,-0.029297,-0.097290,0.889648,-1.892090,-0.671387,-0.854492
6502,-0.043701,0.053467,1.044312,-2.014160,-0.549316,-1.586914
6512,0.002197,-0.009033,1.049927,-2.075195,-0.366211,-1.586914
6521,-0.038330,-0.077026,0.995605,-1.770020,0.366211,-1.342773
6531,-0.016846,-0.058838,1.005005,-1.525879,0.732422,-1.159668
6541,-0.021851,-0.011108,1.073486,-1.098633,1.220703,-0.915527
6551,-0.017944,-0.084717,1.014893,-0.976562,1.281738,-0.915527
6561,-0.037231,-0.171875,0.882446,-0.854492,1.342773,-0.854492
6572,-0.016602,-0.068359,0.872437,-1.220703,1.892090,0.183105
6582,-0.041992,-0.302979,0.804687,-1.892090,2.197266,0.976562
6592,-0.040405,-0.074707,0.924683,-2.990723,2.563477,1.770020
6601,-0.021606,0.129883,1.044556,-3.356934,2.624512,2.746582
6610,-0.060791,-0.098389,0.999634,-3.051758,2.929688,3.784180
6621,-0.044434,-0.202515,0.968994,-3.051758,3.112793,4.577637
6630,-0.031494,0.054443,1.033325,-3.051758,3.295898,5.187988
6642,-0.015747,-0.178955,0.939697,-2.990723,3.356934,6.225586
6652,0.013672,-0.052246,0.870605,-1.831055,3.356934,6.530762
6661,0.016113,0.061890,0.982910,-1.647949,3.479004,7.080078
6671,0.038086,-0.146118,0.929077,-1.464844,3.295898,7.385254
6681,0.064453,-0.247681,0.898804,-1.647949,3.234863,7.324219
6691,0.017090,0.004639,1.051514,-2.197266,2.746582,7.324219
6701,-0.009033,0.156250,1.113525,-2.258301,2.319336,7.446289
6710,0.001465,-0.030151,1.009521,-1.098633,1.892090,7.873535
6722,0.008789,-0.047852,1.071777,-1.037598,1.953125,8.178711
6731,0.017212,-0.006592,1.119019,-0.854492,2.014160,8.728027
6740,-0.003906,-0.185547,1.061035,-0.305176,2.075195,9.094238
6751,-0.014404,-0.294189,0.916748,-0.366211,2.136230,9.094238
6761,-0.086304,-0.020386,0.896606,-0.793457,2.319336,8.605957
6771,-0.011963,-0.005859,0.960449,-1.037598,2.136230,8.422852
6780,-0.083984,-0.301025,0.884888,-2.990723,1.159668,7.080078
6792,-0.029541,0.073975,1.005249,-3.906250,1.403809,7.446289
6801,0.004395,-0.115112,0.975342,-3.906250,1.586914,7.995605
6811,-0.050903,-0.163086,0.983521,-4.394531,1.525879,8.300781
6820,-0.006958,-0.022095,1.041016,-4.516602,1.525879,8.483887
6831,0.000977,-0.083496,1.058838,-4.028320,1.281738,8.972168
6840,0.011963,-0.148071,0.989014,-3.784180,0.976562,9.155273
6852,-0.011230,0.086914,0.976562,-4.394531,0.732422,9.216309
6861,-0.021973,-0.223267,0.898437,-3.356934,0.488281,9.277344
6871,-0.013428,-0.179321,0.834351,-3.356934,0.610352,9.277344
6880,-0.011597,0.128296,0.966431,-4.089355,0.671387,9.033203
6891,-0.029419,-0.037476,0.976318,-3.906250,0.427246,9.033203
6900,0.001953,-0.233887,0.905884,-3.479004,0.305176,8.850098
6912,-0.030762,-0.094971,0.946411,-3.295898,0.305176,8.178711
6922,-0.029053,-0.159058,0.995117,-2.929688,0.000000,7.995605
6931,0.032349,-0.169922,0.958618,-2.746582,-0.122070,7.324219
6941,-0.037964,0.000244,0.980835,-2.685547,-0.183105,6.774902
6950,0.036377,-0.048950,1.031250,-2.014160,-0.366211,6.530762
6961,0.020874,-0.266602,0.933350,-1.586914,-0.488281,6.469727
6971,0.064331,-0.307617,0.937134,-1.525879,-0.549316,6.164551
6980,-0.001465,-0.150024,1.036377,-2.258301,-1.098633,5.859375
6992,0.057983,-0.095337,1.002075,-2.807617,-1.403809,5.065918
7002,0.108765,-0.117920,0.991577,-2.929688,-2.258301,4.882812
7011,0.053223,-0.092529,1.007568,-3.234863,-2.624512,4.821777
7021,0.057251,-0.052734,1.048706,-3.845215,-2.807617,5.004883
7030,0.112793,-0.008179,1.077148,-4.516602,-3.051758,4.821777
7041,0.025635,0.033325,1.051514,-4.455566,-3.967285,3.479004
7050,0.081299,-0.054321,0.995239,-3.906250,-4.333496,2.563477
7060,0.001587,-0.076416,1.087280,-3.784180,-5.126953,0.854492
7070,0.061646,0.020996,1.086182,-3.112793,-5.493164,0.366211
7080,-0.008667,0.049194,1.025146,-2.624512,-5.371094,0.061035
7090,-0.018799,-0.017822,1.016602,-2.319336,-5.371094,-0.610352
7101,0.036133,-0.010620,1.045410,-1.831055,-5.187988,-1.098633
7110,-0.008789,0.013428,1.037354,-1.586914,-5.371094,-1.586914
7120,-0.027100,0.028442,1.062500,-1.037598,-5.187988,-2.197266
7133,-0.015259,-0.082153,0.992676,-0.122070,-4.821777,-3.417969
7143,0.011719,-0.110962,0.962769,0.610352,-4.455566,-3.906250
7152,0.004272,-0.034668,0.951904,1.281738,-4.272461,-4.516602
7162,0.045532,-0.042725,1.014282,1.831055,-4.028320,-4.699707
7171,0.001221,-0.166626,0.927856,1.892090,-4.089355,-4.638672
7180,0.000732,-0.133179,0.848267,1.892090,-3.784180,-4.638672
7190,-0.004639,0.011597,0.944092,1.831055,-3.540039,-4.272461
7203,-0.010742,-0.126343,0.974243,1.220703,-2.990723,-4.089355
7213,-0.004395,-0.032837,1.043213,1.281738,-2.868652,-4.272461
7222,-0.036987,-0.001831,1.038452,1.586914,-3.051758,-4.455566
7232,-0.042480,-0.150635,1.033569,1.831055,-3.112793,-4.760742
7241,0.050415,-0.202148,1.009155,1.770020,-2.746582,-5.004883
7251,0.002930,-0.049438,0.999634,1.770020,-2.502441,-5.004883
7261,0.028809,-0.095825,1.005981,1.647949,-2.502441,-5.065918
7270,0.013428,-0.419312,0.644775,1.586914,-2.624512,-4.821777
7282,0.096191,-0.033936,0.933594,0.000000,-2.136230,-4.638672
7291,0.112183,-0.204712,0.880615,-0.610352,-2.014160,-4.333496
7301,0.045898,-0.069946,0.882935,-1.586914,-1.770020,-4.272461
7310,0.024536,0.045288,0.997803,-1.953125,-2.197266,-4.516602
7320,-0.059326,-0.110596,1.017334,-2.685547,-2.563477,-5.187988
7330,-0.059082,-0.150391,0.962646,-2.990723,-2.990723,-5.981445
7340,-0.002441,0.114746,1.018066,-2.685547,-2.624512,-6.042480
7352,-0.022339,-0.197266,0.988525,-1.403809,-1.525879,-4.821777
7361,-0.025391,-0.307495,0.902344,-1.403809,-1.098633,-3.845215
7371,0.053833,-0.076172,0.939209,-1.892090,-0.549316,-3.112793
7380,0.002075,-0.060791,0.973877,-2.380371,-0.244141,-2.258301
7390,0.015381,-0.169067,0.916016,-3.112793,0.122070,-1.647949
7401,-0.008179,-0.051147,1.006958,-3.662109,0.000000,-1.281738
7410,0.076782,-0.022095,1.054077,-4.089355,-0.122070,-1.403809
7422,0.012329,-0.142822,1.045166,-4.821777,-0.366211,-1.647949
7431,0.098755,0.060791,1.060547,-5.249023,-0.427246,-2.014160
7441,0.038330,-0.082520,1.049316,-4.760742,-0.854492,-2.014160
7450,0.056763,-0.230591,0.979736,-4.638672,-1.342773,-2.380371
7460,0.039063,-0.076416,1.073242,-5.004883,-1.159668,-2.136230
7469,0.144409,0.029175,1.096069,-5.065918,-1.342773,-1.953125
7481,-0.044312,-0.010742,1.024170,-4.760742,-1.586914,-1.525879
7491,-0.027954,-0.023804,1.030151,-5.065918,-1.342773,-1.708984
7501,0.050171,-0.007813,1.013062,-4.638672,-1.464844,-1.953125
7511,-0.063354,0.024902,0.981445,-4.455566,-1.159668,-1.708984
7520,-0.026978,-0.092529,0.911377,-4.150391,-1.220703,-1.708984
7530,-0.020020,-0.025391,0.974609,-4.577637,-1.159668,-1.892090
7540,-0.000488,0.023315,0.964478,-4.821777,-0.915527,-1.708984
7549,-0.057007,-0.050781,0.932495,-4.394531,-0.549316,-1.464844
7561,0.013062,0.023315,1.086182,-3.234863,0.610352,-1.098633
7571,-0.067749,-0.158081,0.996948,-2.441406,0.366211,-0.976562
7581,-0.102417,-0.054443,1.006958,-2.075195,0.854492,-1.098633
7590,0.005249,-0.071289,1.047485,-1.586914,0.976562,-1.159668
7600,-0.066528,0.010132,1.080933,-1.159668,1.159668,-1.403809
7610,-0.025879,-0.153809,1.000732,-0.549316,1.098633,-1.403809
7620,-0.056519,-0.225586,0.906982,0.549316,1.342773,-0.610352
7631,-0.032349,-0.140869,0.994873,0.976562,1.953125,0.671387
7641,-0.009521,-0.237427,0.921021,1.281738,2.075195,1.342773
7650,0.030762,-0.178833,0.901489,1.403809,2.441406,2.746582
7660,0.015259,-0.008789,0.944214,1.647949,3.051758,3.967285
7670,0.038452,-0.174683,0.944702,1.647949,2.746582,4.943848
7679,0.034180,-0.259399,0.967773,1.464844,2.319336,5.493164
7691,0.064697,-0.077759,0.998169,1.586914,1.403809,6.774902
7700,0.025635,-0.106323,0.995728,1.708984,1.220703,7.263184
7711,0.030762,-0.166382,0.934814,1.708984,0.915527,7.629395
7720,0.025757,0.026001,0.977661,1.464844,0.671387,7.690430
7729,-0.020264,0.065552,1.004395,1.464844,0.732422,7.812500
7740,-0.021484,-0.128052,0.934692,1.464844,0.427246,7.751465
7749,-0.053833,-0.198364,0.976562,0.976562,0.305176,7.324219
7761,-0.013916,-0.047974,1.031494,0.427246,-0.061035,6.286621
7770,-0.014526,-0.073975,1.049683,0.061035,0.061035,5.737305
7781,-0.037354,-0.139648,1.024658,-0.366211,-0.244141,5.432129
7790,-0.035767,-0.039063,0.937378,-0.671387,-0.427246,4.882812
7800,0.022827,-0.007568,0.968872,-0.488281,-0.427246,4.516602
7810,-0.009033,-0.121826,0.946167,-0.549316,-0.671387,4.028320
7820,-0.006470,-0.071655,0.958130,-1.037598,-0.671387,3.295898
7831,-0.027832,0.019653,1.028931,-0.976562,-1.464844,1.892090
7841,-0.018311,-0.214966,1.053101,-0.732422,-1.342773,1.220703
7851,0.021851,-0.066528,1.035278,-0.671387,-1.647949,0.610352
7860,0.006958,0.024170,1.063232,-0.305176,-2.014160,0.549316
7869,0.050781,-0.071411,1.051514,0.122070,-2.014160,0.244141
7880,0.024048,-0.242798,0.961548,0.183105,-1.953125,0.244141
7890,0.057495,-0.167725,0.902588,-0.244141,-1.892090,0.427246
7899,0.066040,-0.010620,0.996338,-0.427246,-2.014160,0.854492
7911,0.012207,-0.152100,1.021729,-0.732422,-2.075195,0.305176
7921,0.038940,-0.179810,1.019531,-1.281738,-2.380371,-0.244141
7930,-0.010742,-0.114502,1.006226,-0.915527,-2.624512,-1.159668
7940,-0.019409,-0.083374,1.040527,-0.244141,-2.868652,-2.075195
7950,-0.001465,-0.068237,1.061157,-0.366211,-2.990723,-2.929688
7959,0.006592,-0.115723,1.012817,0.061035,-2.990723,-3.784180
7971,0.026733,-0.142212,0.914429,0.061035,-2.990723,-4.211426
7980,-0.005981,-0.133057,0.938599,-0.427246,-2.868652,-4.394531
7990,0.093384,0.004639,1.035400,-1.403809,-2.502441,-4.821777
7999,-0.042236,0.001343,1.008423,-1.770020,-2.929688,-5.310059
8009,0.042358,-0.075684,1.039551,-1.220703,-3.234863,-5.920410
8019,0.010742,-0.158447,1.018799,-0.549316,-2.990723,-6.164551
8030,0.027588,-0.146973,0.875122,-0.305176,-3.173828,-6.774902
8039,-0.003662,0.023071,0.948608,-0.427246,-3.173828,-7.263184
8051,0.043945,-0.170166,0.796265,-0.854492,-3.479004,-7.751465
8061,0.040283,0.060669,0.851929,-2.380371,-2.990723,-7.690430
8070,0.041260,0.018066,0.897217,-3.234863,-2.929688,-7.629395
8080,0.017090,-0.109375,0.893066,-3.356934,-2.563477,-7.446289
8089,-0.036621,0.005615,0.987671,-3.601074,-2.502441,-7.324219
8099,0.004395,0.045410,1.088379,-3.845215,-2.563477,-7.690430
8109,-0.020386,-0.048706,1.115601,-3.784180,-2.258301,-7.690430
8121,-0.002930,0.048828,1.065674,-3.112793,-2.197266,-7.141113
8130,0.013062,-0.045410,1.058960,-1.647949,-1.220703,-6.835937
8140,0.048828,-0.168823,0.935791,-1.586914,-1.037598,-6.225586
8150,0.001221,-0.011719,0.901489,-1.953125,-0.854492,-5.920410
8159,0.063477,0.088257,0.986938,-2.258301,-0.732422,-5.554199
8170,0.037720,-0.058838,0.980469,-2.319336,-0.549316,-4.943848
8179,0.004272,-0.185791,0.978638,-2.197266,-0.183105,-4.211426
8189,-0.036621,-0.053711,1.026123,-2.380371,0.244141,-2.868652
8199,-0.040039,-0.012085,1.083252,-2.685547,0.305176,-2.075195
8210,-0.105713,-0.095093,0.920776,-2.624512,0.305176,-1.647949
8219,-0.047852,0.020874,0.927979,-2.441406,0.976562,-1.098633
8229,-0.074951,-0.217163,0.783936,-2.746582,1.098633,-0.488281
8239,-0.090210,-0.079834,0.900269,-3.723145,1.281738,0.000000
8249,-0.042480,0.026001,0.992065,-5.004883,1.159668,0.549316
8259,-0.077393,-0.336670,0.462402,-5.249023,1.220703,1.098633
8270,0.028442,0.248413,1.321411,-7.751465,2.380371,1.831055
8279,-0.066650,0.156372,1.275391,-5.798340,2.014160,2.563477
8289,-0.164673,0.089844,1.405518,-4.821777,2.258301,3.173828
8299,-0.152344,-0.144531,1.183472,-2.380371,2.563477,3.540039
8309,-0.123291,-0.385864,0.769775,-0.305176,2.502441,3.173828
8319,-0.052734,-0.209473,0.898560,-0.915527,2.746582,2.136230
8331,0.094238,0.010376,0.795166,-2.136230,2.746582,3.295898
8341,0.073364,-0.069092,0.875977,-3.173828,2.624512,3.601074
8350,0.017090,-0.089844,0.903320,-2.807617,2.380371,3.845215
8360,0.032837,-0.052490,0.998413,-1.831055,2.014160,3.417969
8369,0.000977,-0.309814,1.101807,-1.037598,1.770020,2.807617
8379,-0.021118,-0.154907,1.214600,-1.281738,1.159668,2.319336
8389,-0.010986,0.030640,1.186157,-1.037598,0.854492,2.258301
8401,-0.014282,-0.173218,1.022339,1.708984,0.732422,2.197266
8410,0.023437,-0.247314,0.937378,2.258301,0.854492,2.197266
8420,0.000610,-0.122681,0.917725,1.403809,1.098633,2.197266
8429,0.027954,-0.049072,0.982666,0.122070,0.732422,1.892090
8439,0.027954,-0.260620,0.882080,-0.183105,0.671387,1.708984
8449,0.012329,-0.163330,0.890991,-0.244141,0.427246,1.586914
8459,-0.021118,0.003174,1.015625,-0.122070,0.061035,1.098633
8471,0.014893,-0.177734,1.110229,-0.488281,-0.610352,0.610352
8481,0.010132,-0.080933,1.047607,-1.037598,-0.854492,0.122070
8490,0.049805,-0.037354,1.007690,-0.671387,-0.732422,-0.122070
8500,0.063477,-0.043091,1.018433,-0.183105,-0.610352,-0.183105
8510,0.037964,-0.126831,0.968140,0.244141,-0.976562,-0.305176
8519,0.051880,-0.136475,0.998657,0.366211,-1.342773,-0.610352
8529,0.060913,0.004883,1.012695,0.183105,-1.770020,-1.220703
8541,-0.033447,0.226685,1.011963,0.976562,-2.075195,-1.281738
8551,0.035522,-0.062012,0.983276,2.990723,-2.380371,-1.403809
8560,0.031372,-0.383301,1.026733,4.638672,-2.075195,-1.098633
8570,-0.024536,-0.140747,1.075073,3.112793,-1.708984,-0.915527
8579,-0.043579,-0.147339,0.922119,1.953125,-1.708984,-0.610352
8588,-0.041016,-0.214600,0.813965,1.342773,-1.647949,-0.732422
8599,-0.045410,0.156860,0.947510,-0.427246,-1.403809,-0.854492
8609,-0.049927,-0.109375,0.809448,-0.976562,-0.732422,-0.488281
8620,-0.134766,0.203735,1.052979,-1.281738,-0.427246,0.000000
8630,-0.045532,-0.057373,1.010986,-0.488281,0.061035,0.122070
8640,-0.061035,-0.332764,0.978516,0.366211,0.915527,0.732422
8649,-0.083740,-0.108032,1.078491,-0.183105,1.159668,0.732422
8658,-0.085083,0.003418,1.054077,-0.915527,1.220703,0.732422
8669,-0.011963,-0.184814,0.895996,-0.549316,0.854492,0.793457
8678,-0.041748,-0.182739,0.837769,-0.183105,0.915527,1.037598
8690,0.071167,-0.311523,0.888794,-0.915527,0.915527,2.258301
8699,0.063477,-0.072266,0.930420,-3.662109,0.671387,2.380371
8708,0.058960,0.204468,1.046875,-4.272461,0.244141,2.502441
8719,0.056030,0.029541,1.033569,-4.089355,-0.366211,2.197266
8728,0.090454,-0.139160,1.032471,-4.150391,-0.854492,1.953125
8739,0.046509,0.025146,1.100952,-3.356934,-1.159668,1.464844
8748,0.074219,0.051392,1.151245,-2.685547,-2.075195,0.732422
8759,0.076782,-0.156738,0.942505,-2.136230,-2.197266,0.183105
8769,0.058960,-0.005249,0.998901,-1.220703,-2.990723,0.000000
8779,0.036621,0.023926,0.992920,-1.342773,-3.051758,-0.549316
8788,0.043213,-0.142334,0.910767,-1.647949,-2.868652,-0.732422
8799,0.046631,-0.141357,0.935303,-1.770020,-2.990723,-1.159668
8808,0.033325,-0.038086,1.010620,-2.258301,-3.112793,-1.403809
8820,0.030396,-0.063843,0.982422,-2.929688,-3.784180,-2.929688
8829,-0.027588,-0.117310,1.092407,-2.868652,-4.455566,-3.967285
8839,-0.003296,-0.126709,1.002319,-3.234863,-4.516602,-4.516602
8849,-0.057739,-0.197998,0.901489,-3.295898,-4.638672,-5.310059
8859,-0.046631,-0.027588,1.041138,-3.295898,-4.150391,-5.554199
8868,-0.046753,0.056763,1.019409,-3.845215,-3.540039,-5.371094
8878,-0.030151,-0.113281,0.938110,-3.723145,-3.540039,-5.249023
8888,-0.072388,-0.116943,0.923340,-2.807617,-3.417969,-5.065918
8900,-0.013184,-0.248657,0.969116,-2.563477,-2.685547,-4.333496
8909,-0.013916,-0.138672,0.981323,-1.953125,-2.258301,-4.150391
8919,-0.005371,0.034058,1.029541,-1.770020,-2.075195,-3.784180
8929,0.028076,-0.128174,0.993408,-1.647949,-2.075195,-3.479004
8938,-0.023437,-0.222290,0.909180,-1.708984,-2.258301,-3.112793
8948,0.023071,0.046753,0.993896,-2.014160,-2.258301,-2.990723
8959,0.049316,0.005371,1.067017,-0.976562,-1.892090,-2.075195
8969,-0.020264,-0.121826,0.988647,-1.159668,-1.770020,-2.380371
8979,0.011719,0.014038,1.011353,-0.671387,-1.708984,-2.990723
8989,0.011353,-0.135620,0.937866,0.488281,-1.953125,-3.601074
8998,-0.015381,-0.303711,0.906494,0.549316,-1.953125,-4.272461
9008,-0.006470,-0.077393,0.964844,-0.244141,-2.136230,-5.187988
9018,-0.015015,0.009888,0.978516,-0.488281,-2.075195,-5.798340
9028,-0.028931,-0.273071,0.814697,-0.671387,-2.136230,-6.164551
9038,0.000244,-0.175049,0.833374,-2.563477,-1.892090,-6.835937
9049,0.032227,-0.146606,0.982666,-3.173828,-1.464844,-6.958008
9059,-0.007568,-0.034790,0.978027,-3.479004,-1.708984,-7.263184
9069,-0.004761,0.104858,1.083252,-3.356934,-2.014160,-7.385254
9078,-0.032349,-0.021606,1.089111,-3.234863,-1.831055,-7.446289
9088,0.053101,-0.091797,1.069336,-3.173828,-1.708984,-7.080078
9098,0.044434,-0.025146,1.080078,-2.563477,-1.525879,-6.835937
9108,0.013916,-0.010010,0.980469,-2.197266,-1.586914,-6.408691
9118,0.044678,-0.119385,0.994873,-2.502441,-1.281738,-6.042480
9128,0.071289,0.006348,1.002563,-2.502441,-1.342773,-5.798340
9138,0.046021,0.038208,1.066040,-2.563477,-1.586914,-5.920410
9148,0.007202,-0.036987,1.058716,-2.685547,-2.136230,-6.042480
9158,0.003662,-0.098633,1.031372,-2.136230,-2.502441,-6.408691
9168,0.002808,0.012817,1.012451,-1.586914,-2.258301,-6.652832
9178,-0.014771,-0.009033,0.982910,-1.098633,-2.319336,-6.713867
9188,-0.008179,-0.038940,0.948608,-1.098633,-2.319336,-6.652832
9197,-0.023682,-0.058960,0.945801,-0.732422,-1.892090,-6.591797
9207,-0.052002,-0.156372,0.857422,-0.854492,-1.586914,-6.347656
9218,-0.063354,0.004395,0.912476,-1.281738,-1.159668,-6.042480
9227,-0.025879,-0.017456,1.005127,-1.770020,-0.671387,-5.737305
9237,-0.119507,-0.197876,0.891968,-1.953125,-0.488281,-5.310059
9250,-0.115845,0.113159,1.069702,-2.197266,0.305176,-4.516602
9260,-0.074951,-0.220459,0.965332,-1.770020,0.549316,-4.272461
9270,-0.114746,-0.178101,1.031372,-1.586914,1.098633,-3.845215
9279,-0.066040,0.057861,1.060669,-1.281738,0.976562,-3.967285
9289,-0.105835,-0.107056,0.960449,-0.610352,0.671387,-4.028320
9299,-0.047485,-0.246216,0.828735,-0.305176,0.976562,-3.723145
9309,0.016479,0.062744,0.961914,-0.732422,2.197266,-2.502441
9317,0.096191,-0.023682,1.021484,-0.732422,2.197266,-2.502441
9329,-0.037231,-0.064087,1.026611,-1.220703,1.831055,-2.746582
9339,0.011108,0.119507,1.083740,-0.976562,1.403809,-3.417969
9348,0.004639,-0.128418,1.016357,0.000000,1.098633,-3.601074
9358,-0.030273,-0.247925,0.895996,0.488281,1.098633,-3.417969
9368,0.045166,-0.003784,0.983765,0.122070,0.976562,-3.112793
9377,0.074463,-0.209106,0.827881,-0.305176,1.281738,-2.685547
9390,0.015747,-0.028809,0.922974,-1.892090,1.159668,-1.647949
9400,0.040161,-0.141235,0.875977,-2.441406,0.915527,-1.586914
9409,-0.052124,-0.091187,0.954834,-2.502441,0.610352,-1.892090
9419,-0.034546,-0.038452,1.107788,-2.624512,0.366211,-1.647949
9429,0.005127,-0.128174,1.010498,-3.051758,0.671387,-1.525879
9439,-0.036133,-0.143433,0.994507,-3.295898,0.854492,-1.464844
9448,-0.014526,-0.029541,1.073120,-2.929688,0.732422,-1.525879
9458,-0.005981,0.008545,1.026733,-3.112793,0.549316,-1.525879
9468,0.031128,-0.170288,0.960571,-2.868652,0.671387,-1.831055
9478,0.011475,0.006470,1.006104,-2.868652,0.549316,-1.831055
9487,-0.000732,-0.096191,1.027100,-3.112793,0.366211,-1.953125
9498,0.003052,-0.107544,1.045044,-2.929688,0.244141,-2.380371
9507,0.045776,-0.110596,1.020996,-2.624512,-0.183105,-2.807617
9517,-0.025146,-0.092529,0.987549,-2.441406,-0.244141,-3.173828
9530,0.060669,-0.124756,1.017578,-2.075195,-0.976562,-3.967285
9539,0.040894,-0.056152,1.016846,-2.319336,-0.976562,-3.784180
9549,-0.008179,-0.140259,0.925415,-2.258301,-1.342773,-3.723145
9564,0.075195,0.080200,1.027344,-3.173828,-1.159668,-3.723145
9574,-0.005371,-0.031982,1.058838,-2.929688,-0.976562,-3.479004
9584,-0.043091,-0.025635,1.007446,-2.441406,-1.037598,-3.540039
9594,-0.010742,-0.006348,1.052490,-2.136230,-0.793457,-3.662109
9604,-0.024658,-0.053589,1.041626,-1.586914,-0.976562,-3.662109
9613,-0.008667,-0.184692,0.974731,-0.793457,-0.915527,-3.356934
9623,-0.017700,-0.120483,0.882324,-0.915527,-0.671387,-3.234863
9633,-0.005493,-0.011597,0.959595,-2.441406,0.000000,-2.868652
9642,-0.026489,-0.165039,0.884277,-3.356934,0.000000,-2.990723
9652,-0.041870,0.111328,0.931519,-3.601074,0.244141,-2.990723
9661,-0.059082,-0.076782,0.966797,-3.723145,-0.061035,-3.356934
9671,-0.078857,-0.076660,1.004028,-3.784180,-0.366211,-4.028320
9681,-0.033813,0.039917,1.144165,-2.990723,-0.305176,-4.333496
9691,-0.103760,-0.048096,1.092651,-2.075195,-0.061035,-4.638672
9700,-0.035156,-0.108521,1.123535,-1.403809,0.000000,-5.004883
9710,-0.010620,-0.091431,1.081665,-0.244141,0.244141,-4.760742
9719,0.036743,-0.062012,1.027466,0.549316,0.549316,-4.394531
9729,0.045410,-0.159180,0.966675,1.098633,0.366211,-3.784180
9739,0.092407,-0.265869,0.876465,0.427246,-0.122070,-3.479004
9748,0.131470,-0.090454,0.908447,-0.183105,-0.366211,-3.479004
9757,0.109497,-0.177979,0.860474,-0.915527,-0.915527,-3.601074
9767,0.090942,0.040161,0.979126,-1.403809,-1.708984,-3.906250
9777,0.103394,0.038940,1.086426,-1.098633,-2.136230,-4.333496
9787,0.024170,-0.210327,0.950317,-1.098633,-2.563477,-4.211426
9797,0.057129,-0.052124,0.950562,-1.647949,-2.807617,-4.699707
9807,0.054443,0.092896,1.052490,-1.831055,-2.807617,-4.760742
9818,0.004883,-0.184570,0.911377,-1.464844,-2.868652,-5.249023
9828,0.045166,0.079346,1.004150,-2.014160,-3.234863,-5.981445
9838,0.014893,-0.125732,1.017456,-2.075195,-3.601074,-6.774902
9847,0.014771,-0.272583,0.947388,-2.441406,-4.028320,-7.751465
9857,0.007446,0.047363,1.019043,-2.929688,-4.150391,-8.605957
9867,0.010010,0.067261,1.085815,-2.746582,-4.577637,-9.460449
9877,-0.000732,-0.201660,1.064697,-1.892090,-4.211426,-10.070801
9886,0.017456,-0.167725,1.057983,-2.258301,-3.906250,-10.375977
9898,-0.049805,-0.052368,1.039795,-1.831055,-3.784180,-10.131836
9907,0.005981,-0.116211,1.006592,-1.708984,-3.479004,-9.826660
9917,-0.013550,-0.080566,0.967896,-1.342773,-3.234863,-9.643555
9927,0.019287,-0.061768,0.990234,-0.732422,-2.990723,-9.155273
9937,-0.053711,-0.129272,0.957886,-0.183105,-2.685547,-8.728027
9946,0.004761,-0.221191,0.929687,-0.427246,-2.441406,-8.422852
9959,-0.038574,-0.087158,0.932861,-1.098633,-1.770020,-7.873535
9968,-0.070557,-0.218384,0.872803,-1.098633,-1.770020,-7.324219
9978,-0.041016,-0.083496,0.924561,-1.464844,-1.342773,-7.019043
9988,-0.064087,-0.032959,0.950562,-1.831055,-1.159668,-6.713867
9997,-0.036743,-0.266846,0.845825,-2.319336,-0.732422,-6.042480
10007,-0.053345,-0.076660,0.927979,-2.929688,-0.244141,-5.432129
10016,-0.047607,0.167725,1.043213,-3.234863,0.244141,-4.760742
10029,-0.060669,-0.146973,1.075073,-2.380371,0.915527,-3.356934
10038,-0.056641,-0.100586,1.048462,-2.014160,1.159668,-2.990723
10048,-0.068237,0.026855,1.021851,-1.525879,1.281738,-2.319336
10057,-0.034546,-0.045654,1.065308,-1.159668,1.525879,-2.014160
10067,-0.023071,-0.119995,1.076294,-1.159668,1.403809,-1.831055
10077,-0.003784,-0.100098,0.972290,-0.793457,0.915527,-2.075195
10086,-0.036499,-0.035156,0.947510,-0.793457,0.732422,-2.319336
10099,0.053711,-0.168335,0.998657,-0.732422,0.793457,-2.136230
10108,-0.008057,-0.111938,0.999390,-0.793457,0.366211,-2.441406
10118,-0.031982,-0.047485,0.977661,-0.976562,-0.183105,-2.685547
10128,0.024292,-0.111328,0.984375,-0.732422,-0.305176,-2.868652
10137,0.014404,-0.061279,1.017090,-0.549316,-0.305176,-3.051758
10146,-0.002441,-0.045044,1.043945,-0.671387,-0.732422,-3.234863
10156,-0.010864,-0.044678,1.016113,-0.793457,-0.793457,-3.295898
10166,-0.012939,-0.090454,0.977051,-0.854492,-0.732422,-3.723145
10178,-0.009399,0.032593,0.991333,-1.403809,-0.976562,-3.906250
10187,0.016357,-0.065063,0.998169,-1.708984,-0.732422,-4.394531
10197,-0.040894,-0.122192,0.998901,-1.708984,-1.037598,-5.126953
10207,0.000610,-0.003906,1.036377,-1.647949,-1.159668,-5.554199
10216,-0.024292,0.054687,1.085083,-1.281738,-1.159668,-6.042480
10226,-0.022827,-0.088867,1.079590,-0.610352,-0.732422,-6.591797
10239,0.015381,-0.045166,1.060059,0.366211,-0.732422,-7.263184
10248,-0.039185,0.016235,1.026855,0.793457,-0.915527,-7.507324
10258,0.022705,-0.085205,0.937988,1.220703,-1.098633,-7.690430
10267,0.026978,-0.218262,0.833862,1.586914,-0.915527,-7.690430
10276,0.059570,-0.039551,0.896606,1.098633,-0.976562,-7.568359
10286,0.008911,-0.014404,0.932739,0.488281,-0.915527,-7.568359
10296,0.035522,-0.171143,0.948853,0.488281,-0.976562,-7.629395
10307,0.004395,-0.125244,0.973999,0.000000,-1.586914,-8.117676
10317,-0.039551,-0.073120,1.050537,-0.183105,-1.586914,-8.483887
10327,-0.087402,-0.124878,1.017090,0.061035,-1.708984,-8.728027
10336,-0.064697,-0.049927,0.949585,0.244141,-1.647949,-9.155273
10347,0.035034,-0.082031,0.932373,0.610352,-0.854492,-9.216309
10356,0.041870,-0.127197,0.960083,0.427246,-0.244141,-8.666992
10366,-0.000244,-0.097168,1.000854,0.488281,0.183105,-9.033203
10377,0.028442,-0.027100,1.078735,0.000000,-0.183105,-11.291504
10387,-0.030029,-0.083130,1.049805,0.671387,-0.854492,-12.756348
10396,-0.041626,-0.072754,1.020386,1.220703,-1.464844,-13.610840
10406,0.040405,-0.051270,0.983154,1.403809,-0.976562,-13.488770
10416,0.048340,-0.178101,0.990967,1.464844,-0.488281,-13.000488
10426,0.047119,-0.167847,0.979248,1.403809,-0.183105,-12.023926
10435,0.069214,-0.091309,0.920654,0.854492,0.183105,-11.230469
10447,0.055054,-0.142456,0.980347,0.122070,-0.305176,-11.291504
10457,0.022705,-0.050171,1.009888,-0.366211,-0.549316,-11.596680
10467,-0.020508,0.006470,1.076416,-0.488281,-0.610352,-12.145996
10476,-0.057739,-0.093506,1.083130,-0.244141,-0.549316,-12.145996
10485,-0.036377,-0.112671,0.992554,0.122070,-0.366211,-11.840820
10496,-0.031738,-0.104858,0.983643,0.732422,-0.061035,-11.474609
10506,-0.008179,-0.093384,0.965454,0.976562,0.488281,-10.986328
10516,0.005005,-0.123901,0.925659,0.793457,0.854492,-10.314941
10525,-0.013550,-0.280518,0.796753,-0.793457,1.831055,-9.216309
10536,0.040039,-0.071045,0.935791,-2.014160,1.892090,-8.666992
10546,-0.004883,-0.121094,0.943970,-2.624512,1.586914,-8.300781
10555,-0.058228,0.000122,1.028320,-2.807617,1.770020,-7.873535
10566,-0.046021,0.071167,1.069458,-2.624512,1.953125,-7.690430
10576,-0.084961,-0.071411,1.075684,-1.892090,2.197266,-7.446289
10587,-0.059204,-0.177490,1.049927,-1.159668,3.051758,-7.324219
10597,-0.018188,0.031006,0.968262,-0.671387,3.051758,-7.263184
10607,-0.011719,-0.110718,0.931274,-0.671387,3.173828,-6.896973
10616,-0.018066,-0.188843,0.823853,-1.098633,3.662109,-6.286621
10626,0.008423,-0.055664,0.873657,-1.342773,3.723145,-5.737305
10636,0.048828,0.035645,0.945801,-1.708984,3.906250,-5.126953
10646,-0.018677,-0.105225,0.952759,-2.075195,4.089355,-4.150391
10655,0.000000,-0.179565,0.896606,-2.441406,4.211426,-3.356934
10667,-0.002197,-0.051025,1.051758,-3.417969,4.333496,-2.380371
10677,-0.092773,0.047119,1.107666,-4.333496,4.150391,-2.258301
10687,-0.054687,0.144775,1.124146,-4.028320,3.967285,-2.258301
10696,-0.120728,0.039551,1.088989,-2.990723,4.516602,-1.770020
10705,-0.109985,-0.100952,1.079590,-2.319336,5.004883,-1.464844
10716,-0.104004,-0.086792,1.045288,-1.770020,5.493164,-1.098633
10725,-0.091431,-0.011719,1.025269,-1.220703,5.615234,-0.610352
10737,-0.086670,-0.231567,0.888794,-0.854492,5.981445,1.281738
10746,-0.039673,-0.286011,0.828369,-0.976562,6.713867,2.075195
10756,-0.043701,0.011841,0.951660,-1.647949,6.774902,2.319336
10766,0.017822,-0.014038,1.022705,-2.258301,6.347656,2.441406
10776,-0.007813,-0.247681,0.929687,-2.624512,5.493164,2.563477
10785,-0.005981,-0.046265,0.908569,-3.173828,5.065918,2.136230
10797,0.029053,0.105103,0.992554,-3.051758,4.516602,1.770020
10806,0.025757,-0.009155,0.909180,-2.868652,4.028320,1.831055
10817,0.077026,0.060181,1.002808,-2.685547,3.479004,1.892090
10826,0.033081,-0.165649,0.808228,-2.380371,3.784180,2.014160
10835,0.003418,-0.065918,0.866943,-2.258301,3.540039,2.075195
10846,0.055908,0.002686,1.021729,-1.892090,3.356934,2.380371
10856,0.033936,-0.142090,0.959595,-1.831055,3.295898,2.624512
10866,-0.018188,-0.211914,0.891724,-2.502441,2.868652,2.868652
10875,0.012451,-0.018433,0.939087,-2.746582,2.319336,2.746582
10886,-0.029297,-0.166748,0.842163,-3.662109,1.953125,2.563477
10896,-0.030762,0.127319,1.014038,-4.150391,1.831055,2.624512
10905,0.002075,0.002197,1.117188,-3.845215,1.770020,2.807617
10916,-0.031860,-0.141968,1.035889,-3.662109,1.586914,2.929688
10926,-0.061157,-0.079224,1.029297,-2.929688,1.647949,2.746582
10935,-0.049683,0.011108,1.135132,-2.197266,1.831055,2.502441
10947,-0.040649,-0.148926,1.071411,-1.831055,1.281738,1.464844
10956,-0.038330,-0.112671,1.081665,-0.244141,0.976562,1.159668
10966,0.019043,-0.138062,1.085083,0.305176,1.159668,1.342773
10976,0.003052,-0.167969,1.036743,0.061035,1.159668,1.403809
10985,0.026855,-0.228882,0.990967,-0.427246,0.854492,1.037598
10995,0.011353,-0.153564,1.024048,-0.793457,0.671387,0.183105
11006,0.024780,-0.061035,1.045288,-1.159668,0.610352,-0.610352
11015,-0.015015,-0.070190,0.998413,-1.037598,-0.427246,-2.563477
11025,-0.023560,-0.162476,1.011353,-0.793457,-0.488281,-3.112793
11035,0.028320,-0.069336,1.023071,-0.793457,-0.366211,-3.540039
11046,-0.014771,-0.028076,1.000366,-1.098633,-0.732422,-4.028320
11055,0.006104,-0.081055,1.024048,-1.281738,-0.732422,-4.272461
11065,0.018188,-0.080444,1.018066,-1.159668,-0.549316,-4.455566
11076,-0.020264,-0.002197,0.986816,-1.159668,-0.671387,-4.943848
11085,-0.042480,-0.044067,0.984985,-0.732422,-0.366211,-5.737305
11095,-0.053589,-0.056519,1.000122,-0.244141,-0.122070,-6.225586
11105,-0.044312,-0.027954,0.971680,-0.122070,-0.305176,-6.530762
11115,-0.029297,-0.111694,0.912720,0.000000,-0.122070,-6.530762
11125,-0.016357,-0.169922,0.925293,0.610352,-0.122070,-6.713867
11135,0.033447,-0.062134,0.968628,0.854492,-0.122070,-6.652832
11145,-0.001831,-0.039795,1.004761,0.854492,0.122070,-6.774902
11155,0.020630,-0.131592,1.026733,0.549316,-0.122070,-6.469727
11166,-0.017578,-0.011963,0.977539,0.976562,0.122070,-6.469727
11176,0.012329,0.059814,1.057007,1.403809,0.366211,-6.530762
11185,0.004395,-0.064819,1.076538,2.014160,0.122070,-6.225586
11195,0.018921,-0.156006,1.039063,2.563477,0.366211,-5.920410
11205,0.001099,-0.167969,1.013428,2.868652,0.427246,-5.615234
11215,-0.021118,-0.069824,0.991943,2.990723,0.366211,-5.310059
11227,0.010132,-0.114868,0.984497,2.563477,0.427246,-4.638672
11237,-0.020264,-0.137939,0.979248,2.258301,0.793457,-4.455566
11246,0.012085,-0.075928,0.969482,1.831055,0.793457,-4.089355
11255,-0.004761,-0.038940,1.035767,1.464844,1.098633,-3.723145
11265,-0.034424,-0.052002,1.051758,0.793457,0.976562,-3.601074
11275,0.026123,-0.076172,1.014526,0.183105,1.220703,-3.601074
11285,-0.055176,0.010864,0.993042,-0.488281,1.098633,-3.784180
11297,-0.018066,-0.127808,0.899536,-0.854492,0.976562,-3.601074
11307,-0.019897,-0.061890,0.889771,-1.098633,1.464844,-3.601074
11317,-0.046021,0.118530,1.004517,-1.403809,1.770020,-3.051758
11326,-0.027222,0.076660,1.032104,-1.647949,1.708984,-2.624512
11336,-0.084717,-0.064209,1.009399,-1.586914,1.953125,-2.014160
11346,-0.057251,-0.067383,1.004761,-1.281738,2.624512,-1.708984
11355,-0.054810,0.051025,1.049316,-0.854492,2.563477,-1.220703
11365,-0.097900,-0.026855,1.114868,-0.549316,2.807617,-0.610352
11375,-0.119385,-0.115845,1.042969,0.183105,2.075195,-0.549316
11385,-0.050781,-0.010132,0.957153,0.854492,2.685547,0.427246
11394,-0.011230,-0.133667,0.890991,1.159668,3.662109,1.586914
11405,0.031128,-0.161865,0.916992,0.732422,4.577637,2.807617
11414,-0.004761,-0.022461,1.023682,0.732422,4.943848,3.601074
11425,-0.078491,-0.022095,0.993652,0.793457,4.638672,3.784180
11434,-0.037964,-0.188965,0.987061,0.671387,3.845215,3.479004
11446,0.000366,-0.098755,1.041382,1.037598,3.723145,3.112793
11455,-0.016968,-0.187134,1.025269,1.159668,3.601074,3.540039
11465,0.038086,-0.231689,0.946655,0.610352,3.356934,3.845215
11475,0.015381,-0.020874,0.927246,0.000000,3.173828,4.211426
11485,0.078979,-0.042480,0.919189,-0.427246,2.990723,4.577637
11495,0.026001,-0.330200,0.802979,-0.915527,2.746582,4.638672
11505,0.034058,-0.133545,0.894531,-2.136230,2.441406,3.906250
11516,-0.031372,-0.067993,1.052246,-3.112793,0.671387,1.770020
11526,-0.046143,-0.213501,1.050903,-3.051758,0.549316,0.976562
11535,-0.011475,-0.037354,1.124756,-2.990723,0.244141,0.183105
11545,-0.006592,0.016113,1.105957,-2.075195,0.305176,-0.183105
11555,-0.015259,-0.064331,1.085205,-1.464844,-0.061035,-0.122070
11564,0.025879,-0.119873,1.069458,-1.281738,0.488281,-0.427246
11576,0.123535,-0.049072,1.013794,-0.671387,0.488281,-0.427246
11585,0.005737,-0.228149,0.871826,0.244141,0.000000,-0.793457
11596,0.071167,-0.140259,0.995117,-0.183105,-0.244141,-1.525879
11605,0.059814,0.007568,1.122681,-0.488281,-0.854492,-1.953125
11615,-0.007080,-0.062378,0.995117,0.305176,-1.220703,-2.380371
11625,-0.001099,-0.228638,0.978760,0.976562,-1.281738,-2.136230
11635,0.047241,-0.084595,1.025513,0.549316,-1.464844,-2.563477
11644,0.076416,-0.016968,1.071655,0.610352,-1.525879,-2.441406
11656,-0.003662,-0.176147,0.955688,0.915527,-1.770020,-2.258301
11665,-0.002563,-0.129272,0.870728,0.061035,-1.892090,-2.380371
11675,0.034912,0.042480,0.905884,-0.732422,-1.831055,-2.319336
11684,0.012207,-0.205688,0.856323,-1.281738,-1.831055,-2.258301
11695,-0.011230,-0.209961,0.789185,-2.136230,-1.647949,-2.258301
11705,-0.031006,0.146729,0.998291,-3.173828,-1.770020,-2.319336
11714,-0.012695,0.036499,1.048584,-3.906250,-1.770020,-2.380371
11726,-0.079956,0.000610,1.026123,-4.028320,-1.098633,-3.173828
11736,-0.043457,-0.059204,1.030640,-3.417969,-1.159668,-3.601074
11746,-0.030029,-0.163452,0.963989,-3.173828,-1.159668,-3.906250
11755,-0.029419,-0.003418,0.984009,-3.051758,-0.854492,-4.150391
11765,0.016968,-0.062988,0.960571,-2.929688,-0.793457,-3.967285
11774,0.014404,-0.249756,0.849121,-2.868652,-0.427246,-3.906250
11784,-0.004272,0.006348,0.930176,-3.051758,-0.366211,-3.662109
11796,0.029907,-0.208984,0.954590,-3.173828,-0.732422,-3.417969
11805,0.041382,-0.076416,0.935059,-3.234863,-1.037598,-3.662109
11815,0.061279,0.044800,1.058594,-2.807617,-1.281738,-3.479004
11824,0.072876,-0.192749,0.921997,-2.502441,-1.403809,-3.234863
11834,0.062012,-0.182251,0.901489,-2.502441,-1.708984,-3.173828
11845,0.106812,-0.011719,0.989868,-2.380371,-1.831055,-3.356934
11854,0.058472,-0.121582,0.905518,-2.502441,-2.319336,-3.784180
11864,0.043213,-0.139404,0.892944,-3.051758,-2.807617,-4.272461
11875,0.064941,-0.043335,1.035034,-3.784180,-2.868652,-4.150391
11885,0.010010,-0.109497,1.001465,-4.394531,-2.990723,-4.089355
11894,0.016357,-0.020020,1.101074,-4.699707,-2.624512,-3.845215
11904,-0.001953,-0.014893,1.143555,-4.455566,-2.624512,-4.089355
11914,-0.027832,-0.044067,1.068237,-4.089355,-2.685547,-4.333496
11924,-0.048584,-0.060059,1.053101,-3.479004,-2.624512,-4.638672
11936,-0.068604,-0.174316,0.985840,-3.540039,-2.380371,-5.554199
11946,-0.031738,-0.093262,1.005371,-4.394531,-2.136230,-6.042480
11956,-0.020264,-0.001953,1.012451,-4.638672,-2.075195,-6.408691
11965,-0.020630,-0.185181,1.016113,-4.089355,-2.197266,-6.774902
11975,-0.004883,-0.170166,0.990845,-4.028320,-2.075195,-6.958008
11985,-0.013916,0.005127,1.124878,-3.967285,-1.892090,-7.385254
11994,-0.010498,0.019531,1.110840,-3.234863,-1.953125,-7.873535
12004,-0.009033,-0.119263,1.008545,-2.197266,-2.258301,-8.728027
12013,-0.049927,-0.230835,0.940186,-1.037598,-2.075195,-8.972168
12024,0.043823,-0.047607,0.982910,-0.793457,-1.647949,-8.605957
12034,0.009277,-0.291382,0.846313,-0.793457,-1.037598,-8.117676
12044,-0.007690,-0.049805,0.858643,-1.159668,-0.671387,-7.751465
12053,-0.015137,0.084961,0.928833,-1.037598,-0.427246,-7.141113
12064,-0.009155,-0.195068,0.919067,-0.671387,-0.061035,-6.652832
12074,-0.060913,-0.188843,0.906006,-0.671387,0.427246,-6.164551
12085,-0.035645,-0.072876,1.041260,-0.366211,0.915527,-5.737305
12095,-0.069214,-0.255859,0.938477,-0.061035,1.220703,-5.615234
12105,-0.033081,-0.121460,0.932251,0.244141,1.037598,-5.554199
12114,-0.041382,-0.028931,0.946289,0.183105,1.586914,-5.065918
12124,-0.053833,-0.203735,0.874023,0.183105,1.892090,-4.760742
12133,0.017212,-0.161865,0.937744,-0.244141,2.075195,-4.394531
12146,-0.043701,-0.092041,0.960205,-0.671387,2.075195,-4.516602
12156,-0.042969,-0.107788,0.973877,-1.098633,2.197266,-4.089355
12165,0.048950,-0.062012,1.056152,-1.037598,2.258301,-4.211426
12175,-0.055786,-0.124146,1.074463,-0.854492,2.380371,-3.845215
12184,-0.006592,-0.130859,1.025269,-0.854492,2.441406,-3.784180
12194,0.025757,0.001587,1.073608,-1.159668,2.258301,-3.417969
12204,0.024658,0.025757,1.074341,-1.464844,2.319336,-3.173828
12214,-0.002441,-0.044434,1.031494,-1.647949,2.197266,-2.746582
12225,0.032104,0.086548,1.120850,-1.831055,2.197266,-2.624512
12234,-0.015137,0.070068,1.063110,-1.403809,1.708984,-2.624512
12244,-0.036133,-0.029907,0.995239,-0.854492,1.892090,-2.807617
12253,-0.019531,-0.130737,1.008667,-0.305176,1.770020,-2.746582
12263,0.022949,-0.075439,1.014160,-0.183105,1.770020,-2.807617
12274,0.001465,0.058716,1.014404,-0.488281,1.770020,-2.807617
12283,0.031982,-0.071411,0.947021,-0.915527,1.586914,-2.868652
12295,0.005981,0.044434,0.944946,-1.525879,1.647949,-3.662109
12304,0.023682,-0.047363,0.914795,-2.441406,1.281738,-4.028320
12313,-0.022461,-0.080078,0.913940,-2.868652,1.220703,-4.699707
12324,-0.048706,0.154907,1.017700,-2.990723,1.220703,-5.187988
12334,-0.020386,-0.089111,1.019287,-2.563477,1.525879,-5.065918
12343,-0.062744,-0.203247,0.865845,-2.136230,1.708984,-5.126953
12355,-0.030273,0.091553,1.018799,-1.586914,1.892090,-5.065918
12364,-0.047119,-0.231934,0.799561,-1.586914,2.136230,-5.004883
12374,-0.017578,0.058472,0.945679,-2.075195,2.258301,-5.004883
12383,0.034058,-0.165649,0.901001,-2.441406,2.563477,-5.187988
12394,0.007935,-0.167358,0.928467,-3.112793,2.624512,-5.126953
12404,-0.047363,0.065552,1.091675,-3.417969,2.319336,-5.310059
12413,-0.031250,-0.020630,1.040405,-3.234863,1.831055,-5.249023
12425,-0.031738,-0.091309,1.059326,-1.770020,2.746582,-4.516602
12434,0.022217,0.013184,1.095947,-0.793457,3.601074,-3.417969
12444,0.048340,-0.153564,1.043213,-0.122070,3.906250,-2.746582
12453,-0.016113,-0.234009,0.974243,0.244141,3.417969,-2.990723
12464,-0.023193,-0.087402,0.990967,0.244141,3.295898,-3.540039
12473,0.045898,-0.142578,0.939819,0.305176,3.295898,-3.845215
12484,0.077637,-0.189941,0.917358,0.000000,2.746582,-4.333496
12493,-0.008301,-0.113159,0.965820,-0.183105,2.502441,-4.028320
12503,0.019287,-0.157471,0.987549,-1.953125,2.685547,-3.540039
12514,0.049561,-0.030151,0.989868,-2.380371,3.112793,-3.051758
12523,0.022949,-0.154907,1.051392,-2.807617,3.051758,-2.624512
12533,0.020996,-0.125610,0.977295,-3.601074,2.929688,-2.441406
12543,-0.027466,0.068359,1.048340,-3.845215,2.746582,-2.807617
12553,-0.054687,0.028931,1.102539,-3.112793,2.929688,-2.685547
12563,-0.068237,-0.033447,1.046021,-2.990723,2.807617,-2.380371
12573,-0.038330,0.030273,1.119019,-1.770020,3.356934,-1.464844
12583,-0.066162,-0.112427,1.051025,-0.854492,3.845215,-0.732422
12593,-0.058350,-0.141846,1.047363,-0.244141,4.577637,0.061035
12603,-0.027466,-0.080078,1.031982,0.244141,4.943848,0.793457
12613,-0.015869,-0.095947,1.002319,0.854492,5.249023,1.281738
12623,-0.023804,-0.130127,0.987671,0.976562,5.187988,2.014160
12633,-0.055176,-0.256836,0.824707,0.671387,4.882812,2.075195
12643,-0.042969,-0.088867,0.857788,0.122070,4.821777,2.014160
12654,-0.065796,-0.201294,0.893555,-0.122070,4.943848,2.502441
12664,-0.007935,-0.048584,0.941040,-0.427246,5.249023,2.929688
12673,-0.038940,-0.005981,0.969116,-0.122070,5.432129,3.662109
12683,-0.033813,-0.176514,0.930908,0.366211,5.859375,4.272461
12693,-0.039673,-0.153320,0.976440,0.366211,6.103516,4.821777
12703,0.017456,0.023682,1.053711,0.305176,5.920410,5.249023
12713,-0.016724,-0.021606,1.029053,0.061035,5.493164,6.164551
12724,-0.032959,-0.042480,0.907837,-0.549316,5.554199,6.774902
12734,-0.012085,-0.030029,0.987061,-1.098633,5.615234,7.385254
12743,-0.026367,-0.129761,0.965454,-1.647949,5.554199,8.056641
12753,0.024780,-0.012695,0.923462,-2.929688,5.981445,8.544922
12763,-0.021729,0.054443,0.962524,-3.112793,5.920410,8.972168
12773,-0.021851,-0.093262,0.969971,-3.173828,5.798340,8.728027
12783,-0.039063,-0.029053,1.002563,-3.234863,5.249023,8.178711
12792,-0.031372,-0.131470,0.994385,-3.051758,4.699707,7.507324
12803,-0.050049,-0.122314,0.941650,-3.112793,4.516602,6.713867
12813,-0.007935,0.044922,1.027710,-2.929688,4.150391,6.530762
12823,0.003662,-0.169678,0.942505,-2.624512,4.333496,6.591797
12833,-0.004639,-0.122925,0.889526,-2.807617,4.455566,6.347656
12843,0.040283,0.070557,1.006470,-3.295898,4.150391,6.103516
12853,0.021606,-0.065063,0.990967,-3.601074,3.295898,4.699707
12864,0.026611,-0.013794,1.033936,-3.540039,2.807617,4.211426
12873,0.057251,-0.084229,1.076172,-3.662109,2.746582,4.028320
12883,0.063599,-0.245850,1.009399,-3.845215,2.807617,3.845215
12893,0.100708,-0.049438,1.029297,-3.967285,2.990723,4.028320
12903,0.087036,0.089355,1.088379,-4.089355,2.380371,3.784180
12913,0.092041,-0.107300,0.968018,-3.723145,1.770020,3.662109
12923,0.075928,-0.098755,0.951904,-3.845215,0.549316,2.929688
12932,0.058228,0.058960,1.053955,-3.967285,0.061035,2.929688
12943,0.046021,-0.125610,1.014526,-3.662109,0.122070,3.051758
12952,0.055420,-0.014404,1.040039,-3.112793,-0.061035,3.295898
12963,0.054199,-0.051514,1.004272,-2.624512,0.000000,3.601074
12972,0.038086,-0.160889,0.915894,-2.502441,0.000000,3.417969
12983,-0.000977,-0.065796,1.031494,-2.319336,-0.305176,3.417969
12993,0.031860,-0.092041,1.034790,-3.112793,-1.098633,2.563477
13002,0.002686,-0.091064,1.002686,-2.685547,-1.342773,2.258301
13013,-0.016235,-0.091064,1.061279,-2.014160,-0.671387,2.441406
13023,-0.035645,-0.231079,0.975708,-1.464844,-0.183105,2.990723
13032,-0.101440,-0.143433,1.019653,-1.525879,-0.061035,3.540039
13043,-0.072754,0.102295,1.037964,-1.464844,0.244141,4.150391
13053,-0.029785,-0.088867,1.024658,-0.671387,0.610352,4.821777
13062,-0.059937,-0.234619,1.001099,0.610352,1.220703,5.737305
13072,-0.094604,-0.116577,0.948730,1.892090,1.464844,6.286621
13083,-0.049561,-0.258301,0.952271,2.258301,1.525879,6.347656
13093,-0.077759,-0.143433,0.886719,2.075195,1.770020,6.347656
13102,-0.044556,-0.007324,1.011719,2.136230,1.892090,6.591797
13113,-0.063599,-0.109375,0.998657,2.807617,1.831055,7.019043
13122,-0.050781,-0.233398,0.955811,2.685547,2.014160,7.507324
13132,-0.049194,-0.198242,0.977539,2.502441,2.624512,8.178711
13143,-0.029297,-0.157471,0.990234,2.258301,2.990723,8.789063
13153,-0.020630,-0.306519,0.888672,2.136230,2.807617,8.911133
13162,-0.039063,-0.243896,0.815918,1.831055,2.319336,8.850098
13172,0.046997,-0.039673,0.883667,1.342773,2.380371,9.094238
13182,0.005005,-0.093872,0.898560,0.305176,2.075195,9.399414
13193,0.011719,-0.117432,0.944214,-0.488281,1.892090,9.277344
13202,-0.000732,-0.005737,1.043823,-1.159668,1.586914,9.155273
13212,0.011719,0.120361,1.098633,-0.671387,1.403809,8.728027
13223,-0.090332,-0.081787,1.108887,0.183105,1.159668,8.056641
13232,0.021118,-0.104248,1.118408,0.305176,1.098633,7.263184
13242,-0.028442,-0.099365,1.031494,-0.061035,0.610352,6.896973
13252,-0.041260,-0.102295,0.855225,-0.610352,0.122070,6.347656
13263,0.034668,-0.061401,0.789307,-0.915527,0.061035,5.981445
13272,0.106201,0.121216,0.903687,-1.647949,0.427246,5.798340
13284,0.073242,-0.117554,0.835205,-3.417969,-0.732422,4.943848
13293,0.098877,0.105591,0.957886,-4.211426,-0.793457,4.394531
13303,0.036621,0.084106,1.006958,-4.699707,-1.403809,3.784180
13312,0.036743,-0.077148,1.038452,-5.065918,-1.586914,3.417969
13322,0.026001,0.041138,1.071289,-5.065918,-1.708984,3.173828
13332,-0.003662,0.057007,1.081543,-4.882812,-2.136230,2.990723
13342,0.020020,-0.089600,1.008301,-4.272461,-1.892090,3.479004
13354,0.053345,-0.035400,0.981323,-4.272461,-1.464844,3.967285
13363,0.002808,-0.223633,0.775635,-4.943848,-1.525879,3.906250
13373,0.036255,0.018677,0.906494,-5.737305,-1.281738,3.784180
13382,0.049194,0.007813,0.971436,-6.164551,-1.708984,3.173828
13391,0.022339,-0.176025,0.947876,-6.591797,-2.258301,2.380371
13402,0.003052,0.002319,1.089111,-6.469727,-2.197266,1.586914
13412,0.021362,0.026489,1.161255,-5.920410,-2.563477,0.549316
13423,0.010132,-0.081055,1.102173,-5.493164,-2.807617,-0.976562
13432,0.067017,-0.032837,1.080200,-4.150391,-2.868652,-1.586914
13442,0.090210,-0.159790,1.106567,-3.540039,-3.112793,-2.075195
13452,0.003540,-0.209106,0.977661,-3.234863,-3.417969,-2.319336
13462,0.023315,-0.084229,0.913940,-2.624512,-4.028320,-3.234863
13472,-0.025391,-0.103149,0.862305,-1.831055,-4.089355,-3.967285
13482,0.059448,-0.250977,0.719971,-1.708984,-3.967285,-3.906250
13493,0.123779,-0.208374,0.870850,-2.197266,-2.624512,-3.234863
13503,-0.029785,-0.226440,0.907227,-4.028320,-2.624512,-3.723145
13513,0.036865,0.022583,1.065918,-5.371094,-2.929688,-4.699707
13522,0.075195,0.010132,1.022827,-5.615234,-3.784180,-5.432129
13532,0.029175,-0.086670,0.986816,-5.126953,-4.150391,-5.798340
13542,-0.031616,0.012939,1.077759,-4.638672,-4.089355,-5.554199
13552,0.031616,0.017700,1.060303,-4.638672,-3.845215,-5.249023
13561,0.053711,-0.033691,0.968384,-2.380371,-3.112793,-4.211426
13572,-0.028076,-0.028809,1.010254,-1.403809,-2.380371,-3.356934
13582,0.068237,-0.186157,0.909546,-1.220703,-1.525879,-2.929688
13592,-0.015625,-0.152466,0.970459,-1.159668,-1.586914,-3.601074
13601,-0.040527,-0.114258,1.031738,-1.098633,-1.708984,-4.272461
13611,-0.028198,-0.144043,1.037354,-1.403809,-2.014160,-4.760742
13622,0.029907,-0.024170,1.033325,-1.464844,-2.319336,-5.371094
13631,-0.085571,-0.055786,1.111328,15.197754,-1.770020,-5.065918
13643,0.011475,-0.160767,1.093994,0.488281,-1.281738,-4.333496
13653,0.027588,-0.081299,1.053101,0.610352,-1.037598,-3.723145
13662,-0.033813,-0.071777,0.973389,1.403809,-0.854492,-3.112793
13672,-0.022583,-0.139648,0.938110,1.647949,-0.183105,-2.624512
13682,0.030151,-0.189941,0.848022,1.708984,-0.061035,-2.075195
13691,-0.007935,-0.217163,0.871704,1.647949,0.061035,-1.525879
13701,-0.027222,-0.014404,0.919678,1.220703,0.183105,0.061035
13713,0.018555,-0.104126,1.010864,-0.366211,0.610352,0.610352
13722,-0.025391,-0.143311,1.071655,-0.183105,0.732422,1.342773
13731,-0.037109,-0.115967,0.997559,0.183105,0.976562,2.075195
13741,0.000122,-0.070190,1.035278,-0.183105,1.342773,2.929688
13751,0.005981,-0.088257,0.934814,-1.098633,1.403809,3.173828
13762,0.074707,-0.010376,0.905273,-1.953125,1.220703,3.479004
13771,-0.004639,0.053589,0.880981,-2.441406,1.159668,4.150391
13781,0.019775,-0.085571,1.014404,-3.234863,1.159668,4.333496
13792,0.027954,0.083740,1.107788,-2.502441,0.915527,4.699707
13801,-0.035400,-0.079834,1.093140,-1.586914,1.098633,5.371094
13811,-0.014771,-0.060547,1.174805,-0.915527,1.220703,5.676270
13821,-0.029297,0.014771,1.225342,-0.122070,1.342773,6.225586
13832,-0.047241,-0.078369,1.123169,1.586914,1.464844,6.591797
13841,-0.048340,-0.140503,1.061890,2.563477,1.525879,7.263184
13853,-0.009644,-0.165894,0.928955,2.685547,1.464844,7.324219
13862,-0.008545,-0.106567,0.896362,2.441406,1.464844,7.507324
13872,-0.035522,-0.075562,0.860962,2.197266,1.159668,7.446289
13881,0.011230,-0.205444,0.849976,1.770020,1.098633,7.385254
13891,0.007690,-0.154175,0.919800,1.037598,0.671387,7.141113
13902,0.005249,0.014893,1.030151,0.610352,0.244141,7.141113
13911,0.043945,-0.057739,1.037354,0.305176,0.305176,7.324219
13922,0.020874,-0.065674,1.017090,-0.122070,0.183105,7.507324
13932,0.051636,0.031006,1.053955,-0.488281,0.122070,7.202148
13941,0.019409,-0.058594,1.017822,-1.037598,-0.305176,6.958008
13951,0.024902,-0.116943,0.953491,-1.525879,-0.671387,6.225586
13961,0.029785,0.002930,0.989868,-1.892090,-0.854492,5.187988
13971,0.048828,-0.120117,0.900879,-1.708984,-1.770020,3.845215
13984,0.036499,0.023437,0.974976,-1.770020,-2.258301,1.953125
13993,0.041626,-0.036865,1.003540,-2.197266,-2.868652,0.915527
14002,0.046997,-0.186279,0.914062,-2.563477,-2.868652,0.244141
14012,0.056030,-0.006104,1.039063,-2.990723,-2.990723,0.305176
14021,0.087646,0.055176,1.137451,-2.807617,-3.234863,0.488281
14032,0.072510,-0.102051,1.104614,-2.258301,-3.234863,0.610352
14041,0.032837,-0.217407,1.054810,-1.403809,-3.295898,0.305176
14053,0.056030,-0.125000,0.949829,0.793457,-3.479004,-0.610352
14063,0.042847,-0.322144,0.747681,0.793457,-3.784180,-0.976562
14072,0.024414,-0.175293,0.780151,0.183105,-4.333496,-1.220703
14081,0.073120,-0.064087,0.895264,-0.366211,-4.333496,-1.220703
14091,0.027344,-0.160522,0.869019,-1.403809,-4.333496,-1.403809
14101,0.042725,-0.156616,0.882202,-2.380371,-4.821777,-1.708984
14111,0.021729,-0.084961,0.981689,-3.051758,-4.577637,-1.953125
14121,0.005371,-0.150391,1.003174,-3.601074,-3.967285,-2.136230
14131,-0.046387,-0.061890,1.061035,-4.394531,-3.967285,-2.380371
14140,-0.031494,0.028442,1.192871,-3.662109,-3.967285,-2.136230
14151,-0.033203,-0.120850,1.038818,-3.173828,-3.662109,-1.770020
14161,-0.065674,-0.092285,1.064697,-2.868652,-3.173828,-1.831055
14170,-0.016602,-0.038208,1.139893,-2.624512,-2.807617,-1.892090
14181,-0.047363,-0.206177,0.982788,-2.258301,-2.685547,-1.770020
14191,-0.002686,-0.227539,0.980103,-2.319336,-2.502441,-1.892090
14202,0.042969,-0.094238,0.940308,-2.380371,-2.136230,-2.319336
14212,0.031738,-0.142334,1.017456,-2.441406,-2.685547,-2.807617
14221,0.058228,-0.164673,1.028809,-2.990723,-3.234863,-3.845215
14231,0.007446,-0.018066,1.029297,-3.295898,-3.540039,-4.638672
14240,0.010620,0.045654,1.023682,-2.929688,-3.906250,-5.371094
14251,0.031128,0.019653,1.042236,-2.197266,-3.662109,-5.859375
14262,-0.011230,-0.105835,1.022095,-1.403809,-3.112793,-6.164551
14272,-0.006592,0.050293,1.020630,-0.976562,-3.051758,-5.981445
14281,-0.008057,-0.068359,0.931885,-0.427246,-2.929688,-6.164551
14291,-0.013672,-0.186890,0.824341,-0.122070,-2.563477,-5.981445
14301,0.024048,-0.009644,0.918213,-0.061035,-2.319336,-5.737305
14310,0.076172,0.051270,0.947266,-0.488281,-2.075195,-5.432129
14321,0.006470,-0.153320,0.847290,-1.037598,-2.075195,-5.187988
14330,0.020386,-0.024780,0.918823,-1.525879,-2.014160,-5.126953
14342,0.008179,-0.012329,1.051147,-1.708984,-1.831055,-5.432129
14352,-0.001343,-0.098633,1.045776,-1.342773,-2.014160,-5.432129
14361,-0.036133,0.017334,1.015747,-0.976562,-2.075195,-5.249023
14371,0.007813,0.032104,1.072754,-0.488281,-1.892090,-4.882812
14380,0.017334,-0.067871,1.021484,-0.122070,-1.220703,-3.967285
14391,-0.003662,-0.064575,0.952271,0.305176,-1.159668,-2.807617
14400,0.031128,-0.059082,0.996460,0.976562,-0.793457,-1.647949
14413,0.010620,-0.248901,0.925659,0.732422,-0.671387,0.427246
14422,-0.030884,-0.132202,0.914429,0.610352,-0.366211,0.671387
14431,-0.027466,-0.040405,0.974121,0.183105,-0.671387,0.610352
14441,-0.021484,-0.209473,0.934448,-0.549316,-1.037598,0.549316
14450,-0.033813,-0.105103,0.951050,-1.098633,-1.098633,0.427246
14461,-0.063965,0.073853,1.033569,-1.770020,-0.976562,0.427246
14470,-0.049561,0.008789,1.052856,-2.075195,-0.305176,0.488281
14482,-0.124390,-0.027344,1.051636,-1.403809,-0.244141,0.488281
14492,-0.112671,-0.027466,1.024292,-0.915527,-0.183105,0.305176
14501,-0.056763,-0.028320,1.053711,-0.793457,0.183105,0.244141
14511,-0.028809,-0.010254,1.060669,-0.549316,0.549316,0.427246
14520,-0.035522,-0.040405,0.987671,0.183105,0.854492,0.915527
14530,-0.016235,-0.095947,0.963379,0.366211,1.098633,1.281738
14541,-0.001099,-0.157837,0.957153,-0.183105,1.098633,1.586914
14550,0.029785,-0.078125,0.996338,-1.525879,1.037598,1.953125
14561,0.032593,-0.129150,0.999634,-1.586914,0.915527,2.197266
14571,0.006958,-0.153320,0.946411,-1.403809,0.549316,2.563477
14581,0.010132,-0.012329,0.977173,-1.220703,0.061035,2.624512
14594,0.046509,-0.128784,0.928467,-1.831055,-0.549316,2.807617
14604,0.019897,0.047607,0.929565,-2.075195,-0.366211,2.624512
14612,0.019897,0.047607,0.929565,-2.502441,-0.732422,2.319336
14621,0.011353,-0.131470,0.871826,-2.868652,-1.159668,1.342773
14631,-0.008789,0.033569,1.035889,-2.929688,-1.647949,0.244141
14640,0.030640,-0.142944,1.000854,-2.929688,-1.892090,-0.976562
14650,-0.025635,-0.120972,0.978638,-3.173828,-2.136230,-1.770020
14660,0.006104,0.094482,1.081055,-2.990723,-2.380371,-2.502441
14670,0.003784,-0.062744,1.016479,-2.441406,-2.075195,-2.929688
14680,0.005859,-0.153931,0.939575,-2.075195,-1.953125,-2.990723
14690,0.008667,-0.011230,1.014893,-2.136230,-1.525879,-2.807617
14701,0.012695,-0.111450,1.019165,-1.770020,-1.525879,-2.746582
14711,-0.009644,-0.051758,1.042603,-1.464844,-1.892090,-2.746582
14721,0.013306,-0.059570,1.019653,-0.976562,-2.075195,-2.868652
14730,0.027222,-0.206665,0.950806,-0.305176,-1.892090,-2.746582
14741,0.038452,-0.195312,0.941650,-0.549316,-1.831055,-2.441406
14750,0.000977,-0.074097,0.986694,-1.159668,-2.136230,-2.014160
14760,0.020508,-0.141479,1.022461,-1.464844,-2.075195,-1.770020
14771,-0.049316,-0.031738,0.982422,-2.014160,-2.258301,-1.892090
14781,-0.048828,-0.026733,1.058472,-2.136230,-2.075195,-2.136230
14791,-0.069824,-0.115234,1.043579,-2.258301,-1.953125,-2.380371
14800,-0.088867,-0.070312,1.015015,-2.441406,-1.770020,-2.380371
14810,-0.105347,0.005981,1.002075,-2.685547,-1.647949,-2.319336
14820,-0.077271,-0.060181,0.929687,-2.502441,-0.854492,-1.708984
14830,-0.106812,-0.130737,0.862549,-2.563477,-0.244141,-1.220703
14841,-0.063843,-0.100098,0.886230,-3.784180,0.366211,-0.793457
14851,-0.080444,0.022705,0.890991,-4.333496,0.732422,-0.244141
14860,-0.047241,0.057251,0.968628,-4.882812,0.976562,-0.122070
14870,-0.053833,-0.132080,0.909668,-5.126953,1.464844,0.183105
14880,-0.058228,0.057007,0.952148,-5.493164,1.708984,0.732422
14890,-0.020020,0.124878,1.114868,-5.126953,1.647949,0.854492
14900,-0.003784,-0.086060,0.963379,-3.601074,1.525879,1.586914
14911,0.015503,-0.054810,0.984985,-2.990723,1.770020,2.136230
14921,0.029175,-0.177490,0.837402,-2.685547,1.831055,2.502441
14930,0.032349,0.014526,0.893188,-2.746582,1.831055,3.173828
14940,0.077026,-0.090210,0.871216,-2.990723,1.464844,3.601074
14950,0.065063,-0.128662,0.824585,-3.295898,1.037598,3.906250
14960,0.078735,-0.003784,1.006348,-3.479004,0.549316,3.906250
14969,0.034180,-0.197510,0.969482,-3.906250,0.122070,3.784180
14981,0.019775,0.056519,1.098633,-4.577637,-0.244141,3.417969
14990,-0.002197,-0.062378,0.992065,-4.211426,-0.732422,3.234863
15000,0.004272,-0.031860,1.028076,-4.028320,-0.793457,2.746582
15010,-0.020508,-0.038208,1.008667,-3.906250,-1.464844,1.953125
15020,-0.022339,-0.050659,1.022217,-4.089355,-1.892090,1.281738
15030,0.045898,0.059204,1.021606,-4.516602,-1.953125,0.976562
15039,-0.018311,0.060547,1.008301,-4.699707,-2.319336,0.976562
15051,0.014282,0.081299,1.140137,-3.540039,-2.563477,0.915527
15060,0.010986,-0.090088,1.146851,-3.173828,-2.624512,0.488281
15070,-0.022583,-0.064087,1.133789,-3.356934,-2.746582,-0.183105
15080,0.045044,0.133789,1.176514,-3.051758,-3.173828,-0.793457
15090,0.005127,-0.057617,1.041382,-2.868652,-3.112793,-1.464844
15100,0.024292,0.026367,0.979248,-2.563477,-3.601074,-2.441406
15110,0.046143,0.158081,1.076538,-2.075195,-4.211426,-3.845215
15121,-0.028931,0.000488,0.925415,-1.647949,-4.455566,-4.882812
15130,0.049194,0.057251,1.080078,-2.075195,-4.516602,-5.493164
15140,-0.025269,-0.042358,0.919922,-2.014160,-4.577637,-5.615234
15150,-0.043701,0.110352,0.990601,-1.159668,-4.333496,-5.615234
15160,0.012817,-0.028809,1.014038,0.000000,-4.150391,-5.493164
15170,-0.024048,-0.147339,0.922974,0.671387,-3.967285,-5.126953
15180,0.032593,-0.046997,1.026978,0.610352,-3.479004,-4.760742
15191,0.030518,-0.031860,0.896362,-0.671387,-3.295898,-4.760742
15200,0.004028,0.030518,0.846802,-0.549316,-3.356934,-4.699707
15210,0.032593,-0.012451,0.837524,0.061035,-3.417969,-4.760742
15220,0.029297,-0.152222,0.771606,0.061035,-3.906250,-5.004883
15229,0.031494,-0.070190,0.943726,-0.366211,-3.906250,-5.126953
15240,0.034546,-0.046631,0.964478,-1.525879,-4.211426,-5.310059
15249,0.029663,0.101074,1.065063,-1.892090,-4.333496,-5.310059
15261,-0.028687,0.107178,1.095093,-1.342773,-3.967285,-4.821777
15270,-0.006836,-0.153564,1.063721,1.708984,-4.211426,-4.455566
15280,-0.040894,-0.074829,1.056152,2.075195,-4.211426,-4.394531
15289,0.027100,-0.005493,1.120850,1.953125,-4.211426,-4.272461
15300,-0.008911,-0.094727,0.908325,1.647949,-4.089355,-4.089355
15309,0.046143,0.020752,0.901123,1.281738,-4.028320,-4.150391
15321,0.046875,-0.074707,0.830078,0.976562,-4.028320,-3.417969
15330,0.081787,-0.042969,0.983521,0.366211,-4.211426,-3.601074
15340,-0.030762,-0.053223,0.991089,-0.671387,-4.516602,-3.906250
15350,-0.011841,0.077026,1.113892,-1.403809,-4.516602,-4.272461
15359,-0.041870,-0.000244,1.067261,-1.708984,-4.821777,-4.638672
15370,-0.059448,0.079468,1.098877,-1.037598,-4.577637,-4.577637
15379,-0.041260,-0.073730,1.083496,-0.244141,-4.516602,-4.333496
15392,0.011719,0.115479,1.144043,-1.159668,-4.211426,-4.394531
15401,-0.011597,-0.036377,0.948364,-1.953125,-4.211426,-4.821777
15411,-0.014526,0.121460,0.988525,-2.746582,-4.272461,-5.371094
15421,-0.024170,-0.041626,0.935059,-2.502441,-4.455566,-6.042480
15430,-0.014404,0.056763,0.981567,-2.807617,-4.455566,-6.835937
15440,-0.002930,0.041748,1.124756,-3.173828,-4.516602,-7.324219
15450,-0.015381,-0.039185,1.042358,-3.112793,-5.004883,-7.812500
15459,-0.029297,0.172119,1.158203,-3.173828,-4.699707,-8.361816
15471,0.019409,0.168945,1.066406,-2.929688,-4.455566,-8.728027
15480,-0.003296,-0.070312,0.947388,-1.708984,-4.272461,-8.911133
15490,0.049072,0.069336,0.984253,-1.159668,-4.516602,-9.399414
15499,0.050049,-0.059570,0.952637,-0.915527,-4.943848,-9.765625
15510,0.078369,0.009521,1.014771,-1.342773,-5.126953,-10.375977
15520,0.036499,-0.051392,0.944214,-1.586914,-5.676270,-10.925293
15529,0.069458,0.056885,0.974365,-1.586914,-5.615234,-11.047363
15539,0.051270,0.035278,1.004395,0.305176,-5.859375,-10.559082
15550,0.004883,-0.086060,1.016357,1.464844,-5.859375,-10.131836
15560,0.020630,-0.096558,1.038086,2.502441,-5.737305,-10.131836
15569,0.052979,-0.112671,1.115845,2.502441,-5.615234,-10.253906
15580,0.028198,-0.139038,0.981689,2.258301,-6.164551,-10.375977
15589,0.028442,-0.082031,0.927124,2.014160,-6.286621,-10.681152
15601,0.021973,-0.085083,0.903076,2.197266,-6.591797,-11.291504
15610,0.046387,-0.125854,0.867920,1.953125,-6.896973,-12.145996
15620,0.037842,-0.104492,0.968262,1.159668,-7.324219,-13.122559
15629,0.017090,-0.053955,0.956177,0.427246,-7.446289,-14.343262
15640,0.048706,-0.025146,0.990356,-0.244141,-7.507324,-15.075684
15649,-0.033081,-0.019531,0.937012,0.000000,-7.873535,-16.113281
15660,0.032715,0.010498,1.027588,-0.061035,-7.690430,-17.333984
15669,-0.019409,-0.046997,0.977173,0.366211,-7.812500,-18.371582
15681,0.000366,-0.101196,0.962036,0.244141,-7.873535,-20.690918
15690,0.029175,0.015625,1.096924,0.000000,-7.812500,-21.728516
15699,0.034302,-0.026245,0.932617,-0.122070,-7.385254,-22.399902
15709,0.031982,-0.003296,0.953491,-0.122070,-7.141113,-23.193359
15720,0.052124,-0.028687,0.962769,-0.366211,-6.713867,-23.742676
15729,0.042725,0.061523,1.021484,-0.915527,-6.530762,-24.414062
15741,-0.003906,-0.016113,0.956787,-1.037598,-6.896973,-26.000977
15750,0.025757,0.014771,0.992310,-1.342773,-6.652832,-26.306152
15760,0.026611,0.068359,0.998901,-1.403809,-6.652832,-26.489258
15769,0.020996,0.020142,1.009888,-1.037598,-6.835937,-26.672363
15779,0.048950,-0.008911,1.077881,-0.671387,-6.652832,-26.367187
15790,-0.008789,-0.035034,0.976562,-0.732422,-5.859375,-26.062012
15799,0.016846,-0.008667,1.027588,-0.305176,-5.493164,-25.451660
15811,0.026367,-0.115845,1.004028,-1.098633,-5.004883,-24.536133
15820,0.004639,0.066162,0.947998,-1.525879,-4.699707,-23.925781
15830,-0.004028,-0.080933,0.894043,-1.403809,-4.638672,-23.254395
15839,0.000366,0.026123,1.002930,-1.464844,-4.028320,-22.338867
15849,-0.030029,-0.029907,0.973145,-1.586914,-3.540039,-21.484375
15859,-0.023315,-0.005249,1.048828,-1.770020,-3.417969,-21.301270
15870,-0.070190,-0.048218,0.991455,-1.770020,-3.234863,-21.301270
15879,-0.062866,0.054687,1.102661,-2.136230,-2.990723,-21.484375
15890,-0.065308,0.023071,0.998535,-2.014160,-2.990723,-22.216797
15900,-0.077026,-0.024292,0.946289,-0.976562,-2.319336,-22.705078
15909,-0.019653,-0.119385,0.927734,-0.793457,-2.014160,-22.827148
15919,0.007446,-0.114014,0.953369,-1.159668,-1.159668,-22.705078
15929,-0.017700,-0.056641,0.860352,-2.075195,-0.549316,-22.705078
15939,-0.005005,-0.025757,0.880127,-3.112793,-0.610352,-22.644043
15951,-0.012085,0.093140,0.942261,-3.662109,-0.488281,-22.949219
15960,-0.029785,0.059937,1.051025,-3.540039,-0.427246,-22.888184
15970,-0.051392,0.022827,1.067383,-3.173828,-0.610352,-23.071289
15979,-0.035767,0.117310,1.156738,-2.563477,-0.061035,-22.949219
15990,-0.053955,0.069824,1.064087,-1.953125,0.488281,-22.399902
15999,-0.051392,0.073120,1.055908,-1.281738,0.976562,-21.972656
16009,-0.056396,0.038330,1.085449,-0.549316,1.220703,-21.362305
16019,-0.020386,-0.013184,1.005737,0.305176,1.647949,-20.690918
16031,0.022827,-0.053955,0.978516,0.854492,2.319336,-19.470215
16040,0.007324,0.025879,1.127930,1.159668,2.624512,-18.859863
16049,-0.004639,-0.055786,1.037231,1.159668,2.441406,-18.432617
16059,-0.052856,0.010620,1.081177,1.342773,2.197266,-18.676758
16069,-0.021973,0.000122,1.053955,1.953125,1.892090,-18.859863
16079,-0.057495,-0.004150,1.065063,2.990723,2.319336,-18.920898
16089,-0.064575,-0.048462,0.999268,3.967285,2.014160,-19.042969
16099,0.002319,-0.146484,0.951782,4.760742,2.624512,-18.920898
16110,0.005981,-0.115845,0.899536,3.723145,2.990723,-18.676758
16120,-0.001099,-0.039185,0.901489,2.441406,3.112793,-18.676758
16129,-0.021362,-0.011230,0.893433,1.892090,2.990723,-18.554687
16139,-0.061279,-0.043579,0.848999,1.525879,2.868652,-18.737793
16149,-0.051147,0.070679,0.984375,1.403809,3.479004,-18.432617
16159,-0.069092,0.064331,1.029907,1.281738,3.601074,-18.310547
16171,-0.058960,0.053101,1.070923,1.098633,3.967285,-18.310547
16181,-0.063843,0.041992,1.000854,1.159668,4.699707,-18.371582
16190,-0.062744,0.015137,0.956909,1.342773,4.760742,-18.493652
16199,-0.032349,0.022095,0.968262,1.953125,5.004883,-18.615723
16209,-0.019165,-0.041870,0.959351,2.197266,5.249023,-18.981934
16219,0.003296,-0.026001,1.012939,2.136230,5.126953,-19.287109
16231,0.014771,-0.073853,0.961914,1.647949,5.493164,-19.897461
16240,0.012085,0.002075,1.029297,1.220703,5.676270,-19.653320
16250,-0.008667,-0.010132,0.971680,1.342773,5.737305,-19.470215
16260,-0.030151,0.002686,0.958740,1.342773,5.676270,-19.165039
16269,-0.029297,0.064697,0.996338,1.708984,5.920410,-18.493652
16278,-0.026001,-0.009888,1.005737,2.075195,6.103516,-17.883301
16289,-0.022095,0.018188,1.075195,2.502441,6.469727,-17.333984
16299,-0.038574,-0.025757,1.019165,2.746582,6.896973,-16.784668
16309,-0.063599,-0.018921,1.012207,3.051758,7.507324,-15.441895
16320,-0.064331,-0.042236,0.932861,3.540039,7.690430,-14.709473
16329,-0.062744,-0.091064,0.889160,3.662109,7.751465,-14.099121
16339,-0.054810,-0.079224,0.909790,3.173828,8.239746,-13.427734
16349,-0.064941,-0.033569,0.951538,2.441406,8.850098,-12.451172
16358,-0.051025,-0.005615,0.960571,2.014160,9.338379,-11.718750
16369,-0.047974,0.014648,1.028198,1.403809,9.582520,-11.108398
16381,-0.092041,0.090820,1.058228,0.671387,10.009766,-10.498047
16390,-0.092163,0.116333,1.076294,0.671387,10.253906,-10.009766
16400,-0.103271,0.015503,0.993530,0.854492,10.375977,-9.948730
16409,-0.065430,0.111572,1.088257,0.732422,11.230469,-9.765625
16419,-0.076538,0.092896,1.058105,0.732422,11.169434,-9.399414
16429,-0.080566,0.057617,1.017822,0.854492,11.657715,-9.094238
16438,-0.050781,0.051270,1.078857,0.671387,11.840820,-9.155273
16450,-0.050293,0.103149,1.066406,0.305176,11.596680,-8.728027
16459,-0.042114,0.073853,0.995361,0.305176,11.779785,-8.666992
16469,-0.054199,0.112915,1.036743,0.671387,12.084961,-8.605957
16478,-0.059448,0.094238,1.003784,1.098633,11.962891,-8.483887
16489,-0.040527,-0.009277,0.953979,1.708984,12.207031,-8.483887
16499,-0.041992,0.042725,1.012207,2.075195,12.390137,-8.544922
16508,-0.029785,0.104736,1.009399,2.258301,12.634277,-8.117676
16520,-0.007568,0.042358,0.961792,1.770020,12.939453,-7.202148
16529,-0.002197,0.022949,0.926880,1.647949,12.817383,-6.713867
16539,-0.036743,0.021240,0.985474,1.831055,13.000488,-6.347656
16549,-0.014282,-0.008911,0.945190,2.197266,13.183594,-5.493164
16559,-0.071167,-0.093750,0.883667,2.075195,13.305664,-4.577637
16568,-0.048706,-0.069458,0.906860,2.197266,13.610840,-3.967285
16579,-0.052124,-0.057251,0.907593,2.197266,13.854980,-3.173828
16591,-0.051270,0.025879,0.968994,1.159668,14.465332,-0.976562
16600,-0.057617,0.028931,0.918579,0.854492,14.892578,0.366211
16610,-0.066040,0.027710,0.989990,0.976562,15.197754,1.831055
16619,-0.056763,0.004150,0.987671,1.403809,15.014648,3.112793
16629,-0.083862,-0.047363,1.003906,1.770020,15.686035,4.760742
16638,-0.102783,-0.075928,0.980103,2.075195,16.540527,6.286621
16649,-0.088013,-0.024292,0.999878,2.136230,16.845703,7.324219
16658,-0.062500,0.000488,0.982300,1.464844,17.211914,8.422852
16669,-0.100464,0.055542,0.955200,0.915527,17.456055,10.681152
16679,-0.072266,-0.059448,0.965576,0.976562,17.578125,11.657715
16689,-0.107666,0.021118,0.996216,1.037598,17.456055,13.000488
16699,-0.093262,0.141846,1.081909,0.915527,17.822266,14.404297
16708,-0.064941,0.063232,1.060181,0.976562,18.493652,16.113281
16718,-0.105835,0.003784,0.976562,0.488281,19.104004,17.761230
16729,-0.093384,0.008179,1.015747,-1.159668,18.859863,20.019531
16739,-0.145264,0.138916,1.001343,-1.098633,18.920898,21.179199
16749,-0.092407,0.171021,1.076782,-0.488281,19.409180,22.216797
16758,-0.127441,0.123901,1.012817,-0.427246,19.531250,23.681641
16769,-0.112061,0.026123,1.048584,-0.549316,19.897461,25.451660
16778,-0.128540,0.018555,1.028198,-0.549316,20.629883,27.099609
16788,-0.116699,0.021240,0.953613,-0.488281,21.118164,28.503418
16801,-0.136108,0.062744,0.917603,-0.671387,21.240234,32.348633
16810,-0.094849,0.022705,0.951538,-1.098633,21.789551,34.240723
16819,-0.078491,0.026123,0.974854,-1.525879,21.911621,35.827637
16829,-0.099976,0.036865,0.946533,-1.525879,21.850586,37.658691
16838,-0.105469,0.025146,0.974609,-1.586914,21.789551,39.428711
16849,-0.111816,0.048828,1.014648,-1.403809,22.216797,41.015625
16858,-0.092285,0.021973,1.005859,-1.037598,22.583008,42.602539
16871,-0.078003,0.038208,1.096802,-0.183105,22.216797,44.921875
16880,-0.064331,0.004272,1.033325,-0.061035,22.155762,45.898437
16890,-0.060669,-0.036377,0.994751,0.061035,21.850586,46.386719
16899,-0.020508,-0.010132,0.995850,0.244141,21.362305,47.058105
16909,-0.062866,-0.029785,0.933350,0.427246,21.301270,47.729492
16918,-0.037598,-0.107666,0.941650,0.305176,20.690918,48.400879
16929,-0.031616,-0.111084,0.935791,-0.305176,20.263672,48.400879
16938,-0.060669,-0.107910,0.874146,-1.037598,19.836426,48.522949
16949,-0.068970,-0.024048,0.890869,-1.953125,18.798828,49.316406
16959,-0.063721,0.104126,1.027344,-3.173828,18.981934,49.499512
16968,-0.031494,0.097046,1.078491,-3.601074,18.859863,49.560547
16979,-0.017456,0.071411,1.072021,-3.479004,18.432617,49.133301
16988,-0.009033,0.056030,1.060547,-3.234863,18.005371,48.583984
16999,0.004517,0.046387,1.042725,-2.563477,17.333984,47.485352
17008,0.016724,0.027466,1.060425,-1.647949,16.723633,46.569824
17019,0.023926,-0.041016,1.034912,-1.037598,16.357422,44.189453
17029,0.041016,-0.000977,1.059937,0.000000,15.380859,42.724609
17038,0.059814,0.009521,1.033569,-0.183105,14.648438,41.625977
17048,0.072998,0.009033,0.979004,0.000000,14.526367,41.015625
17058,0.059937,-0.013184,0.949951,0.305176,13.793945,40.527344
17068,0.058350,-0.016113,0.975708,0.488281,13.305664,39.978027
17078,0.026123,-0.070190,0.988159,0.488281,12.695313,39.611816
17089,0.052368,-0.056641,0.954224,0.366211,12.145996,39.306641
17098,0.050537,-0.050293,0.946777,0.610352,11.474609,38.879395
17108,0.032959,-0.001587,1.001343,0.732422,11.108398,39.062500
17118,0.038818,-0.020508,1.006958,0.671387,10.742188,39.062500
17127,0.018433,-0.010864,0.991333,0.610352,10.559082,39.306641
17138,0.015015,0.058838,0.997314,0.244141,10.681152,39.733887
17149,0.006592,0.056763,1.000732,0.061035,11.413574,41.809082
17158,0.000122,0.002808,0.969727,0.000000,11.291504,42.785645
17168,-0.010132,-0.004639,0.967163,0.183105,11.535645,43.579102
17178,-0.000366,0.000488,1.007690,0.305176,11.474609,44.189453
17188,-0.014771,-0.071045,0.973511,0.427246,11.230469,45.227051
17198,-0.005859,-0.009399,0.974976,0.122070,11.108398,46.447754
17207,0.005371,0.015381,0.990845,-0.183105,11.535645,47.485352
17218,0.004028,0.056030,0.964722,-0.427246,11.779785,48.645020
17229,0.009521,-0.019043,0.983765,-0.549316,12.023926,50.537109
17238,-0.000977,-0.036133,0.999634,-0.061035,11.474609,50.842285
17248,0.018433,0.055908,1.082397,-0.427246,11.596680,50.964355
17258,0.044556,0.073364,1.083740,-0.061035,11.840820,50.781250
17268,0.019531,0.016113,1.032471,0.305176,11.230469,50.415039
17278,0.072510,-0.015259,1.017090,0.671387,10.925293,49.865723
17287,0.053589,0.028320,1.048828,0.915527,10.620117,49.499512
17300,0.044312,0.008301,1.019897,1.647949,10.620117,48.950195
17309,0.041626,-0.022461,1.003174,2.075195,10.620117,48.400879
17318,0.031616,-0.077759,0.973389,1.892090,10.314941,47.973633
17327,0.035767,-0.011475,0.979614,1.586914,9.399414,47.485352
17338,0.020386,-0.042725,0.969116,1.586914,8.850098,46.875000
17347,0.027954,-0.005005,0.981689,1.525879,8.666992,46.386719
17358,0.057251,-0.041260,1.007690,1.464844,8.483887,45.776367
17369,0.090088,0.045410,1.045654,1.281738,8.605957,45.166016
17379,0.094604,0.124390,1.018188,0.671387,8.911133,45.532227
17388,0.098877,0.105103,1.035034,1.098633,9.277344,46.020508
17397,0.094849,0.105103,1.078125,1.464844,9.216309,46.264648
17407,0.072998,0.040894,1.105957,2.197266,8.972168,46.508789
17418,0.064331,0.083862,1.085693,2.563477,8.300781,46.630859
17427,0.083374,0.036987,1.036987,3.417969,8.361816,46.630859
17440,0.088135,0.011719,1.007935,4.760742,8.361816,47.607422
17449,0.074585,0.052490,1.016602,5.310059,8.728027,48.767090
17459,0.078491,0.029907,1.055176,5.615234,8.972168,50.842285
17468,0.025146,0.055908,1.036011,5.981445,9.338379,52.612305
17478,0.021606,-0.002563,1.046021,6.408691,9.887695,54.077148
17487,-0.007568,0.013428,1.043335,6.713867,10.131836,55.480957
17498,-0.005737,-0.004517,1.065430,7.019043,10.131836,56.579590
17507,-0.008545,-0.015137,1.037598,7.263184,9.582520,57.495117
17519,-0.012085,-0.066040,0.980225,7.629395,9.521484,57.617187
17528,0.016113,-0.091553,0.970215,7.751465,9.704590,57.800293
17537,0.010620,-0.036865,0.972534,7.202148,10.070801,58.349609
17548,0.034912,-0.011597,0.970093,7.019043,10.498047,58.715820
17557,0.065308,-0.000366,1.014282,7.019043,10.925293,59.020996
17567,0.045410,0.004639,1.039429,7.263184,10.681152,58.898926
17580,0.030273,0.026123,1.049194,7.080078,9.948730,58.410645
17589,0.060913,0.085815,1.045166,6.835937,9.887695,58.349609
17598,0.083496,0.060547,1.016846,7.202148,9.948730,57.922363
17608,0.121948,0.058228,1.014282,7.690430,10.192871,58.044434
17617,0.109009,0.026123,0.992920,8.300781,9.582520,57.922363
17627,0.125366,0.060181,0.966797,8.483887,9.460449,58.349609
17637,0.103882,-0.020020,0.939209,8.972168,9.094238,57.922363
17647,0.070801,-0.001709,0.943604,9.033203,8.483887,57.434082
17658,0.079224,-0.073730,0.920898,9.399414,7.507324,55.358887
17668,0.078613,-0.127808,0.909302,9.826660,6.835937,53.894043
17677,0.057007,-0.036499,0.948242,9.643555,6.347656,52.429199
17687,0.078979,-0.038330,0.976685,9.338379,5.737305,51.025391
17697,0.068237,-0.001343,0.980835,8.972168,5.554199,50.354004
17707,0.121582,0.041748,1.011841,8.789063,6.164551,49.621582
17720,0.104614,0.051270,1.034668,9.460449,6.164551,49.011230
17729,0.083374,0.070190,1.054077,9.765625,5.676270,48.706055
17738,0.089722,0.025024,1.053711,9.826660,5.554199,47.912598
17747,0.082397,0.023804,1.036621,10.131836,5.615234,47.668457
17758,0.094116,0.012817,0.989014,10.314941,5.493164,47.302246
17767,0.112427,-0.001343,0.991089,10.437012,5.065918,47.119141
17777,0.108276,-0.018799,0.979126,10.498047,5.187988,47.180176
17787,0.115967,0.052734,1.009644,9.765625,4.699707,47.912598
17798,0.121460,0.058960,1.000610,9.399414,5.676270,49.987793
17808,0.135010,0.062134,0.996582,8.972168,6.225586,51.513672
17817,0.145020,0.105957,0.992920,8.605957,6.530762,53.344727
17827,0.121704,0.045166,0.996826,8.850098,6.652832,54.992676
17837,0.101685,0.054443,1.021973,8.850098,6.835937,56.457520
17848,0.045166,0.036377,1.015503,8.850098,6.713867,57.800293
17857,0.029053,0.031128,1.020874,8.728027,7.202148,59.143066
17868,0.058838,0.033936,0.984253,8.850098,7.751465,61.462402
17877,0.038818,0.036011,0.983765,8.972168,8.056641,62.683105
17887,0.038574,0.002075,1.042236,9.521484,7.934570,63.842773
17897,0.021729,-0.013672,1.041016,9.704590,8.361816,64.453125
17907,0.044678,0.007568,1.073975,9.765625,8.483887,65.307617
17917,0.046387,0.005737,1.053833,10.009766,8.422852,65.734863
17928,0.064453,0.013794,1.047852,9.948730,9.338379,66.711426
17937,0.030884,0.036011,1.004028,10.375977,9.765625,67.321777
17948,0.035889,0.016235,0.978271,10.681152,9.704590,67.749023
17957,0.069458,-0.010010,0.994141,10.925293,9.948730,67.810059
17967,0.044922,-0.040405,1.012085,10.742188,9.399414,67.565918
17977,0.088623,-0.020874,1.022705,10.498047,8.544922,66.955566
17987,0.083496,0.022461,1.045898,10.498047,8.117676,65.856934
17997,0.106079,0.043945,1.058472,10.375977,8.117676,64.331055
18008,0.124512,0.043701,1.065552,10.559082,7.812500,60.729980
18017,0.148071,0.027344,1.035645,10.559082,6.896973,58.837891
18027,0.152954,0.027832,1.019043,10.498047,6.286621,57.189941
18036,0.192139,0.012939,0.987915,10.803223,5.615234,55.053711
18047,0.191650,0.020264,1.015991,10.559082,4.760742,53.222656
18057,0.195068,0.017090,1.008545,10.925293,4.028320,51.574707
18067,0.182251,0.069702,1.023804,10.620117,3.479004,49.987793
18078,0.186523,0.150024,1.039917,10.314941,2.197266,47.485352
18087,0.210571,0.103394,1.053833,11.108398,2.014160,46.508789
18097,0.161133,0.141602,0.998413,11.291504,1.708984,45.410156
18107,0.188354,0.070557,0.993774,12.023926,1.770020,45.104980
18116,0.099609,0.113770,0.981812,12.023926,1.525879,44.738770
18126,0.134155,0.067017,0.986816,11.779785,1.403809,44.311523
18138,0.106934,0.070557,0.967041,11.901855,2.380371,44.311523
18147,0.155396,0.057495,0.986694,11.962891,2.563477,44.494629
18158,0.163696,0.052490,0.970459,12.268066,2.807617,44.921875
18167,0.139526,0.060913,1.022461,12.451172,2.868652,45.349121
18177,0.144165,0.046509,1.020752,12.512207,2.929688,46.081543
18187,0.094360,0.092407,1.024658,12.634277,3.173828,46.997070
18196,0.092285,0.059692,1.009033,12.817383,3.479004,48.400879
18206,0.071167,0.046387,0.968384,13.061523,4.089355,50.537109
18218,0.064087,0.009888,0.938599,13.244629,4.821777,55.725098
18227,0.010132,0.009644,0.962402,13.061523,7.141113,59.082031
18236,0.035889,0.006470,0.984741,13.183594,8.117676,61.767578
18246,-0.002930,-0.013794,1.012817,13.183594,8.666992,64.270020
18256,0.041748,-0.009644,1.019409,13.244629,9.094238,65.856934
18267,-0.014038,0.052002,1.027954,13.061523,9.582520,67.382812
18276,0.047974,0.042236,1.062988,13.549805,9.704590,68.176270
18288,0.063232,0.035400,1.053223,13.854980,10.437012,68.969727
18298,0.030029,0.060547,1.019287,13.977051,10.559082,68.908691
18307,0.054810,0.020508,1.077515,14.587402,10.253906,67.810059
18316,0.033569,0.044800,1.085571,14.709473,10.131836,66.284180
18327,0.074219,0.027832,1.038452,14.587402,9.948730,64.392090
18336,0.106812,0.087646,1.035156,14.587402,9.399414,62.072754
18346,0.139282,0.085083,1.071655,14.587402,8.911133,60.485840
18356,0.182129,0.140625,1.027466,14.953613,8.728027,59.265137
18367,0.199097,0.098999,1.000244,15.625000,7.995605,58.776855
18376,0.195190,0.054687,1.002441,15.930176,7.446289,58.593750
18386,0.164429,0.089111,1.014160,15.808105,7.141113,58.288574
18397,0.170166,0.059692,0.996338,15.686035,7.019043,57.983398
18406,0.177124,0.101074,0.985718,15.869141,6.652832,57.373047
18416,0.195557,0.059448,1.008789,15.808105,6.103516,56.762695
18428,0.170288,0.060791,1.018799,15.930176,5.249023,55.725098
18438,0.131470,0.077637,0.986450,16.235352,4.882812,55.664062
18447,0.138184,0.078735,1.017456,16.418457,5.493164,56.396484
18456,0.119507,0.079224,1.006958,16.662598,5.859375,57.434082
18466,0.115356,0.080200,0.991821,16.784668,6.164551,59.143066
18476,0.093384,0.077881,0.980591,16.845703,6.896973,60.852051
18486,0.075439,0.057129,1.008911,16.967773,6.958008,62.316895
18499,0.073242,0.018066,1.011841,16.906738,7.690430,63.842773
18508,0.078979,0.022339,0.973755,16.784668,7.385254,64.025879
18517,0.064819,0.070190,0.953613,16.540527,7.263184,64.208984
18527,0.052246,0.050659,0.959961,16.601562,7.507324,64.636230
18536,0.078003,0.066284,0.994507,16.784668,7.751465,64.819336
18546,0.112671,0.000244,1.002197,17.028809,7.751465,64.819336
18555,0.106934,0.038330,0.992432,16.845703,7.690430,64.819336
18567,0.148804,0.095093,1.063477,16.540527,8.056641,63.659668
18576,0.180176,0.067993,1.015747,16.723633,7.751465,62.988281
18587,0.139893,0.040283,1.001343,17.089844,7.141113,62.011719
18596,0.153076,0.049316,1.018921,17.150879,6.652832,60.852051
18606,0.117554,0.038940,1.035645,17.395020,5.859375,59.936523
18616,0.140869,0.038208,0.987183,17.456055,5.493164,59.082031
18626,0.111572,0.062256,0.959351,17.395020,5.065918,58.349609
18635,0.125854,0.085327,0.972412,17.089844,4.882812,58.288574
18647,0.159790,0.092773,0.978882,16.723633,5.249023,58.898926
18656,0.140625,0.105835,0.977417,16.052246,5.187988,58.837891
18666,0.153198,0.119019,1.005249,15.869141,5.187988,58.715820
18676,0.140991,0.127197,1.022583,15.563965,5.310059,58.288574
18685,0.176025,0.125244,1.034180,15.625000,5.065918,57.861328
18696,0.166016,0.152710,1.017822,15.502930,4.943848,57.189941
18707,0.168579,0.169312,1.040039,16.113281,4.516602,55.725098
18716,0.196899,0.091187,1.012817,16.418457,4.150391,55.480957
18726,0.187012,0.076538,0.968140,16.601562,4.211426,55.297852
18736,0.111328,0.099365,1.016968,16.723633,4.638672,55.297852
18746,0.145264,0.060059,1.025513,16.967773,4.699707,55.236816
18755,0.102539,0.034302,0.998779,16.967773,4.882812,55.053711
18766,0.111450,0.018555,1.000732,16.906738,4.272461,54.748535
18777,0.082886,0.060669,0.999023,16.723633,4.272461,53.649902
18786,0.112671,0.048096,1.016602,16.784668,4.089355,53.405762
18796,0.127808,0.055908,1.039917,16.418457,4.089355,53.161621
18806,0.116943,0.072998,1.029541,16.418457,4.089355,53.527832
18815,0.125122,0.069458,1.025635,16.784668,4.882812,54.382324
18825,0.125366,0.096191,0.998779,16.906738,5.249023,55.541992
18835,0.110107,0.123779,0.970337,16.784668,5.737305,57.128906
18847,0.075439,0.095093,0.987915,16.784668,6.896973,60.974121
18856,0.063110,0.062134,1.005981,16.540527,7.995605,62.927246
18866,0.029907,0.088623,1.005127,16.357422,8.483887,64.697266
18875,0.009766,0.060547,0.977539,16.113281,9.094238,66.101074
18886,0.031006,0.074219,0.997314,15.808105,9.338379,67.443848
18895,0.043213,0.078857,1.043823,15.747070,9.826660,69.030762
18906,0.054321,0.082886,1.019409,15.686035,10.009766,70.251465
18915,0.065308,0.074829,0.985229,15.930176,10.559082,71.289062
18927,0.096191,0.145752,1.042847,15.930176,10.559082,73.120117
18936,0.066650,0.167480,1.037598,16.174316,10.864258,73.730469
18946,0.111572,0.131348,1.010620,16.540527,11.413574,74.157715
18956,0.104492,0.101074,1.050415,17.028809,11.474609,74.523926
18965,0.138306,0.111694,1.048340,17.150879,11.718750,74.462891
18975,0.115479,0.081177,0.995850,17.700195,11.657715,74.035645
18987,0.147827,0.099854,1.009399,18.920898,10.620117,71.716309
18996,0.122559,0.073853,1.042603,19.531250,9.948730,69.763184
19006,0.102905,0.023926,0.999512,20.019531,8.972168,67.260742
19016,0.138306,0.019043,1.041626,20.019531,7.995605,64.880371
19025,0.148193,0.063843,1.003418,20.202637,7.385254,62.744141
19035,0.173950,0.100586,0.993652,20.141602,6.530762,61.035156
19046,0.195068,0.100220,0.996704,20.202637,6.408691,60.180664
19055,0.263184,0.120728,0.984863,20.507812,6.530762,59.997559
19067,0.220825,0.125244,0.980591,21.057129,5.920410,60.729980
19076,0.198242,0.072388,0.982544,21.423340,5.187988,60.852051
19086,0.156250,0.085083,0.981812,21.362305,4.638672,60.668945
19095,0.114990,0.056396,0.990479,21.301270,4.455566,60.363770
19105,0.102051,0.118530,1.034302,20.996094,4.333496,59.692383
19116,0.155396,0.066406,1.037109,20.996094,4.516602,59.509277
19125,0.115845,0.129272,1.010620,20.996094,5.004883,59.265137
19137,0.082642,0.133911,1.045044,21.240234,4.699707,58.715820
