timestamp,accX,accY,accZ,gyrX,gyrY,gyrZ
11,0.005981,-0.072876,1.068848,2.929688,-9.643555,-16.723633
20,0.034546,-0.288452,1.010498,3.234863,-9.094238,-17.272949
31,0.031616,-0.374146,0.959351,2.441406,-9.155273,-18.066406
40,0.088745,-0.099976,1.074585,1.037598,-9.033203,-18.676758
50,0.036133,-0.057129,1.105957,0.549316,-8.911133,-19.897461
62,0.057861,-0.113037,0.955078,0.671387,-8.789063,-21.240234
71,0.068481,-0.016602,0.981567,0.305176,-8.483887,-22.583008
81,0.046509,0.033325,0.996216,0.061035,-8.178711,-24.047852
90,0.026367,-0.046265,1.019653,0.122070,-8.300781,-25.695801
101,0.006836,-0.084839,1.009033,0.793457,-7.385254,-27.160645
111,0.060059,-0.116577,1.051025,0.976562,-7.019043,-27.832031
120,0.066406,-0.081299,1.027344,0.427246,-6.164551,-28.869629
132,0.027222,-0.035767,0.992432,0.915527,-5.737305,-29.602051
141,-0.037964,-0.141968,0.936401,1.647949,-5.371094,-30.029297
151,-0.033569,-0.139282,0.866333,1.708984,-5.065918,-30.090332
160,-0.007690,-0.170288,0.894653,1.098633,-4.089355,-29.602051
170,0.007446,-0.152344,0.831665,0.244141,-3.295898,-28.381348
180,-0.020386,0.149414,1.009644,-0.427246,-1.953125,-26.489258
190,-0.035645,0.096802,1.041138,1.220703,1.403809,-20.385742
200,-0.044556,-0.059082,0.982666,2.197266,2.319336,-17.517090
210,-0.041138,-0.196533,0.891357,2.075195,3.356934,-15.136719
220,-0.020142,-0.046753,0.971924,1.281738,4.394531,-11.840820
230,-0.015503,0.008179,0.952148,0.610352,4.821777,-8.789063
240,-0.032227,-0.033447,0.903931,0.610352,5.187988,-6.530762
250,-0.023437,-0.091919,0.838013,0.854492,5.981445,-3.601074
263,-0.087769,-0.112061,0.874146,-0.976562,6.958008,2.075195
272,-0.151978,-0.036499,1.013550,-2.258301,7.751465,5.126953
281,-0.191284,0.143066,1.199463,-2.319336,8.605957,7.812500
291,-0.194336,0.047852,1.241211,-1.220703,9.948730,9.765625
300,-0.170410,-0.120483,1.102051,0.061035,11.047363,11.779785
311,-0.127197,-0.174316,0.993774,0.610352,11.108398,12.329102
320,-0.128052,-0.175781,0.950317,-0.610352,10.742188,12.939453
330,-0.135986,-0.003296,1.070068,-1.525879,10.986328,16.601562
341,-0.147339,0.094238,1.086670,-0.244141,12.084961,19.409180
350,-0.088135,-0.126343,0.962524,0.549316,12.695313,22.644043
361,-0.008911,-0.159790,0.969238,-0.366211,12.268066,26.000977
371,0.043945,-0.104858,1.052368,-1.708984,11.291504,28.869629
380,-0.052734,0.003418,1.109375,-2.258301,9.826660,30.883789
391,-0.116577,0.042603,0.998901,-1.647949,9.765625,32.470703
400,-0.086548,-0.038574,1.118530,-0.549316,10.253906,35.827637
410,-0.011963,-0.146118,0.961060,-0.915527,8.605957,35.644531
421,-0.178345,-0.135376,0.881592,-1.647949,7.141113,35.156250
430,-0.122559,-0.066284,0.948242,-2.258301,6.103516,33.569336
440,-0.097656,-0.114136,0.982788,-2.197266,5.615234,32.897949
450,-0.039063,-0.197144,1.011719,-2.014160,4.699707,31.555176
462,-0.011963,-0.110352,0.991333,-2.319336,2.380371,28.320312
472,0.042480,0.012329,1.087646,-1.586914,1.892090,26.916504
481,0.006226,-0.073486,1.042114,-0.732422,0.671387,24.291992
491,-0.046631,-0.199219,1.051880,-0.244141,-0.366211,21.972656
501,-0.050537,-0.210815,1.034546,-0.305176,-0.976562,20.080566
510,-0.076660,-0.120605,1.007690,-0.793457,-1.281738,17.517090
521,-0.100098,-0.185547,0.910889,-1.220703,-2.441406,15.319824
530,-0.075562,-0.099365,0.883057,-1.281738,-3.051758,12.634277
542,-0.065918,-0.168945,0.901978,-1.281738,-3.723145,8.361816
552,-0.007202,0.095703,1.070557,-1.342773,-3.723145,5.676270
561,0.001343,0.000122,1.084595,-0.610352,-4.089355,3.295898
571,0.002075,-0.025757,0.982788,0.366211,-4.028320,0.366211
580,0.070435,-0.113647,0.963379,0.854492,-4.272461,-2.990723
591,0.040894,-0.308716,0.850830,0.732422,-5.249023,-6.164551
600,0.009277,-0.042358,1.023682,-0.366211,-6.286621,-8.789063
610,0.018311,-0.045166,1.126831,-0.427246,-6.896973,-14.099121
622,0.006104,0.000244,1.068115,0.122070,-6.469727,-16.235352
631,0.017090,-0.185059,0.941650,0.122070,-6.408691,-18.493652
641,0.038208,-0.042358,0.931396,-0.610352,-6.713867,-20.996094
650,0.037720,0.015015,0.996704,-1.220703,-7.385254,-23.681641
661,0.080566,0.073242,0.968872,-1.220703,-7.263184,-25.451660
671,0.070923,-0.043823,0.950439,-0.610352,-7.202148,-26.428223
681,0.057373,-0.097534,0.884399,-2.014160,-6.591797,-27.587891
690,0.046753,0.035156,1.043823,-3.417969,-5.493164,-26.672363
700,0.026489,0.138184,1.081543,-3.601074,-4.028320,-25.146484
711,0.050171,0.075684,1.060303,-2.624512,-3.234863,-23.925781
720,0.005493,-0.067383,0.932861,-2.136230,-2.258301,-23.376465
731,0.069824,-0.078857,0.985962,-2.075195,-1.525879,-23.132324
741,0.096069,-0.033813,1.025269,-2.563477,-1.098633,-23.437500
752,0.069458,0.100464,1.064819,-1.892090,-1.220703,-25.085449
762,0.093872,0.013672,1.050903,-0.671387,-0.976562,-25.268555
771,0.109985,-0.069214,0.915405,0.061035,-0.305176,-24.902344
781,0.116211,-0.028564,0.999634,-0.183105,0.122070,-24.230957
791,0.151123,-0.000366,1.036133,-0.732422,0.549316,-23.132324
801,0.104614,-0.023682,0.970215,-0.854492,1.098633,-20.935059
812,0.076538,-0.049438,0.960327,-1.159668,1.831055,-15.930176
822,-0.015869,-0.090698,0.890259,-2.075195,2.380371,-13.000488
831,-0.003540,-0.053223,0.969238,-2.990723,3.540039,-9.582520
841,-0.035156,0.000244,1.018188,-3.723145,4.211426,-6.835937
850,-0.050903,0.089722,1.056274,-3.601074,4.638672,-5.004883
861,-0.095825,0.023193,1.013062,-2.685547,5.310059,-3.234863
871,-0.076050,-0.034912,1.011841,-1.831055,5.554199,-1.831055
881,-0.118286,-0.182739,0.927856,-1.708984,5.737305,1.708984
890,-0.090332,-0.195312,0.954102,-2.929688,6.835937,4.211426
900,-0.093750,-0.011597,0.958130,-2.868652,7.629395,7.141113
911,-0.033325,-0.063599,0.942383,-2.441406,8.300781,9.948730
920,0.009155,-0.128174,1.000000,-1.770020,8.361816,12.329102
931,-0.009277,-0.200806,0.933228,-1.892090,7.629395,14.343262
941,-0.010620,-0.197876,0.908203,-2.014160,7.446289,15.563965
951,0.010010,-0.180298,0.958862,-2.441406,6.958008,16.418457
962,-0.035278,-0.145752,0.967163,-3.295898,5.920410,17.028809
972,-0.029297,-0.034912,1.046997,-3.662109,5.615234,17.333984
982,-0.017456,-0.142944,0.944946,-3.356934,5.371094,18.249512
991,0.000488,-0.118896,0.948120,-3.540039,5.126953,19.348145
1001,0.025391,-0.187988,0.974121,-3.723145,4.516602,20.446777
1011,0.005493,-0.006958,1.029419,-3.601074,4.394531,21.423340
1022,0.000977,-0.124634,0.870728,-2.197266,3.173828,20.568848
1031,-0.008179,-0.327271,0.958008,-1.953125,2.197266,18.615723
1042,-0.028320,-0.221802,1.005859,-2.136230,1.281738,15.686035
1051,-0.008789,-0.326538,0.941284,-2.258301,0.671387,11.901855
1061,-0.006836,-0.145752,1.100586,-3.051758,-0.549316,7.507324
1071,0.021729,-0.300537,1.021484,-3.295898,-2.136230,2.685547
1081,0.002319,-0.165894,1.008545,-3.112793,-3.051758,-1.647949
1090,0.042725,-0.231689,1.003296,-2.624512,-3.662109,-4.760742
1102,0.042969,-0.135864,1.052734,-3.051758,-4.516602,-8.483887
1112,0.044067,-0.216919,0.957031,-3.112793,-4.760742,-10.009766
1121,0.039917,-0.019287,1.045776,-3.112793,-4.455566,-11.291504
1131,0.040649,-0.162720,0.941162,-2.624512,-4.333496,-12.756348
1141,0.043335,0.007446,1.034302,-2.746582,-4.150391,-13.977051
1150,0.041870,-0.131470,0.990356,-2.563477,-4.089355,-15.197754
1162,0.051025,-0.079346,1.064087,-2.441406,-3.967285,-15.563965
1172,0.051880,-0.108887,0.927368,-2.319336,-3.479004,-14.526367
1182,0.132202,0.067749,1.084473,-2.380371,-2.868652,-13.244629
1191,0.064453,-0.172485,0.895386,-1.953125,-2.136230,-10.925293
1201,0.078979,0.038452,1.051636,-2.502441,-1.647949,-8.972168
1211,0.006104,-0.076416,0.944946,-2.136230,-1.220703,-7.080078
1220,0.014404,0.062378,1.008057,-2.502441,-0.549316,-5.737305
1232,0.009766,-0.031250,1.011475,-1.342773,-0.427246,-3.051758
1241,-0.016235,0.021484,1.117676,-0.610352,-0.549316,-2.258301
1251,-0.006470,-0.231567,0.994019,-0.122070,-0.183105,-1.220703
1260,0.031982,0.008667,1.050049,-0.427246,-0.061035,-0.427246
1270,0.034790,-0.187622,0.976318,-0.793457,-0.366211,0.671387
1280,0.040039,-0.029053,1.006226,-1.464844,0.000000,1.464844
1291,0.003540,-0.120117,0.985229,-1.464844,-0.122070,2.380371
1300,0.038452,-0.105225,0.977539,-1.525879,-0.427246,2.197266
1312,0.014404,-0.245239,0.934204,-1.525879,-0.610352,-0.244141
1321,0.000977,-0.168701,1.045166,-1.831055,-1.770020,-2.807617
1331,-0.016113,-0.287842,0.947632,-1.953125,-2.441406,-5.554199
1341,-0.015137,-0.038086,1.142090,-1.892090,-2.990723,-7.812500
1351,-0.004395,-0.155884,0.990112,-1.037598,-3.540039,-10.131836
1360,-0.034302,-0.119873,0.981323,-0.366211,-3.417969,-11.901855
1372,-0.015503,-0.181030,1.002441,-0.549316,-2.746582,-12.573242
1382,-0.070923,-0.135254,0.999634,-1.281738,-1.770020,-11.474609
1392,-0.037476,-0.081055,0.986084,-1.403809,-0.305176,-9.582520
1402,-0.087769,-0.232910,0.811401,-1.159668,0.610352,-7.812500
1411,-0.029297,-0.083374,0.917603,-1.525879,1.464844,-6.713867
1421,-0.028809,-0.256348,0.859741,-2.441406,1.647949,-5.676270
1431,-0.018066,0.017212,1.049561,-3.173828,1.525879,-5.004883
1441,-0.057129,-0.015625,1.037354,-3.356934,0.976562,-5.004883
1450,-0.099854,0.022217,1.035034,-2.075195,1.281738,-4.394531
1460,-0.027466,-0.102661,1.033081,-1.770020,2.014160,-3.540039
1471,0.041870,0.171997,1.136108,-1.647949,2.624512,-2.441406
1480,0.100586,0.074951,1.051514,-1.586914,2.807617,-0.915527
1490,0.108398,0.104736,0.954712,-0.976562,2.990723,0.915527
1500,0.097046,0.169556,0.996582,-0.610352,2.807617,2.929688
1512,0.071167,0.011597,0.937988,-0.366211,2.441406,6.347656
1521,-0.029541,0.006836,1.056152,-0.976562,2.441406,8.178711
1531,-0.040894,0.105225,1.071777,-1.831055,2.807617,9.460449
1541,0.000977,0.131592,0.958496,-1.953125,2.929688,10.314941
1550,0.046021,0.161743,0.893066,-1.525879,2.075195,10.620117
1560,0.012695,0.126953,0.842651,-0.976562,0.671387,11.047363
1571,-0.071533,0.069458,0.860352,-0.549316,0.488281,11.352539
1581,-0.179443,0.005859,0.947144,-0.610352,1.464844,12.756348
1592,-0.130981,-0.258179,0.829102,-1.525879,4.455566,15.075684
1602,-0.040161,-0.262939,0.767090,-2.441406,2.075195,13.793945
1612,-0.017456,-0.078247,0.753906,-3.112793,-2.136230,10.681152
1621,-0.241821,-0.146729,0.484863,-2.929688,-4.455566,8.117676
1631,-0.301758,-0.151733,0.514526,-2.380371,-1.953125,8.483887
1641,-0.196777,-0.381226,0.680786,-2.197266,1.892090,11.230469
1650,-0.276001,-0.847046,0.508423,-2.014160,2.990723,14.343262
1662,-0.253540,-2.761597,-1.317383,-6.713867,6.591797,17.639160
1672,0.163940,-2.926880,-1.182861,-26.123047,9.887695,15.136719
1682,0.349243,-2.271240,-1.606934,-47.790527,5.615234,5.676270
1691,0.737549,0.183960,0.489502,-66.833496,-0.061035,-0.854492
1701,0.714233,0.824219,2.605957,-61.279297,-8.972168,-6.347656
1711,0.261353,0.550415,3.999512,-39.550781,-13.610840,-9.826660
1720,0.374878,0.456909,3.999512,-19.775391,-12.939453,-8.056641
1732,0.235474,-1.345459,2.077148,-0.976562,-12.207031,-4.943848
1741,0.324707,-1.519165,0.781494,21.362305,-15.502930,-4.211426
1751,0.255615,-1.436890,0.059692,13.916016,-17.333984,-4.211426
1761,0.020020,-1.126343,0.676880,5.249023,-17.761230,-4.455566
1770,-0.108765,-0.689087,1.599731,0.854492,-14.709473,-2.990723
1781,-0.206787,-0.410645,2.096802,1.159668,-10.070801,-2.319336
1791,-0.341675,-0.007935,2.079590,4.150391,-5.065918,-5.798340
1802,0.051025,2.837036,3.999512,16.052246,-2.563477,-10.192871
1812,-0.404785,3.198486,3.999512,35.095215,-9.826660,-12.695313
1822,-0.858154,3.999512,3.999512,57.800293,-9.033203,-16.845703
1832,-1.135498,3.999512,3.999512,79.345703,-2.380371,-9.033203
1842,0.151489,3.879150,3.968384,89.111328,7.385254,3.479004
1851,0.804565,3.002319,2.429199,96.313477,17.456055,11.169434
1860,0.234009,1.929688,0.899536,105.346680,16.967773,18.005371
1872,0.484497,0.791626,0.288818,108.825684,2.624512,13.000488
1881,0.291504,0.100830,-0.370850,102.416992,-2.746582,9.521484
1891,0.421143,0.093750,-0.568970,91.979980,-3.051758,4.882812
1900,-0.298950,0.179321,-0.579102,82.946777,-1.647949,4.150391
1911,-0.504272,0.182983,-0.290894,76.538086,2.075195,3.417969
1921,-0.757935,0.051392,-0.145630,70.495605,6.225586,0.976562
1931,-0.613892,0.037354,-0.148315,63.293457,9.887695,-4.394531
1942,-0.149902,0.226440,-0.127075,52.307129,18.737793,-8.117676
1952,0.100952,0.065674,0.046509,50.537109,23.803711,-4.394531
1961,0.061523,-0.224121,0.082764,48.767090,26.062012,1.525879
1970,0.137085,-0.390869,0.031494,45.410156,26.733398,6.347656
1981,0.018066,-0.527344,-0.081299,40.161133,27.160645,10.131836
1990,-0.072754,-0.550415,-0.190186,34.179687,27.343750,13.183594
2002,0.022339,-0.675293,-0.260742,24.597168,26.000977,12.207031
2011,0.413208,-1.061157,-0.219727,20.568848,23.315430,8.728027
2021,0.539917,-1.183960,-0.234375,15.563965,18.615723,3.112793
2030,0.475464,-1.201782,-0.272461,9.521484,13.366699,-3.601074
2041,0.333130,-1.068481,-0.309692,3.417969,8.850098,-9.033203
2051,0.384277,-1.000488,-0.253052,-1.953125,5.493164,-13.305664
2060,0.379761,-0.924805,-0.205688,-6.286621,2.685547,-16.601562
2072,0.159424,-0.899780,-0.213867,-13.305664,-0.854492,-19.897461
2082,-0.125854,-1.008057,-0.177612,-17.395020,-0.549316,-19.775391
2092,-0.215698,-1.086914,-0.165283,-22.399902,0.244141,-20.141602
2102,-0.258301,-1.114746,-0.177002,-27.893066,1.220703,-21.179199
2112,-0.092896,-1.068970,-0.195557,-33.996582,2.807617,-21.484375
2121,-0.007568,-0.962158,-0.199463,-40.039062,3.906250,-21.240234
2131,0.090576,-0.806641,-0.233643,-46.020508,4.272461,-20.385742
2141,0.121948,-0.723755,-0.314697,-51.452637,3.662109,-19.165039
2152,0.031006,-0.540405,-0.426514,-60.791016,2.197266,-16.296387
2162,0.058716,-0.627808,-0.404663,-64.453125,1.770020,-14.587402
2172,0.058472,-0.676147,-0.407227,-68.725586,1.708984,-13.122559
2181,0.003174,-0.788330,-0.459961,-73.791504,1.403809,-11.901855
2190,-0.004272,-0.823242,-0.514526,-79.711914,1.281738,-11.352539
2201,-0.007324,-0.798950,-0.568237,-86.303711,0.854492,-11.535645
2211,-0.026611,-0.733398,-0.708130,-93.505859,0.244141,-12.084961
2221,0.061035,-0.612183,-0.845825,-108.642578,-1.708984,-13.549805
2231,0.208374,-0.304321,-1.077759,-115.051270,-3.540039,-15.625000
2241,0.184937,0.197754,-0.433594,-122.009277,-5.798340,-18.371582
2251,-0.031494,2.657471,3.999512,-117.248535,-6.286621,-21.179199
2261,0.354004,0.985840,3.999512,-67.077637,-8.483887,-17.761230
2271,-1.161499,-3.999512,-0.834106,-21.301270,-14.770508,-7.324219
2281,-0.522827,-1.862427,-0.014648,-112.182617,10.192871,-25.878906
2291,0.606323,3.999512,2.782104,-56.213379,0.976562,-11.840820
2301,-0.865234,-3.897949,-1.846680,9.826660,-14.038086,-5.187988
2311,-0.019897,0.295410,3.999512,1.281738,-7.202148,-9.033203
2321,0.387817,0.605225,3.999512,-15.258789,0.915527,2.441406
2331,-0.621948,-1.970093,0.412476,-4.882812,0.305176,13.061523
2341,-0.101074,0.777710,0.963989,-9.338379,10.803223,14.465332
2352,-0.047852,1.035278,1.537109,18.493652,10.314941,28.625488
2361,0.139160,-2.026733,1.142456,19.104004,3.601074,27.770996
2371,0.324463,-0.841919,1.531372,0.244141,0.427246,27.587891
2381,0.156616,0.528931,1.372070,-14.282227,1.342773,32.226562
2391,0.224609,1.019043,1.183228,-11.718750,2.868652,35.278320
2401,0.157715,0.637451,1.524170,1.831055,2.380371,37.109375
2411,0.263550,0.006958,2.212524,11.596680,1.647949,38.696289
2422,0.070801,-0.099121,2.117432,12.695313,-2.868652,36.010742
2432,-0.057251,0.575562,1.245972,15.197754,-4.516602,32.287598
2441,-0.084106,0.356323,0.927490,22.888184,-7.873535,26.000977
2450,-0.189209,-0.017700,0.824951,29.296875,-11.108398,18.310547
2461,-0.180054,-0.289673,0.745117,29.541016,-13.000488,10.803223
2470,-0.049805,-0.090576,0.731567,24.597168,-12.939453,3.662109
2481,0.030273,0.183838,0.622681,19.714355,-12.817383,-1.892090
2491,0.119019,0.287354,0.409546,17.944336,-12.817383,-5.432129
2502,0.121582,0.103149,0.427246,18.371582,-14.526367,-9.582520
2512,0.045166,-0.063721,0.622314,16.967773,-14.587402,-11.718750
2521,-0.067017,0.043213,0.765381,14.160156,-14.709473,-13.732910
2531,-0.151367,0.114746,0.719604,11.657715,-14.099121,-16.052246
2541,-0.203857,-0.004150,0.515137,10.070801,-13.183594,-17.578125
2551,-0.212769,0.100586,0.542603,9.094238,-11.840820,-18.554687
2564,-0.193970,-0.164917,0.653809,8.178711,-10.620117,-20.568848
2573,-0.126343,-0.014404,0.842773,6.713867,-10.009766,-21.057129
2583,-0.094971,-0.091919,0.776855,5.187988,-9.216309,-20.568848
2593,0.015625,-0.089478,0.718872,3.479004,-8.117676,-19.226074
2602,0.067627,-0.010498,0.810181,2.197266,-6.652832,-17.089844
2612,0.123291,-0.098877,0.757080,1.525879,-5.798340,-15.258789
2621,0.139893,-0.037720,0.910767,0.671387,-5.249023,-13.916016
2631,0.140381,-0.100342,0.969116,0.000000,-5.615234,-14.587402
2643,0.129517,-0.114502,1.038086,-0.488281,-5.676270,-15.380859
2653,0.102295,-0.126465,0.986572,-0.854492,-6.347656,-16.845703
2662,0.117798,0.141968,1.076050,-1.159668,-6.896973,-18.371582
2672,0.083130,0.015381,1.026611,-0.488281,-7.080078,-18.798828
2681,0.085571,0.054077,1.069214,0.244141,-6.896973,-18.798828
2691,0.039063,-0.053345,1.036011,0.671387,-6.835937,-18.615723
2703,0.038940,0.031128,1.104004,-0.305176,-6.591797,-17.639160
2713,0.013794,-0.064575,0.990112,-0.915527,-6.408691,-17.028809
2723,-0.039307,0.072998,1.001831,-1.464844,-5.798340,-16.601562
2732,-0.017456,0.051514,1.002930,-1.586914,-5.310059,-15.991211
2742,-0.033813,0.072510,0.990356,-1.708984,-4.699707,-15.930176
2752,-0.013184,0.094116,1.005127,-2.136230,-4.394531,-16.174316
2761,-0.009277,0.133545,1.097656,-2.929688,-4.333496,-16.723633
2773,0.022217,0.170532,1.099243,-2.990723,-4.577637,-17.272949
2782,0.001587,0.151733,1.059082,-2.075195,-4.516602,-18.432617
2791,-0.041992,0.064331,0.978882,-1.708984,-4.333496,-19.104004
2801,-0.108765,0.082764,0.985474,-2.197266,-3.906250,-19.897461
2811,-0.140137,0.155884,1.059814,-2.624512,-3.295898,-20.751953
2821,-0.200928,0.242065,1.068726,-2.990723,-2.624512,-22.460937
2831,-0.240356,0.257446,1.026001,-2.563477,-1.586914,-23.864746
2843,-0.174316,0.211426,1.019775,-2.258301,-0.610352,-25.268555
2852,-0.168579,0.156006,1.043091,-1.464844,1.525879,-26.916504
2862,-0.161865,0.107300,1.084351,-1.464844,2.746582,-27.343750
2871,-0.178223,0.083862,1.053711,-1.159668,4.211426,-27.526855
2881,-0.189941,0.071167,1.001587,-1.220703,5.310059,-27.648926
2891,-0.244141,0.076904,0.993896,-1.220703,6.835937,-27.526855
2901,-0.299683,0.077148,0.957642,-1.098633,8.239746,-27.404785
2914,-0.346436,0.014404,0.907471,-1.159668,11.169434,-27.221680
2923,-0.388428,0.056030,0.925171,-0.976562,12.939453,-27.038574
2933,-0.380127,0.083496,0.880859,-0.732422,14.404297,-26.916504
2942,-0.346680,-0.036011,0.904175,-0.061035,16.418457,-26.062012
2952,-0.280029,0.034912,1.007080,0.305176,18.249512,-25.085449
2962,-0.284058,0.029419,0.940918,1.098633,20.202637,-24.108887
2971,-0.276489,-0.065918,0.892212,1.831055,22.277832,-22.888184
2983,-0.267578,-0.059570,0.904419,2.685547,24.536133,-18.249512
2992,-0.284302,-0.191650,0.841919,3.234863,28.076172,-15.808105
3002,-0.083130,-0.317383,0.794312,3.295898,29.602051,-13.244629
3011,0.529175,-0.567993,1.128418,2.807617,31.616211,-9.582520
3022,0.364990,-0.534180,1.228516,0.976562,30.517578,-4.882812
3031,0.188354,-0.281372,0.287231,0.427246,26.184082,-1.098633
3042,0.002441,-0.376343,0.405518,3.356934,22.216797,1.220703
3051,0.252197,-0.851318,0.786865,6.347656,24.414062,11.596680
3063,0.460205,-1.089233,0.924561,2.990723,26.489258,20.385742
3072,0.184692,-0.727173,0.774048,-0.671387,24.902344,24.475098
3081,0.216309,-0.854126,0.474731,-2.197266,23.193359,25.939941
3092,0.159668,-1.281982,-0.079102,-2.197266,21.667480,29.113770
3101,0.317139,-1.413452,0.023560,-5.432129,19.775391,32.226562
3112,0.370239,-0.862549,0.683472,-14.343262,18.310547,33.325195
3121,0.150024,-0.439697,0.406128,-25.878906,13.793945,31.311035
3133,0.062134,0.412842,1.437744,-23.071289,14.099121,31.982422
3143,0.031616,0.217407,1.894531,-17.578125,14.343262,32.165527
3152,-0.000732,0.139526,1.926025,-14.831543,14.282227,31.005859
3162,-0.001953,0.203613,1.933594,-12.756348,14.526367,30.334473
3171,0.026733,0.365234,1.926392,-8.117676,13.854980,29.663086
3182,0.067749,-0.151001,1.197754,-2.563477,11.901855,28.198242
3191,0.162476,-0.253662,1.052246,-15.502930,2.075195,20.690918
3202,0.356689,-0.067871,1.073242,-1.464844,-3.295898,15.258789
3212,0.388550,-0.021851,0.968994,-2.929688,-6.103516,13.488770
3222,0.329224,0.265625,1.035889,-4.211426,-6.347656,14.465332
3231,0.299927,0.399170,1.088013,-4.150391,-5.126953,17.333984
3242,0.267700,0.332886,1.091553,-2.807617,-3.723145,21.667480
3251,0.169800,0.260864,1.073120,-2.136230,-3.234863,25.878906
3263,0.103516,0.240723,1.017578,-2.929688,-2.441406,30.700684
3272,0.147827,0.450195,1.143433,-3.234863,-3.906250,30.456543
3282,0.079102,0.125122,1.013672,-1.892090,-7.019043,27.709961
3291,-0.044434,0.058228,1.025757,-1.342773,-8.911133,24.291992
3302,-0.004272,-0.041992,1.087524,-2.136230,-8.728027,20.751953
3311,0.063110,0.024048,1.112549,-2.685547,-8.056641,16.906738
3323,0.097778,0.222290,1.208008,-1.708984,-10.742188,6.774902
3332,-0.035278,0.192871,1.340820,0.915527,-13.488770,0.427246
3342,-0.127441,-0.034546,1.365479,4.150391,-15.686035,-5.554199
3352,-0.135376,-0.131958,1.361450,6.652832,-16.784668,-10.681152
3361,-0.119385,-0.167725,1.107178,7.873535,-15.930176,-14.892578
3372,-0.050781,-0.356445,0.874512,7.507324,-14.221191,-17.639160
3382,-0.031372,-0.137207,0.802246,5.798340,-12.268066,-19.592285
3391,0.013184,-0.065186,0.656982,5.493164,-10.803223,-21.179199
3403,-0.003662,-0.301147,0.817139,5.920410,-10.437012,-22.705078
3412,-0.004028,-0.399536,0.764404,6.286621,-10.559082,-23.132324
3422,-0.022461,-0.289673,0.713623,5.249023,-9.521484,-22.521973
3432,-0.006104,-0.303955,0.719482,4.272461,-8.056641,-20.141602
3441,-0.008789,-0.330811,0.731201,3.540039,-6.958008,-16.784668
3452,0.049561,-0.396240,0.694214,3.173828,-5.249023,-12.023926
3461,0.128906,-0.290039,0.723022,2.380371,-3.967285,-5.737305
3473,0.189453,-0.310181,0.788574,1.281738,-2.990723,10.009766
3482,0.141113,-0.291748,0.940796,-0.183105,-2.685547,17.578125
3492,0.091431,-0.291016,1.006470,-0.427246,-2.197266,24.841309
3502,0.012207,-0.178223,0.998169,0.244141,-2.075195,30.944824
3511,-0.018799,-0.264160,1.007080,1.037598,-1.708984,35.827637
3522,-0.073486,-0.465698,0.933472,1.831055,-1.647949,39.550781
3533,-0.049927,-0.327393,1.016724,0.549316,-3.295898,42.541504
3543,-0.140259,-0.262573,0.995605,-0.305176,-5.493164,42.175293
3553,-0.091797,-0.234863,1.067627,-0.122070,-7.629395,41.259766
3562,-0.045532,-0.567993,0.838623,0.732422,-9.399414,39.550781
3571,-0.119873,-0.450317,0.891846,0.854492,-10.864258,36.804199
3581,-0.149536,-0.684814,0.846069,0.488281,-11.230469,34.057617
3592,-0.185669,-0.658325,0.962891,-1.037598,-10.620117,30.883789
3602,-0.186646,-0.483276,1.086792,-2.258301,-10.681152,26.367187
3611,-0.266846,-0.601074,0.946411,-1.831055,-12.451172,14.343262
3622,-0.347290,-0.940063,0.394043,-1.586914,-12.695313,7.934570
3632,-0.390015,-1.149170,0.206299,-3.662109,-11.718750,2.868652
3642,-0.445801,-0.838257,0.460693,-8.483887,-9.582520,-0.915527
3652,-0.439453,-0.436646,0.505737,-13.488770,-8.056641,-3.234863
3661,-0.407715,-0.139160,0.619263,-16.174316,-6.652832,-4.943848
3673,-0.385742,0.042603,1.032959,-11.840820,-3.662109,-5.981445
3683,-0.211060,-0.255981,1.502441,-9.948730,-2.868652,-5.676270
3693,-0.156006,-0.251099,1.354980,-9.643555,-1.525879,-5.737305
3703,-0.264038,0.099487,1.463501,-8.972168,-0.183105,-6.896973
3713,-0.305664,0.233398,1.508911,-7.385254,0.793457,-7.934570
3722,-0.303467,0.237305,1.393921,-4.943848,1.647949,-8.789063
3732,-0.334106,0.185669,1.207520,-2.258301,2.441406,-10.498047
3742,-0.416016,0.145020,1.225952,0.366211,4.394531,-11.474609
3753,-0.273560,-0.129517,1.065186,2.441406,9.582520,-10.253906
3763,-0.336792,-0.119019,0.892822,1.586914,10.803223,-10.375977
3772,-0.332031,-0.031616,0.810303,0.366211,11.474609,-9.948730
3782,-0.238770,-0.093018,0.819946,-0.610352,12.512207,-9.216309
3792,-0.195679,-0.248657,0.853149,-1.770020,13.000488,-8.361816
3802,-0.116821,-0.038330,0.972778,-3.173828,13.366699,-7.263184
3812,0.004395,0.205200,1.136597,-4.455566,13.549805,-1.464844
3826,0.091064,-0.107666,1.051636,-2.990723,14.221191,2.746582
3836,0.164795,-0.168457,1.073364,-1.525879,16.601562,7.690430
3845,0.241821,-0.120972,1.095093,-1.525879,15.930176,12.634277
3855,0.296143,-0.033691,1.067383,-1.831055,15.136719,16.174316
3864,0.258423,0.033081,0.998535,-2.197266,13.916016,21.301270
3873,0.248657,0.052124,0.892822,-2.197266,13.916016,21.301270
3882,0.216675,0.033325,0.823975,-0.061035,9.643555,22.583008
3893,0.169678,-0.234253,0.951416,0.671387,7.568359,21.911621
3903,0.140869,-0.168701,1.097168,-0.854492,5.920410,20.202637
3912,0.161499,-0.007690,1.260010,-2.197266,4.455566,18.066406
3922,0.157349,0.055664,1.223999,-2.319336,2.807617,15.380859
3932,0.148804,-0.009888,1.071289,-0.915527,1.403809,12.573242
3942,0.168091,-0.017090,0.953613,0.244141,0.122070,9.643555
3953,0.226929,0.003418,0.986572,0.549316,-2.441406,3.295898
3962,0.134033,-0.057129,1.003784,0.488281,-3.784180,-0.122070
3972,0.069824,-0.071899,0.988159,0.488281,-4.760742,-3.662109
3982,0.042969,-0.076050,0.995117,0.549316,-5.371094,-6.713867
3992,0.033813,-0.001099,1.042603,-0.183105,-5.554199,-9.521484
4002,-0.023193,0.097046,1.069092,-1.037598,-5.432129,-12.084961
4012,-0.033936,0.200684,1.142334,-0.793457,-4.821777,-13.610840
4022,-0.024780,0.167969,1.163818,0.244141,-4.150391,-13.793945
4033,-0.063599,-0.168945,0.576660,3.417969,-2.624512,-10.925293
4043,-0.030884,-0.385376,0.382080,2.563477,-0.976562,-7.812500
4052,0.026489,-0.283569,0.507202,-1.586914,0.854492,-4.211426
4062,0.072754,0.100586,0.754150,-5.065918,2.136230,-1.159668
4072,0.098389,0.468872,1.128052,-5.981445,1.892090,0.427246
4082,0.047363,0.387939,1.246582,-3.295898,1.220703,1.953125
4093,-0.000244,-0.167725,0.976562,1.770020,0.610352,5.126953
4102,-0.074585,-0.306274,0.914673,-1.220703,1.464844,7.385254
4112,0.000610,-0.091919,0.987061,-4.333496,2.502441,9.521484
4123,-0.000732,0.146606,0.963989,-4.821777,2.075195,10.803223
4132,0.020386,0.030029,0.873779,-3.173828,1.586914,12.207031
4143,0.045166,-0.166016,0.885986,-2.319336,1.342773,12.695313
4152,0.112549,-0.036743,1.154419,-3.540039,0.671387,11.840820
4165,0.094604,0.016846,1.073608,-4.272461,-1.770020,8.117676
4174,0.098633,-0.019409,0.965576,-2.319336,-2.502441,6.164551
4183,0.106079,-0.168701,1.023926,-0.976562,-2.807617,4.150391
4193,0.125488,-0.373413,1.036255,-2.136230,-3.662109,1.770020
4203,0.112427,-0.132690,1.058594,-4.760742,-4.760742,-0.854492
4212,0.121460,0.138794,1.076172,-5.920410,-5.676270,-3.234863
4223,0.145996,-0.016846,0.942139,-5.615234,-6.286621,-5.065918
4232,0.048828,-0.152222,0.852295,-4.821777,-7.019043,-7.507324
4242,0.070435,0.050537,1.094360,-5.310059,-6.958008,-7.812500
4252,-0.075562,-0.089722,0.990234,-5.493164,-6.530762,-7.080078
4262,-0.060425,0.129150,0.937134,-5.126953,-5.432129,-6.103516
4272,-0.052002,0.040039,0.968506,-4.211426,-4.638672,-4.394531
4282,-0.056641,-0.292480,0.883057,-4.089355,-3.417969,-2.563477
4293,-0.044678,-0.131836,0.996094,-5.371094,-3.295898,-1.159668
4303,-0.014404,0.030518,1.120728,-7.751465,-2.868652,0.610352
4312,-0.022095,-0.030884,0.959961,-8.056641,-2.746582,0.610352
4323,-0.011230,0.224976,1.117432,-7.690430,-3.051758,-0.183105
4332,-0.032959,0.286865,1.139648,-7.324219,-3.173828,-0.915527
4342,-0.030396,0.316895,1.026001,-4.821777,-3.234863,-1.647949
4352,0.004517,0.448975,0.965942,-1.159668,-3.662109,-2.319336
4362,0.043701,0.071777,0.913818,2.746582,-3.906250,-2.807617
4372,0.024292,-0.500122,0.925171,4.821777,-3.723145,-4.211426
4384,0.046143,-0.447021,1.007080,-0.732422,-3.356934,-5.554199
4393,0.056885,-0.009155,1.004761,-4.638672,-2.929688,-7.019043
4403,0.051270,0.302124,0.929443,-5.065918,-3.417969,-9.277344
4413,0.083374,0.285156,0.914307,-1.831055,-4.211426,-12.268066
4422,0.071289,-0.080322,0.940430,2.014160,-5.432129,-15.258789
4433,0.061646,-0.288696,1.044678,3.173828,-6.530762,-18.371582
4442,0.083496,-0.240723,1.098267,-14.160156,-6.713867,-21.789551
4452,0.086060,-0.198120,1.004395,-1.159668,-6.042480,-21.606445
4463,0.119263,0.052979,0.980591,-0.732422,-4.638672,-20.324707
4472,0.103149,-0.136719,1.047119,-0.061035,-3.784180,-18.615723
4483,0.018188,-0.127441,1.012695,-0.183105,-3.112793,-17.395020
4492,0.013916,0.139282,1.167236,-0.366211,-2.502441,-16.479492
4502,0.028198,0.084961,1.126587,0.122070,-2.563477,-15.319824
4515,-0.048218,-0.086304,0.904785,1.831055,-1.525879,-13.732910
4524,0.024780,-0.001709,1.105957,1.586914,-0.610352,-11.962891
4534,0.005859,-0.264526,0.967163,0.732422,0.366211,-10.070801
4543,-0.034302,-0.124146,0.827393,0.061035,0.671387,-8.666992
4552,-0.013062,0.107910,0.975586,0.061035,1.586914,-6.896973
4562,-0.038086,-0.201416,0.834595,0.427246,2.075195,-4.943848
4573,-0.084473,-0.192505,0.846069,0.549316,2.807617,-2.807617
4582,-0.048218,0.049561,1.083862,-0.793457,4.272461,3.112793
4594,-0.118896,-0.205688,0.932129,-1.220703,5.126953,6.408691
4604,-0.116577,0.093872,1.043945,-1.403809,6.103516,9.826660
4613,-0.109619,0.022339,1.116821,-0.915527,7.507324,13.549805
4623,-0.139404,-0.222168,1.045410,-0.610352,8.789063,17.150879
4632,-0.105225,-0.058472,1.040527,-0.854492,8.972168,19.531250
4643,-0.068481,0.084595,1.073608,-1.037598,8.422852,20.690918
4652,-0.114990,-0.134033,0.952881,-1.098633,5.554199,19.592285
4664,-0.007568,0.113403,1.070801,-1.098633,4.394531,18.005371
4673,0.021240,-0.100708,1.022583,-0.488281,3.479004,16.601562
4682,-0.048584,-0.298218,0.857666,-0.244141,2.502441,15.014648
4693,-0.010742,-0.009888,1.090210,-0.671387,2.502441,13.977051
4703,0.033447,-0.001831,1.147217,-0.793457,2.197266,13.183594
4712,0.001465,-0.253662,1.002319,-0.854492,1.647949,11.657715
4725,0.029541,0.138062,1.107544,-1.037598,0.183105,6.286621
4734,0.085083,-0.050537,1.098022,-0.549316,-0.488281,3.540039
4744,0.029297,-0.296265,0.909912,-0.061035,-0.976562,1.220703
4753,0.029907,-0.039063,0.977539,-0.183105,-1.220703,-0.915527
4763,0.088745,0.088623,1.128784,-0.305176,-1.281738,-2.075195
4773,0.094727,-0.178101,0.974854,-0.244141,-1.953125,-3.051758
4782,0.091919,-0.099365,0.903320,-0.183105,-2.563477,-4.089355
4792,0.117188,0.063965,1.027344,15.563965,-3.723145,-5.737305
4804,0.068604,-0.306641,0.939819,-0.244141,-3.906250,-6.591797
4813,0.058228,-0.150635,1.038940,-1.037598,-3.784180,-7.263184
4823,0.036621,0.004150,1.145752,-1.953125,-3.662109,-7.385254
4832,-0.009644,-0.078247,1.062378,-2.014160,-3.234863,-7.080078
4843,-0.022461,0.038696,1.014771,-1.708984,-2.502441,-6.042480
4853,-0.007568,0.160278,1.055908,-0.976562,-1.525879,-4.394531
4862,-0.017578,0.050659,0.989502,15.441895,-1.342773,-1.770020
4874,0.067871,-0.110229,0.967896,0.427246,-1.708984,-1.098633
4883,0.067871,0.018066,0.988403,0.366211,-2.380371,-0.915527
4892,0.063232,0.051514,1.060181,0.244141,-3.173828,-1.159668
4903,0.007080,-0.111816,1.043579,-0.061035,-3.540039,-1.037598
4913,0.006714,0.194824,1.309082,-0.305176,-3.112793,-0.793457
4922,0.008423,0.362183,1.510620,0.244141,-3.051758,-0.549316
4935,-0.040039,0.355103,1.447876,5.004883,-2.685547,0.915527
4944,-0.013672,0.195068,1.369995,8.178711,-2.014160,2.990723
4954,0.022095,-0.194092,1.085205,10.131836,-0.854492,4.760742
4963,0.058105,-0.029053,0.886719,10.009766,-0.671387,5.859375
4972,0.015381,0.071899,0.781738,9.094238,-0.793457,6.347656
4983,0.067993,-0.072632,0.634399,8.544922,-1.525879,5.493164
4993,0.044434,-0.182373,0.563965,8.483887,-3.051758,3.417969
5003,-0.003418,-0.398193,0.451538,5.432129,-5.126953,0.183105
5013,-0.161621,-0.605835,0.379517,1.647949,-4.760742,-0.061035
5023,-0.152954,-0.457764,0.344238,-2.075195,-2.807617,1.281738
5033,-0.098877,-0.320435,0.445801,-4.943848,-1.403809,3.479004
5042,0.019897,-0.203735,0.494019,-6.103516,-1.159668,5.126953
5053,0.041016,-0.463623,0.203491,-6.042480,-1.770020,6.286621
5062,0.045044,-0.696167,0.120117,-5.737305,-2.319336,7.507324
5074,-0.255005,-1.398560,-0.483276,-6.530762,-2.502441,7.873535
5084,-0.119019,-1.283447,-0.590332,-19.714355,-1.892090,7.873535
5094,-0.091187,-0.979492,-0.166870,-29.479980,-3.051758,6.774902
5104,-0.114502,-1.064331,-0.335449,-35.888672,-4.394531,5.371094
5113,-0.000366,-0.444946,1.238281,-40.710449,-3.540039,5.310059
5123,0.103516,-0.681396,1.415039,-41.320801,-3.173828,5.615234
5134,0.214600,-0.566895,1.660645,-33.996582,-4.821777,4.028320
5144,0.487183,-0.212646,3.305054,-27.099609,-7.263184,0.854492
5153,0.390381,0.113525,3.541382,-19.104004,-9.582520,-2.929688
5163,0.213135,-0.091553,3.565796,-5.004883,-11.779785,-5.432129
5172,-0.108154,-1.214844,2.636719,11.657715,-15.075684,-9.277344
5183,-0.406738,-1.478271,1.524170,16.662598,-13.916016,-12.634277
5193,-0.497559,-1.060425,1.092285,11.291504,-8.728027,-15.808105
5204,-0.511475,-0.629883,0.908447,6.225586,-2.136230,-22.521973
5214,-0.194092,-0.042358,2.146606,9.399414,0.000000,-22.827148
5223,0.310303,1.512695,3.950073,9.460449,2.807617,-20.263672
5233,0.048828,2.772705,3.999512,13.122559,-0.183105,-15.136719
5243,-0.710449,3.994995,3.999512,30.944824,-3.601074,-11.962891
5253,-0.764648,3.927490,3.995361,58.410645,0.671387,-7.568359
5263,-0.759521,3.330933,3.824951,80.627441,7.141113,6.225586
5273,0.599609,3.174438,3.793091,86.547852,15.380859,18.310547
5284,0.300659,1.543823,0.870728,107.482910,19.226074,29.113770
5293,-0.121582,1.213379,0.197876,102.478027,13.427734,22.094727
5303,-0.408325,0.674072,-0.059692,103.332520,11.779785,15.563965
5313,-0.216919,0.056030,-0.168945,97.534180,15.747070,13.732910
5323,-0.056641,-0.242187,-0.465210,86.975098,20.935059,14.160156
5333,-0.026001,0.114624,-0.418457,75.866699,25.146484,15.319824
5343,0.028442,0.266724,-0.238037,67.993164,27.648926,17.639160
5354,0.067505,0.079468,0.080200,47.485352,28.320312,18.676758
5363,0.298828,-0.023437,0.072266,54.443359,27.526855,15.380859
5373,0.469849,-0.028931,0.056641,49.255371,25.451660,12.329102
5382,0.505127,-0.065430,0.185669,45.715332,23.864746,11.962891
5393,0.514038,-0.109863,0.365234,43.518066,21.362305,13.183594
5403,0.485596,-0.208130,0.418457,41.137695,17.822266,14.160156
5412,0.387817,-0.355469,0.300903,37.841797,14.038086,14.160156
5425,0.242310,-0.362671,0.062622,29.602051,7.751465,13.305664
5434,0.260010,-0.325562,0.016846,26.123047,4.455566,12.390137
5443,0.211304,-0.516724,-0.090088,23.681641,0.671387,10.681152
5453,0.193726,-0.618530,-0.079834,20.568848,-2.746582,8.117676
5463,0.101440,-0.808472,-0.106445,16.052246,-6.042480,4.943848
5473,0.019775,-0.840820,-0.194824,10.437012,-8.911133,1.159668
5483,-0.047974,-0.880249,-0.299194,4.577637,-10.620117,-2.563477
5493,-0.079712,-0.904297,-0.335449,-5.920410,-12.023926,-7.934570
5503,-0.077026,-0.928345,-0.300903,-11.108398,-12.023926,-9.948730
5513,-0.010498,-0.927734,-0.284546,-16.601562,-11.535645,-11.230469
5523,-0.005005,-0.914795,-0.296997,-22.155762,-11.352539,-11.718750
5533,-0.021484,-0.914185,-0.303955,-27.893066,-11.047363,-12.329102
5543,-0.078247,-0.951660,-0.324585,-33.508301,-10.620117,-12.634277
5553,-0.106812,-0.914551,-0.321899,-39.184570,-9.887695,-12.756348
5563,-0.125610,-0.903198,-0.332886,-50.842285,-7.751465,-13.122559
5573,-0.121094,-0.797852,-0.415161,-56.579590,-5.920410,-12.939453
5583,-0.113770,-0.745117,-0.432007,-62.072754,-4.333496,-12.878418
5593,-0.088135,-0.747681,-0.428223,-67.443848,-2.929688,-12.634277
5603,-0.062012,-0.700317,-0.450562,-72.753906,-1.892090,-12.390137
5613,-0.111328,-0.684570,-0.497314,-78.430176,-1.037598,-12.084961
5623,-0.086060,-0.621338,-0.597534,-84.655762,15.502930,-11.718750
5633,-0.085815,-0.598389,-0.658569,-96.496582,1.708984,-11.047363
5643,-0.041504,-0.570801,-0.775879,-102.722168,2.868652,-10.986328
5653,0.075439,-0.525879,-0.848267,-109.558105,2.624512,-12.207031
5663,0.114746,-0.422485,-0.911499,-116.577148,1.892090,-13.977051
5673,0.251099,3.822998,3.174194,-123.107910,2.136230,-17.089844
5683,0.417358,3.999512,3.999512,-87.158203,0.244141,-16.540527
5693,-0.144165,-3.667847,3.406494,-31.433105,-10.925293,-9.582520
5703,-0.931763,-3.999512,-1.655029,-92.651367,4.028320,-26.428223
5713,0.719238,3.999512,3.209229,-86.975098,-1.770020,-24.230957
5723,0.217041,1.387451,1.145508,-18.554687,-18.676758,-16.174316
5733,-0.274658,-1.450684,2.526611,10.375977,-24.108887,-18.615723
5743,-0.027588,1.621704,3.999512,-21.057129,-12.084961,-23.254395
5753,-0.192749,-0.966553,2.607056,-15.441895,-8.850098,-9.155273
5763,0.310547,0.568726,3.487793,-13.671875,3.112793,2.197266
5773,-0.403809,1.369751,0.650757,-1.953125,7.019043,7.324219
5783,0.377075,-1.374146,1.324463,15.625000,5.615234,10.742188
5793,-0.338745,-2.102051,1.036377,10.620117,1.342773,4.760742
5803,-0.213623,-0.337402,1.399414,-7.751465,2.258301,4.394531
5813,0.030518,0.888550,1.317749,-17.150879,5.798340,9.338379
5823,-0.154053,0.413086,0.830444,-6.347656,4.089355,11.047363
5836,0.071289,-0.564331,1.878784,13.427734,3.784180,13.305664
5845,0.341431,-0.201050,1.943237,10.314941,4.028320,15.441895
5854,0.213013,0.247070,1.268311,7.019043,2.197266,16.723633
5864,0.339844,0.491943,0.862549,10.620117,0.915527,18.249512
5873,0.281860,0.105713,0.938843,19.348145,-0.427246,21.057129
5883,0.287720,-0.298706,1.116577,23.803711,-3.356934,20.935059
5893,0.147949,-0.230835,1.112793,20.263672,-5.859375,17.822266
5903,0.198120,0.096436,0.881958,14.648438,-6.591797,14.648438
5914,0.153442,0.188232,0.351196,15.808105,-9.216309,6.774902
5924,0.113647,-0.128906,0.399414,18.310547,-10.986328,2.624512
5933,0.137085,-0.242920,0.609619,16.479492,-13.427734,-2.746582
5943,0.072510,0.001831,0.868286,12.451172,-15.563965,-8.483887
5953,0.109497,0.204468,0.944580,9.704590,-15.991211,-13.000488
5963,0.128906,0.156128,0.787354,9.094238,-15.930176,-15.441895
5974,0.137207,0.047974,0.653198,9.521484,-15.625000,-19.958496
5983,0.098511,-0.151978,0.636841,7.873535,-15.136719,-21.972656
5994,0.035767,-0.040283,0.773926,5.798340,-14.404297,-24.169922
6003,-0.010620,-0.011597,0.829346,4.455566,-13.549805,-26.550293
6013,0.004761,0.001831,0.747559,4.211426,-13.549805,-29.174805
6023,-0.062744,-0.084839,0.714844,4.394531,-13.977051,-32.226562
6033,-0.099731,-0.264160,0.595703,3.601074,-14.099121,-34.667969
6044,-0.124634,-0.290405,0.670654,-1.098633,-11.352539,-35.705566
6054,-0.038818,0.025513,1.027222,-2.746582,-9.887695,-34.667969
6064,0.017212,0.071411,1.007080,-3.051758,-8.483887,-33.325195
6073,-0.003906,0.084229,0.940063,-2.441406,-7.385254,-30.883789
6083,-0.000366,0.106323,0.926514,-2.136230,-6.652832,-28.381348
6093,-0.000854,-0.082397,0.849121,-2.319336,-5.065918,-25.817871
6103,-0.044678,0.177734,0.966919,-2.929688,-3.967285,-23.620605
6116,0.009277,-0.005371,1.105591,-1.953125,-2.136230,-19.592285
6125,0.038330,0.026245,1.166504,-1.342773,-0.976562,-17.333984
6135,0.011963,-0.132690,1.100464,-1.464844,-0.488281,-15.563965
6144,-0.028320,-0.024780,1.103882,-1.770020,0.122070,-14.099121
6154,-0.051514,-0.022949,1.088745,-1.647949,0.915527,-12.573242
6163,-0.059204,0.090210,1.080078,-1.037598,1.464844,-11.474609
6173,-0.074585,0.052124,1.066284,0.061035,1.403809,-11.291504
6184,-0.111450,-0.235107,0.936035,0.549316,0.854492,-11.657715
6194,-0.104980,0.027222,1.070679,0.732422,0.976562,-11.413574
6203,-0.106934,-0.072388,0.929321,1.281738,1.647949,-10.681152
6214,-0.070679,0.062988,1.005493,1.831055,2.502441,-9.277344
6223,-0.046631,-0.159180,0.929687,2.014160,3.173828,-8.178711
6233,-0.001953,-0.066772,0.983643,1.159668,4.089355,-6.774902
6243,0.031860,0.108276,1.103882,0.305176,4.516602,-5.310059
6253,0.016235,-0.005249,1.028809,0.366211,4.211426,-4.272461
6264,0.023193,0.010986,0.990967,1.037598,4.394531,-2.319336
6274,0.020508,-0.104370,0.989502,1.098633,4.089355,-2.136230
6283,0.014893,-0.117676,0.984131,1.037598,4.028320,-2.197266
6293,-0.019165,-0.100586,0.979614,0.244141,3.906250,-2.258301
6303,-0.028198,-0.059692,0.909424,-0.488281,3.906250,-2.197266
6313,-0.045410,-0.040039,0.902466,-0.854492,3.967285,-2.197266
6326,-0.043091,-0.069336,0.931519,-1.586914,3.662109,-2.136230
6335,-0.065430,-0.136353,0.904419,-1.647949,3.417969,-1.831055
6345,-0.062866,0.005249,1.000610,-2.319336,3.479004,-1.159668
6354,-0.074463,-0.019165,0.995483,-2.380371,3.845215,0.244141
6364,-0.078491,0.002808,0.985229,-2.197266,4.638672,1.647949
6373,-0.080933,-0.030151,1.041870,-1.647949,4.882812,3.173828
6383,-0.039795,-0.064697,0.973145,-1.098633,5.554199,4.760742
6394,-0.037354,-0.095093,0.987305,-0.671387,5.187988,6.958008
6404,-0.021729,-0.175415,0.918701,-0.732422,5.249023,7.263184
6413,-0.042236,-0.275879,0.920654,-1.098633,5.065918,7.507324
6423,-0.044922,-0.215454,0.934937,-1.770020,4.760742,7.141113
6434,-0.010742,-0.234253,0.995483,-2.319336,4.089355,6.530762
6443,-0.018677,-0.200684,0.972900,-2.990723,3.417969,5.310059
6453,-0.015503,-0.139526,0.978271,-3.234863,2.990723,3.723145
6466,-0.035156,-0.113770,0.970337,-3.112793,1.953125,0.183105
6475,-0.007935,-0.061890,1.060059,-2.685547,1.892090,-1.342773
6485,0.008789,-0.150024,1.030151,-2.075195,1.892090,-2.807617
6494,-0.028198,-0.125366,1.076294,-1.647949,1.953125,-3.784180
6504,0.016602,-0.109619,1.166870,-1.098633,1.892090,-4.760742
6513,-0.054810,-0.348145,0.971924,-0.793457,1.892090,-5.432129
6523,-0.036499,-0.147461,1.063965,-1.647949,1.892090,-5.615234
6535,-0.079834,-0.139282,0.969360,-2.624512,1.831055,-5.798340
6545,-0.057983,0.135864,1.105103,-2.258301,2.075195,-5.432129
6555,-0.102905,-0.197266,0.941040,-1.464844,2.319336,-4.455566
6564,-0.097046,-0.167358,0.889771,-1.220703,3.356934,-3.112793
6574,-0.065430,-0.106812,0.977905,-1.525879,4.089355,-1.159668
6583,-0.060913,-0.240601,0.883911,-2.441406,4.394531,0.854492
6593,-0.032227,-0.038574,0.948975,-3.417969,4.882812,2.746582
6604,-0.010254,-0.039551,0.932617,-3.356934,4.882812,4.638672
6614,-0.011963,-0.085693,0.937134,-2.868652,4.150391,4.089355
6623,0.034912,-0.075684,0.990601,-2.868652,3.295898,2.441406
6634,-0.006226,-0.064819,0.982666,-2.990723,2.868652,0.122070
6643,0.031860,-0.066650,1.009155,-2.868652,2.441406,-2.685547
6654,-0.011230,-0.048462,1.004272,-2.502441,1.525879,-5.615234
6663,0.033447,-0.064209,1.008545,-1.831055,1.464844,-7.629395
6676,0.037109,-0.066650,0.971680,-1.098633,1.342773,-10.559082
6685,0.037231,0.025635,1.031494,-0.976562,1.586914,-10.986328
6694,0.011108,-0.052734,0.986084,-0.610352,1.953125,-10.803223
6704,0.001709,-0.105103,1.003906,-0.549316,1.892090,-10.375977
6713,-0.020386,-0.006714,0.983398,-0.488281,2.258301,-9.643555
6724,0.014526,0.090210,1.039551,-0.061035,2.624512,-9.338379
6733,-0.003662,-0.003418,0.964966,0.732422,2.563477,-8.605957
6746,0.015869,-0.118408,1.057495,1.464844,3.234863,-7.080078
6755,0.007324,-0.221191,0.960571,1.037598,3.295898,-5.371094
6764,0.020996,-0.064819,1.003784,0.488281,3.723145,-3.051758
6774,0.044678,-0.083008,0.944458,0.183105,4.089355,-0.793457
6783,0.030029,-0.034790,0.982056,0.061035,4.882812,1.892090
6793,0.028320,-0.111450,1.060913,0.244141,5.554199,4.394531
6804,-0.017212,-0.223267,0.954468,0.061035,5.187988,5.737305
6815,-0.018921,-0.204224,0.941772,-0.549316,4.943848,7.446289
6824,-0.008667,-0.066772,0.988403,-1.586914,4.516602,7.141113
6834,0.007568,-0.026367,1.014771,-1.525879,4.211426,7.202148
6844,-0.005859,-0.319214,0.861328,-1.037598,3.295898,6.347656
6854,0.025146,-0.016846,1.177368,-1.831055,2.807617,5.187988
6863,0.005981,-0.151611,1.096436,-1.770020,2.502441,4.516602
6874,-0.039917,-0.025879,1.032349,-1.281738,1.892090,3.662109
6883,-0.013062,0.025024,1.070435,-0.732422,2.136230,1.831055
6895,-0.045654,-0.005737,1.041748,-0.488281,2.136230,1.342773
6904,-0.039673,-0.064209,1.052368,-0.061035,2.197266,1.342773
6914,-0.088501,-0.152344,0.969971,0.488281,2.136230,1.098633
6923,-0.045776,0.047119,1.038086,0.732422,2.441406,0.976562
6933,-0.013794,-0.095459,0.989990,1.037598,2.685547,1.159668
6945,0.006226,-0.125977,1.016724,1.953125,2.563477,0.061035
6954,0.021118,-0.130493,0.970215,1.770020,2.136230,-0.732422
6965,-0.001587,-0.143555,0.965332,1.281738,1.647949,-2.319336
6974,-0.020874,-0.096191,0.914307,0.793457,1.647949,-3.051758
6984,-0.007690,-0.141113,0.892578,0.427246,1.831055,-3.540039
6994,0.023560,-0.157471,0.893555,0.183105,2.197266,-3.540039
7003,0.030029,-0.103271,0.944702,-0.305176,1.953125,-3.417969
7014,0.050903,-0.076538,1.050049,-0.732422,2.258301,-2.929688
7023,0.049805,-0.076050,1.010742,-0.915527,1.892090,-2.136230
7035,0.042236,-0.058960,1.016357,-1.159668,1.953125,-1.770020
7044,0.031006,-0.104858,1.000244,-1.342773,2.319336,-1.159668
7053,0.017456,-0.056519,1.015869,-1.281738,2.319336,-0.549316
7064,0.027588,-0.036377,1.010376,-1.098633,2.014160,-0.305176
7073,0.004639,-0.030396,0.976318,-0.793457,2.502441,0.366211
7084,0.027222,-0.047119,1.003174,-0.488281,2.624512,1.403809
7095,0.029663,-0.049927,1.017700,-0.366211,2.258301,3.295898
7105,0.015015,-0.102539,1.045044,-0.549316,2.014160,4.455566
7114,0.007935,-0.067017,0.995239,-0.610352,1.953125,5.310059
7123,-0.025635,-0.068970,0.973145,-0.610352,1.953125,5.615234
7134,-0.024536,-0.069336,0.910767,-0.854492,2.197266,5.981445
7143,-0.044556,-0.075439,0.980957,-1.037598,2.380371,6.469727
7154,-0.041138,-0.100952,0.969604,-1.037598,2.380371,6.652832
7164,-0.030884,-0.019775,1.055542,-0.366211,1.403809,5.798340
7175,-0.009399,-0.213745,0.949463,-0.488281,1.098633,5.371094
7184,0.011230,-0.188110,0.991577,-1.220703,0.854492,4.577637
7194,0.056519,-0.164673,0.998169,-2.014160,0.305176,3.784180
7204,0.014160,-0.015381,1.052490,-2.319336,0.244141,3.234863
7214,0.042480,0.053467,1.103882,-2.258301,-0.366211,1.953125
7224,-0.031982,-0.141602,0.962524,-1.770020,-0.366211,1.037598
7235,-0.023926,-0.110718,1.049805,-1.281738,-0.122070,-0.183105
7245,-0.035400,-0.115723,0.962402,-1.220703,-0.061035,-0.915527
7254,0.013794,0.003174,1.020386,-1.281738,0.122070,-0.976562
7264,0.014038,-0.103638,0.899780,-1.464844,0.000000,-0.610352
7274,0.034546,-0.034790,0.974487,-1.708984,-0.183105,0.244141
7283,0.011475,-0.122681,0.969604,-2.075195,0.244141,1.770020
7294,0.018433,0.041992,1.075684,-2.685547,0.671387,3.479004
7305,-0.039795,-0.028931,0.955566,-2.624512,1.159668,7.080078
7315,-0.061646,0.059082,0.997314,-1.892090,1.159668,8.239746
7324,-0.035522,-0.036621,0.945312,-1.586914,1.281738,8.972168
7334,-0.024048,0.003906,1.023926,-1.342773,1.220703,9.277344
7344,-0.024292,-0.074951,0.951416,-1.281738,0.854492,8.972168
7353,0.019897,-0.088989,0.935303,-1.403809,0.732422,8.239746
7364,0.046631,-0.090698,0.928955,-1.647949,0.061035,7.080078
7375,0.056152,-0.059692,1.029785,-2.197266,-0.671387,3.723145
7385,0.082153,-0.026245,1.021729,-1.831055,-1.586914,2.014160
7394,0.059082,-0.028564,0.984009,-1.342773,-1.892090,0.732422
7403,0.081055,-0.095581,0.978271,-0.915527,-2.258301,-0.610352
7414,0.030640,-0.187378,0.881592,-1.403809,-2.868652,-2.441406
7424,0.047241,-0.128418,0.981934,-2.319336,-3.234863,-4.211426
7434,0.028442,-0.059204,1.051636,-3.356934,-3.540039,-6.225586
7445,0.007080,0.083130,1.041260,-3.356934,-3.845215,-8.911133
7455,-0.005493,-0.030396,0.995483,-2.136230,-3.723145,-9.826660
7465,-0.014282,-0.064941,1.027832,-1.464844,-3.356934,-10.070801
7474,-0.024048,-0.082520,1.052734,-1.342773,-2.929688,-10.131836
7484,-0.022949,-0.083252,0.982910,-1.525879,-2.014160,-9.704590
7493,0.007446,-0.038208,0.987305,-1.647949,-1.708984,-9.460449
7505,0.014282,-0.139160,0.926270,-1.098633,-1.525879,-9.033203
7514,0.022705,-0.215942,0.955933,-1.464844,-1.281738,-8.544922
7525,0.005859,-0.070190,1.102539,-1.831055,-1.220703,-7.934570
7534,0.000244,-0.268433,0.978882,-1.647949,-0.793457,-6.896973
7544,-0.005981,-0.113159,0.999390,-1.831055,-0.183105,-5.676270
7553,-0.003906,-0.215820,1.011597,-1.892090,0.305176,-4.516602
7564,0.029907,-0.189697,1.013794,-2.197266,0.976562,-3.540039
7575,0.032104,-0.122803,1.096436,-2.929688,0.793457,-2.136230
7585,-0.039551,-0.060547,1.056763,-2.624512,0.671387,-1.892090
7594,-0.003906,-0.157959,0.973999,-2.258301,0.915527,-1.342773
7604,-0.026489,-0.057739,1.014160,-2.075195,1.464844,-1.220703
7613,0.004150,-0.148071,1.047363,-1.892090,1.647949,-1.220703
7624,-0.014771,-0.196289,1.032593,-1.953125,1.525879,-1.281738
7633,-0.000977,-0.213013,1.023560,-2.441406,1.708984,-1.281738
7644,0.011963,-0.105591,1.015747,-2.624512,1.831055,-1.586914
7655,0.048218,0.012085,0.994507,-2.563477,1.159668,-3.173828
7665,0.041138,-0.133301,0.891846,-2.258301,0.854492,-3.845215
7674,0.045776,0.070679,1.039551,-2.258301,0.488281,-4.638672
7684,0.042358,-0.145020,0.976807,-1.953125,-0.244141,-5.310059
7694,0.016479,0.063721,1.040649,-1.892090,-0.244141,-5.615234
7704,0.033691,-0.031372,0.989380,-1.770020,-0.549316,-5.310059
7714,0.046387,-0.028931,0.903198,-1.403809,-0.244141,-4.821777
7723,0.069092,0.053223,0.965820,-1.708984,-0.061035,-1.647949
7735,-0.010620,0.022583,0.761841,-2.197266,0.305176,0.244141
7744,-0.085693,0.061523,0.800537,-2.258301,1.342773,3.112793
7753,-0.132446,0.045654,0.808594,-1.831055,3.356934,6.896973
7764,-0.099365,0.075928,0.994873,-1.770020,4.882812,10.314941
7774,-0.051636,-0.042603,1.115967,-1.647949,5.004883,13.061523
7784,0.002197,-0.050415,1.200195,-1.892090,4.028320,15.197754
7795,-0.062378,-0.009521,0.925171,-2.014160,2.441406,18.188477
7805,-0.075928,0.150024,0.863647,-1.403809,2.746582,21.179199
7814,-0.032471,-0.048340,0.801880,-1.159668,3.906250,23.986816
7823,-0.092285,0.112061,0.877930,-1.220703,4.394531,26.000977
7834,-0.065430,-0.075439,0.888672,-0.976562,3.845215,27.526855
7844,-0.070190,0.005981,1.052368,-0.915527,2.807617,27.282715
7853,-0.015259,-0.167725,1.063232,-0.793457,1.403809,26.306152
7865,0.048096,-0.213501,0.741089,-0.183105,-0.305176,22.949219
7875,0.084473,-0.302856,0.529907,-0.305176,-2.624512,21.484375
7884,0.180420,-0.201660,0.565552,-0.671387,-3.173828,20.996094
7893,0.124390,-0.310547,0.590698,-0.305176,-3.051758,20.568848
7904,-0.020142,-1.162476,-0.451172,0.000000,-2.380371,20.202637
7913,-0.128540,-2.500610,-1.877319,-0.671387,-0.854492,20.751953
7925,0.020508,-2.120361,-0.790039,-34.484863,-5.981445,9.826660
7935,0.103882,-0.735229,-1.056641,-56.274414,-9.643555,2.075195
7944,0.253052,0.333130,0.915405,-63.842773,-11.718750,-3.295898
7953,0.459351,0.148926,2.611084,-55.053711,-16.235352,-7.873535
7964,0.360107,0.248291,3.999512,-44.799805,-18.127441,-7.873535
7973,0.385376,0.917847,3.999512,-33.813477,-17.395020,-6.835937
7984,0.282959,0.598999,3.985596,-17.456055,-14.709473,-5.310059
7995,0.090576,-0.581665,2.673462,13.549805,-12.145996,-5.554199
8005,-0.149536,-1.652954,0.956665,12.817383,-15.991211,-13.305664
8015,-0.483765,-1.282227,0.984985,2.136230,-17.639160,-22.094727
8024,-0.539185,-0.814209,1.343384,-5.310059,-16.601562,-30.151367
8034,-0.651489,-0.819092,1.544556,-3.234863,-14.770508,-36.987305
8043,-0.911865,-1.020020,1.602295,2.563477,-10.620117,-40.588379
8054,-1.040894,-0.916748,1.463867,5.065918,-2.746582,-41.198730
8064,-0.859863,-0.079590,2.022583,4.760742,9.033203,-37.597656
8075,-0.331543,1.096558,3.224854,7.385254,19.836426,-17.395020
8084,-0.509766,2.040894,3.999512,38.879395,12.023926,-12.817383
8094,-0.620728,2.785278,3.999512,56.579590,10.559082,-13.732910
8104,-0.286499,3.470459,3.999512,67.871094,12.878418,-10.864258
8114,0.453979,3.999512,3.969482,73.913574,16.174316,-0.854492
8124,1.604492,3.999512,3.140259,87.890625,25.634766,17.333984
8133,1.215820,2.379150,2.239014,107.788086,28.503418,31.127930
8146,0.490112,1.312012,0.562866,116.027832,8.605957,20.141602
8155,0.028442,1.473145,-0.034546,109.680176,5.310059,18.371582
8164,0.036377,1.039551,-0.675293,106.201172,3.845215,17.517090
8174,0.119629,0.321289,-0.672241,104.492187,4.211426,16.357422
8184,0.000122,-0.339478,-0.402588,100.341797,5.798340,16.052246
8194,-0.204468,-0.620972,-0.329346,90.087891,7.446289,18.005371
8203,-0.210815,-0.553589,-0.481445,76.416016,9.338379,21.606445
8215,-0.042358,0.025635,-0.597412,64.331055,10.314941,23.437500
8225,0.086548,-0.116089,-0.271118,57.434082,9.460449,22.521973
8234,0.166016,-0.555054,0.049805,56.213379,7.995605,22.827148
8244,0.271240,-0.880737,0.153442,52.001953,6.408691,22.094727
8253,0.204834,-0.900757,0.047485,44.738770,3.723145,19.226074
8264,0.121460,-0.746826,-0.088867,37.658691,0.732422,15.014648
8275,0.135254,-0.489746,-0.093384,31.921387,-4.638672,7.568359
8284,0.157837,-0.719604,-0.046753,30.517578,-6.835937,4.516602
8295,0.127563,-0.865601,-0.071289,27.160645,-8.728027,0.244141
8304,0.084595,-0.996338,-0.183350,21.728516,-11.108398,-4.882812
8315,0.023560,-0.994995,-0.270020,15.441895,-12.512207,-9.033203
8324,0.018066,-0.961304,-0.281250,9.521484,-13.000488,-12.451172
8334,0.037231,-0.898926,-0.238525,4.333496,-13.183594,-14.831543
8344,0.093750,-0.855469,-0.178711,-0.732422,-12.878418,-16.723633
8355,0.131592,-0.761841,-0.261963,-5.981445,-13.488770,-19.592285
8365,0.107300,-0.779907,-0.277588,-16.479492,-13.305664,-19.897461
8374,0.079468,-0.796997,-0.234131,-20.935059,-13.732910,-19.348145
8384,0.049805,-0.861938,-0.133301,-25.878906,-13.549805,-18.737793
8394,-0.014404,-0.880493,-0.139648,-31.555176,-13.244629,-18.249512
8404,-0.049194,-0.786011,-0.229980,-37.780762,-12.695313,-17.883301
8414,-0.123047,-0.719727,-0.308838,-43.823242,-11.962891,-17.272949
8423,-0.112305,-0.640503,-0.326294,-54.138184,-8.972168,-15.441895
8434,-0.127197,-0.538330,-0.312500,-59.143066,-7.507324,-14.282227
8444,-0.058105,-0.471558,-0.380859,-65.063477,-6.652832,-13.610840
8454,-0.043213,-0.413818,-0.464966,-70.922852,-5.554199,-13.122559
8465,-0.059082,-0.421875,-0.579102,-76.843262,-4.455566,-12.451172
8474,-0.047119,-0.424072,-0.656128,-82.397461,-3.662109,-12.512207
8484,-0.058960,-0.472290,-0.653198,-88.684082,-3.173828,-13.305664
8494,-0.068970,-0.469116,-0.651001,-103.454590,-1.770020,-15.686035
8505,-0.060425,-0.348999,-0.809204,-111.328125,-0.366211,-16.845703
8514,-0.059326,-0.168091,-0.837524,-119.201660,0.854492,-18.676758
8524,-0.013794,0.018799,-0.809814,-126.098633,1.892090,-20.751953
8534,-0.007935,0.157104,-0.733887,-131.835937,2.685547,-22.949219
8544,0.256958,2.978638,3.999512,-129.699707,4.699707,-26.428223
8554,0.321899,3.143799,3.999512,-76.049805,1.037598,-22.766113
8565,-0.376343,-3.419434,-0.465820,-12.695313,3.417969,-23.803711
8574,-0.041260,3.999512,3.183105,-111.083984,19.470215,-30.883789
8584,1.353394,3.999512,3.827393,-63.415527,-7.141113,-42.358398
8594,-0.158447,-3.106934,-3.326172,20.568848,-35.034180,-45.654297
8604,-0.072998,-2.454346,2.976318,24.353027,-26.245117,-40.100098
8615,0.938232,1.187866,3.999512,-16.662598,-0.305176,-38.635254
8624,0.369263,-0.829956,1.487427,-21.179199,2.319336,-19.592285
8635,0.740601,-0.495850,-0.259644,-11.840820,11.108398,-11.840820
8645,0.196045,0.406372,1.168579,4.699707,3.540039,-10.009766
8654,0.280396,-0.902344,2.165039,5.615234,-4.028320,-18.432617
8664,-0.357422,-0.930786,2.174561,0.427246,-5.065918,-23.132324
8674,-0.345459,-0.135986,1.797119,-7.690430,2.746582,-20.324707
8684,0.066895,0.412964,1.096191,-6.042480,9.216309,-17.822266
8695,0.008911,0.539429,1.020386,12.329102,1.586914,-28.991699
8704,-0.207520,-0.209473,1.379517,15.258789,3.051758,-31.860352
8715,0.290161,-0.164307,1.694824,13.793945,6.164551,-31.250000
8724,0.300415,-0.202271,1.179321,13.305664,4.394531,-32.653809
8734,0.167847,0.012939,0.785889,14.343262,2.197266,-33.691406
8744,0.285034,0.024658,0.908813,16.479492,2.807617,-32.226562
8754,0.322876,-0.120239,1.003174,18.005371,3.723145,-30.578613
8764,0.381714,-0.180176,1.077271,17.639160,5.004883,-28.015137
8775,0.222168,0.000122,0.701172,15.747070,6.042480,-20.751953
8784,0.077637,0.006348,0.495361,13.916016,4.272461,-17.944336
8794,0.056030,-0.021362,0.619019,13.305664,4.516602,-14.465332
8804,0.094238,-0.205444,0.755615,11.230469,5.249023,-11.047363
8814,0.050415,-0.113281,0.899292,7.751465,5.615234,-8.483887
8824,0.025391,-0.010010,0.928467,5.310059,6.164551,-5.493164
8834,-0.081909,-0.025024,0.833496,4.150391,7.263184,-0.854492
8845,-0.136108,0.025757,0.933228,3.845215,8.605957,8.422852
8858,-0.090454,0.049072,1.063477,4.760742,9.277344,12.451172
8868,-0.147705,0.034302,1.064087,5.737305,8.483887,15.625000
8877,-0.167847,-0.135498,0.979004,6.652832,8.972168,18.188477
8886,-0.249268,-0.129517,0.913452,6.469727,8.972168,20.019531
8895,-0.229858,-0.227661,0.850830,6.164551,10.253906,23.620605
8904,-0.232666,-0.068970,0.870117,6.164551,10.253906,23.620605
8915,-0.122925,-0.059937,0.938599,5.371094,11.047363,25.390625
8924,-0.101440,-0.145020,0.901978,4.760742,10.742188,25.512695
8934,-0.069092,-0.184814,0.758667,4.699707,10.253906,25.451660
8944,-0.057251,-0.158569,0.687866,4.150391,9.338379,25.085449
8955,-0.006348,-0.255615,0.621582,3.051758,8.544922,24.108887
8964,-0.019165,-0.171509,0.776123,1.770020,6.896973,22.216797
8975,0.019531,-0.194092,0.930664,-0.122070,4.821777,16.662598
8984,-0.027954,-0.240967,1.028442,-0.549316,4.211426,13.732910
8995,-0.124756,-0.174927,0.954224,-1.525879,3.601074,10.009766
9004,-0.152588,-0.215088,1.000366,-1.770020,3.540039,7.202148
9015,-0.204224,-0.118286,0.997925,-2.014160,3.906250,5.065918
9024,-0.146484,-0.024658,1.017700,-1.953125,4.394531,4.089355
9034,-0.131958,-0.024414,0.981079,-2.014160,5.432129,4.150391
9044,-0.109009,-0.106445,0.886597,-1.831055,5.981445,4.882812
9055,-0.132935,-0.135864,0.951538,-1.647949,6.958008,7.019043
9064,-0.144409,-0.185913,0.941650,-2.014160,7.568359,7.629395
9074,-0.111938,-0.155273,1.015747,-2.685547,7.385254,8.239746
9084,-0.112549,-0.091919,1.044067,-3.173828,7.751465,9.033203
9094,-0.025269,0.000488,1.042236,-3.295898,8.117676,10.375977
9104,-0.056152,0.006592,0.953613,-3.295898,8.361816,11.840820
9114,-0.009766,-0.005371,1.031738,-2.990723,8.544922,29.113770
9125,-0.006714,0.009033,1.017578,-2.441406,8.850098,17.822266
9135,-0.023804,0.082886,1.044678,-2.502441,8.911133,19.409180
9144,0.020630,0.013672,0.984741,-2.014160,8.850098,21.057129
9155,0.002075,-0.014648,0.886719,-1.770020,8.483887,22.216797
9164,0.081055,-0.010742,0.962646,-1.892090,7.690430,22.827148
9174,0.076904,-0.057251,0.888916,-2.075195,6.286621,23.010254
9184,0.111572,-0.074097,0.873047,-2.868652,5.493164,22.155762
9195,0.158081,0.071167,1.061768,-3.601074,3.479004,20.812988
9204,0.159180,0.047485,1.067383,-3.112793,2.441406,20.446777
9214,0.082153,-0.031250,1.011353,-2.563477,1.525879,20.446777
9224,0.024536,-0.077271,0.974365,-2.746582,1.281738,20.812988
9235,-0.006592,-0.067505,1.066406,-3.173828,1.342773,20.812988
9244,-0.025269,-0.038940,1.008789,-3.601074,1.281738,20.751953
9257,-0.018433,-0.080933,1.031006,-2.868652,-0.122070,18.249512
9267,-0.017700,-0.103394,1.064209,-2.380371,-0.915527,16.052246
9276,0.001953,-0.157227,0.953003,-2.380371,-1.708984,13.488770
9285,0.041504,-0.100220,0.995850,-3.112793,-2.685547,10.498047
9295,0.061401,-0.093140,1.045776,-3.662109,-3.845215,7.812500
9304,0.033691,0.032593,1.135742,-3.967285,-4.760742,5.798340
9314,0.037598,-0.074707,1.004028,-3.662109,-4.760742,5.004883
9324,0.044678,0.008423,1.072021,-3.173828,-4.577637,4.638672
9335,-0.021118,-0.098999,1.056396,-2.929688,-4.211426,3.784180
9345,-0.042603,-0.152344,0.963013,-2.807617,-4.089355,2.136230
9354,-0.030884,-0.078247,1.003540,-2.685547,-4.333496,-0.976562
9364,-0.017822,-0.148804,1.001099,-2.380371,-4.821777,-4.150391
9374,-0.036987,-0.167114,0.942139,-2.624512,-5.371094,-7.019043
9384,-0.019531,-0.161865,0.942505,-2.624512,-5.493164,-10.070801
9396,0.029419,0.014893,1.032959,-2.990723,-4.882812,-15.380859
9406,0.005981,-0.071777,0.935669,-2.563477,-4.760742,-16.845703
9415,0.015259,-0.083618,0.944946,-1.708984,-4.394531,-17.150879
9425,0.005371,-0.098145,0.956909,-1.403809,-3.234863,-16.113281
9434,0.035400,-0.080811,1.026245,-1.647949,-2.258301,-14.709473
9444,-0.026733,-0.090210,0.975586,-1.953125,-1.464844,-13.427734
9455,0.017456,-0.086670,0.917847,-1.647949,-0.610352,-11.718750
9464,0.003418,-0.046997,0.912109,-1.464844,0.427246,-8.728027
9474,0.034424,-0.085083,0.941162,-1.647949,0.610352,-7.263184
9484,0.058716,-0.149780,0.940552,-2.258301,0.671387,-5.981445
9494,0.060791,-0.014038,0.972168,-2.624512,1.037598,-4.272461
9504,0.048462,-0.011719,0.982178,-2.624512,1.403809,-1.525879
9514,0.071899,0.034546,0.986694,-2.441406,1.953125,0.915527
9524,0.053955,0.015747,0.944946,-1.892090,2.380371,2.929688
9536,0.031250,-0.119507,0.981445,-0.671387,2.380371,6.103516
9546,0.041748,-0.104126,1.079346,-0.854492,2.136230,7.019043
9555,0.055420,-0.124023,1.006104,-1.403809,1.770020,7.507324
9565,0.038330,0.026245,1.015137,-1.464844,1.403809,8.422852
9574,0.033569,-0.046997,0.982178,-1.037598,1.098633,9.460449
9585,0.015625,0.020752,1.099243,-0.671387,1.647949,10.925293
9594,-0.022827,-0.133057,1.000610,-0.244141,2.014160,13.183594
9607,-0.043335,-0.142944,0.939941,-0.976562,2.685547,17.761230
9616,-0.054565,-0.098389,0.983887,-1.525879,2.502441,19.409180
9626,-0.043335,-0.030884,1.060547,-1.586914,2.197266,20.141602
9635,-0.085449,-0.080200,1.020996,-1.525879,1.342773,19.592285
9645,-0.096924,-0.101685,1.016235,-1.220703,0.793457,19.042969
9655,-0.064697,-0.150513,1.045898,-1.098633,0.793457,18.676758
9664,-0.033203,-0.078979,1.064453,-1.342773,0.854492,17.700195
9677,-0.000244,-0.014771,1.045532,-0.976562,0.549316,16.540527
9686,0.026489,-0.114380,1.051514,-0.488281,0.305176,15.441895
9696,0.032959,-0.083984,1.027832,-0.061035,-0.488281,14.221191
9705,0.010864,-0.184570,0.921875,-0.061035,-1.037598,12.573242
9715,0.064453,-0.174561,0.981201,-0.244141,-1.586914,10.375977
9724,0.031860,-0.205811,1.010864,-0.854492,-2.502441,7.751465
9734,0.037720,0.017822,1.069580,-1.098633,-3.112793,5.310059
9745,0.001221,-0.090454,0.914917,-0.305176,-3.967285,1.159668
9755,0.004028,-0.206665,1.008911,0.183105,-3.967285,-0.183105
9764,0.017944,-0.079590,1.056641,0.122070,-3.967285,-1.464844
9774,0.016602,-0.138794,0.974121,0.122070,-4.150391,-2.441406
9784,0.047119,0.009155,1.081909,0.183105,-4.089355,-3.479004
9795,0.047852,-0.144897,1.007446,0.366211,-4.211426,-4.394531
9804,0.034912,0.000122,1.025391,1.037598,-4.394531,-5.126953
9817,0.062744,-0.082031,0.973999,1.892090,-4.089355,-6.286621
9826,0.047974,-0.186401,0.939575,1.770020,-3.723145,-6.408691
9836,0.053467,-0.201172,0.905884,1.403809,-3.662109,-6.225586
9845,0.021729,-0.196289,0.848145,0.671387,-3.601074,-5.981445
9855,0.038696,-0.189453,0.883789,-0.183105,-3.540039,-5.798340
9864,0.035034,-0.199951,0.918945,-0.793457,-3.540039,-5.554199
9874,0.015869,-0.159424,0.891479,-1.281738,-3.540039,-4.760742
9887,0.039185,-0.255493,0.702881,-2.929688,-3.234863,-4.394531
9896,0.036865,-0.086182,0.953491,-4.272461,-3.051758,-4.211426
9906,0.008667,0.038330,1.030273,-4.516602,-2.929688,-3.967285
9915,-0.019043,-0.005615,1.033691,-3.906250,-2.807617,-3.417969
9925,0.021851,0.088501,1.160156,-3.540039,-2.075195,-2.990723
9934,-0.045776,-0.177979,1.019409,-2.441406,-1.586914,-2.380371
9944,-0.019897,-0.166504,1.048828,-2.258301,-0.671387,-1.342773
9954,-0.008911,-0.111450,1.094727,-2.807617,-0.854492,-1.098633
9964,0.019165,-0.002930,1.056152,-3.295898,-1.220703,-1.159668
9975,0.033936,0.067505,1.007935,-2.868652,-1.770020,-1.525879
9984,0.016479,0.024536,1.048706,-2.075195,-2.136230,-1.708984
9994,0.012939,-0.030396,1.040649,-1.525879,-1.953125,-1.098633
10005,0.015503,-0.086304,1.020386,-1.892090,-1.342773,-0.610352
10014,-0.008179,-0.020386,1.023438,-2.319336,-1.159668,0.061035
10024,0.037109,0.031738,1.080811,-2.807617,-0.854492,1.708984
10035,0.012695,-0.067261,0.965698,-2.441406,-0.976562,1.953125
10045,0.008179,-0.059570,1.024170,-2.319336,-0.915527,2.319336
10054,0.013550,-0.094971,1.063843,-2.746582,-0.793457,2.746582
10064,-0.003540,0.003784,1.055908,-3.540039,-0.671387,3.051758
10075,-0.029053,-0.062012,0.931152,-3.479004,-0.610352,3.173828
10085,-0.009521,0.011719,1.014160,-2.990723,-0.488281,3.417969
10094,-0.000122,-0.089844,0.988647,-2.319336,-0.610352,2.990723
10106,0.003784,-0.170654,0.918823,-3.173828,-1.281738,1.770020
10115,-0.004883,-0.138306,0.998047,-3.845215,-1.281738,0.366211
10125,0.041260,-0.035156,1.084351,-4.028320,-1.464844,-0.854492
10135,-0.004272,-0.162231,0.974487,-3.723145,-1.403809,-2.197266
10145,0.018921,-0.158813,0.974976,-3.417969,-1.708984,-3.173828
10154,0.028198,-0.190674,1.028687,-3.845215,-1.586914,-3.967285
10164,0.033447,-0.034302,1.093262,-4.272461,-1.525879,-5.432129
10175,0.019775,-0.066528,1.015869,-3.784180,-1.159668,-5.981445
10185,-0.014526,-0.113281,1.044800,-3.112793,-1.281738,-6.591797
10195,-0.047363,-0.057617,1.085571,-2.868652,-1.464844,-7.568359
10205,-0.088867,-0.088013,1.051514,-2.990723,-1.464844,-8.361816
10215,-0.112671,-0.032959,0.974609,-2.929688,-0.976562,-8.789063
10225,-0.111206,0.038574,0.958618,-2.990723,-0.122070,-8.483887
10234,-0.089233,0.286499,1.033203,0.183105,1.770020,-6.896973
10244,-0.090210,0.140259,0.969482,1.708984,2.929688,-5.432129
10255,-0.080688,-0.025879,0.993164,2.563477,4.089355,-3.601074
10264,-0.060547,-0.087402,1.142578,2.136230,4.638672,-1.953125
10274,-0.036377,-0.176636,1.012939,0.915527,5.126953,-0.427246
10285,-0.009155,0.116699,1.012451,-0.183105,5.249023,1.403809
10295,0.045288,0.153687,0.942017,0.366211,5.004883,3.173828
10307,0.074707,0.087524,0.866455,1.770020,3.906250,6.469727
10316,0.088501,-0.003662,0.951904,1.647949,3.723145,8.605957
10326,0.084717,-0.034302,1.016357,0.915527,3.906250,10.437012
10335,0.088013,0.004883,1.026978,-0.122070,3.906250,12.084961
10344,0.036377,0.086182,1.005859,-0.732422,4.638672,13.977051
10355,0.023193,0.106934,0.976685,-0.915527,4.882812,15.502930
10365,0.031006,0.043335,0.979736,-0.793457,4.455566,16.723633
10374,-0.002563,0.067017,1.011475,-0.610352,3.662109,18.615723
10386,-0.072632,0.014038,0.967285,-1.220703,3.784180,19.653320
10396,-0.069824,0.129761,0.973267,-1.464844,4.577637,21.240234
10405,-0.055786,0.119873,0.929077,-1.220703,4.577637,22.094727
10415,-0.061157,0.074707,0.956299,-0.610352,3.540039,22.216797
10424,-0.052979,0.065796,0.988159,0.183105,2.868652,22.460937
10434,-0.026611,-0.119385,0.831177,0.610352,2.014160,22.583008
10447,-0.133057,-0.108887,0.796143,-0.915527,2.258301,22.033691
10456,-0.038818,-0.206665,0.706421,-1.586914,2.868652,21.728516
10466,0.031616,-0.222656,0.812012,-1.892090,2.197266,20.263672
10475,0.002808,-0.425293,0.729736,-1.831055,0.854492,17.761230
10485,0.012207,-0.477905,0.666260,-1.770020,0.427246,16.113281
10494,-0.043213,-0.655518,0.380493,-1.892090,0.244141,14.831543
10506,-0.212646,-0.830566,-0.076172,-2.929688,2.014160,15.014648
10516,0.069214,-1.927734,-0.386475,-12.756348,3.906250,13.977051
10525,-0.227173,-2.806519,-1.940308,-29.968262,0.976562,10.192871
10535,-0.040771,-0.990356,-0.757812,-51.635742,-0.610352,6.164551
10544,-0.016968,0.541138,1.336548,-62.622070,-0.976562,3.906250
10554,0.091553,0.865967,3.184448,-55.297852,-3.479004,2.868652
10564,0.206787,1.100220,3.999512,-40.954590,-3.417969,4.699707
10575,0.271240,1.027588,3.999512,-21.606445,-3.112793,8.300781
10584,0.106323,-0.484985,3.475830,13.549805,0.793457,15.991211
10596,0.240723,-1.777832,0.476440,14.831543,-1.220703,13.671875
10605,0.108643,-1.587402,0.120117,6.591797,-6.591797,8.300781
10615,0.150269,-1.207764,0.887695,-1.770020,-9.765625,4.516602
10624,0.093872,-1.010498,1.673950,-3.967285,-11.596680,1.831055
10635,0.102051,-1.157227,1.896606,-0.366211,-12.756348,0.122070
10644,0.304077,-1.242065,1.632324,3.051758,-11.901855,-1.831055
10656,0.780884,-1.038940,0.799072,4.455566,-11.474609,-8.483887
10665,0.910034,-0.944214,1.219604,5.920410,-16.052246,-13.549805
10675,0.818726,-0.500488,2.004395,8.239746,-22.094727,-21.423340
10685,0.463745,1.443604,3.999512,9.521484,-27.343750,-32.653809
10694,-0.437134,2.256592,3.997559,20.263672,-30.273437,-44.067383
10705,-0.774048,3.558350,3.999512,38.024902,-22.705078,-52.551270
10714,-0.799927,3.680298,3.995117,59.570312,-13.977051,-51.940918
10724,-0.856689,3.970947,3.883057,75.256348,-1.098633,-34.851074
10736,0.167358,2.820068,2.681885,91.979980,9.155273,-20.751953
10745,-0.510742,1.977661,1.295410,101.135254,9.704590,-15.136719
10755,-0.420654,1.902588,0.898682,105.224609,9.582520,-13.122559
10765,-0.700073,1.364624,0.166992,105.468750,12.756348,-8.056641
10775,-0.278076,0.802246,-0.232910,102.172852,17.700195,-5.920410
10784,-0.363403,0.446411,-0.344727,96.496582,21.850586,-5.798340
10797,-0.197144,0.142334,-0.165405,82.641602,26.977539,-2.136230
10806,-0.027588,0.007324,-0.034424,75.927734,26.489258,-0.427246
10816,0.288208,0.135132,0.097778,69.458008,23.864746,-2.563477
10825,0.346069,0.230469,0.095581,63.842773,19.897461,-5.065918
10834,0.470459,0.262329,0.143799,60.363770,17.211914,-5.249023
10845,0.440796,0.155151,0.272461,58.410645,16.113281,-0.183105
10856,0.383301,-0.078857,0.316528,54.443359,12.207031,10.986328
10865,0.404419,-0.474487,0.132080,50.903320,9.155273,14.038086
10876,0.318481,-0.531250,0.018677,45.898437,5.981445,16.479492
10885,0.295532,-0.603149,-0.123901,40.832520,3.051758,18.737793
10894,0.271484,-0.776978,-0.245605,36.254883,-0.122070,19.531250
10905,0.163086,-0.897339,-0.295410,31.372070,-3.173828,18.554687
10914,0.051514,-0.922974,-0.356201,25.817871,-5.310059,16.845703
10925,-0.074463,-0.938354,-0.423340,19.714355,-6.652832,15.686035
10935,-0.151855,-0.962036,-0.425293,7.934570,-6.103516,14.099121
10944,-0.225586,-0.962036,-0.392944,2.319336,-5.126953,13.916016
10955,-0.255371,-0.958862,-0.389038,-3.417969,-3.295898,13.916016
10965,-0.224854,-0.996216,-0.370972,-9.338379,-1.403809,14.526367
10974,-0.126343,-0.951294,-0.357544,-15.747070,0.305176,15.197754
10985,-0.124512,-0.870483,-0.351440,-21.789551,1.464844,15.808105
10995,-0.052612,-0.821899,-0.331787,-27.221680,2.624512,16.296387
11005,-0.003662,-0.828613,-0.318726,-37.963867,3.662109,16.113281
11015,0.091797,-0.855103,-0.316528,-43.457031,4.333496,15.686035
11024,0.046509,-0.840088,-0.342163,-49.316406,4.577637,14.770508
11035,0.073486,-0.757935,-0.337524,-54.992676,4.638672,13.488770
11044,0.060059,-0.763062,-0.356934,-60.729980,4.394531,11.596680
11055,0.107056,-0.699097,-0.357300,-66.101074,3.967285,9.765625
11064,0.114624,-0.650391,-0.377319,-71.716309,3.051758,7.751465
11077,0.133911,-0.576538,-0.502441,-84.167480,0.854492,3.662109
11086,0.095093,-0.504761,-0.567749,-90.270996,-0.183105,2.075195
11096,0.039429,-0.444336,-0.642700,-96.252441,-0.976562,0.549316
11105,-0.024048,-0.403198,-0.715088,-102.233887,-0.793457,-0.732422
11115,-0.053345,-0.331421,-0.820190,-108.459473,-0.610352,-1.647949
11125,-0.068237,-0.290894,-0.891235,-115.051270,-0.183105,-2.563477
11134,-0.006470,-0.282593,-1.025513,-122.192383,-0.366211,-3.967285
11144,0.001587,-0.197998,-1.130859,-135.864258,0.427246,-7.385254
11156,0.164429,3.999512,3.999512,-92.163086,4.150391,-4.394531
11165,-0.294556,-3.998779,3.709229,-29.418945,4.150391,13.488770
11175,-1.549316,-3.951660,0.942871,-42.297363,15.258789,20.874023
11184,1.236572,3.999512,1.905518,-97.778320,22.399902,9.399414
11195,-0.360352,3.999512,1.610107,-71.350098,6.896973,7.019043
11204,-0.469238,-0.000854,-2.043701,0.793457,-11.901855,17.761230
11217,-0.674927,0.735596,3.999512,-15.136719,2.014160,14.526367
11226,-0.859619,-1.273682,1.385132,-16.540527,14.892578,28.442383
11236,0.084106,1.994507,3.506348,-15.014648,31.921387,41.259766
11245,-0.630249,0.933838,-0.707153,-3.173828,28.503418,43.884277
11254,0.485229,0.334229,0.775024,9.216309,22.644043,43.090820
11265,-0.171387,-1.290283,1.933716,12.390137,15.991211,44.799805
11274,-0.642334,-0.701416,2.025757,1.403809,8.117676,37.902832
11286,0.284912,1.402832,1.689697,-10.925293,28.991699,53.894043
11296,-0.098022,0.413696,0.644165,4.333496,26.306152,58.654785
11305,-0.025146,-0.368042,0.930786,16.174316,19.958496,61.706543
11315,0.088257,-0.503174,1.492310,16.052246,15.869141,64.575195
11325,-0.002075,-0.527466,1.023315,10.009766,10.986328,62.561035
11335,-0.082764,0.018188,0.648315,5.493164,9.765625,59.204102
11346,0.267212,0.258301,0.751343,13.671875,10.986328,62.072754
11356,0.343140,-0.457520,1.175171,15.747070,6.774902,60.485840
11366,0.235718,-0.296021,1.158081,12.023926,2.807617,56.823730
11375,0.376099,0.194092,1.001221,8.239746,1.831055,54.992676
11385,0.432007,0.320068,0.708984,9.216309,1.586914,54.382324
11395,0.479736,0.118896,0.698853,13.732910,-0.610352,52.368164
11404,0.377441,-0.325562,0.819336,17.028809,-4.760742,48.400879
11416,0.334961,-0.331909,1.158936,12.695313,-13.183594,36.621094
11425,0.300293,-0.271851,0.861816,9.704590,-15.502930,31.372070
11436,0.498901,-0.063477,0.781494,9.887695,-17.150879,28.198242
11445,0.552979,-0.189209,0.852905,10.986328,-19.592285,25.451660
11455,0.485474,-0.299805,0.943970,11.352539,-22.705078,21.972656
11464,0.321045,-0.281860,1.002441,10.192871,-24.841309,18.859863
11475,0.256836,-0.197632,1.022949,8.850098,-25.207520,16.601562
11484,0.199097,-0.166870,0.938599,8.544922,-25.268555,14.282227
11496,0.147949,-0.171265,0.830078,9.277344,-27.832031,8.544922
11506,0.144043,-0.237915,0.889038,10.620117,-30.273437,4.943848
11515,0.102295,-0.290405,0.930908,10.559082,-32.165527,1.159668
11524,0.156616,-0.286743,0.962646,10.437012,-33.325195,-1.831055
11535,0.126221,-0.339722,0.888672,10.192871,-34.301758,-4.577637
11544,0.192505,-0.397461,0.818604,9.460449,-35.034180,-7.019043
11556,0.173950,-0.377686,0.863403,6.835937,-35.827637,-10.681152
11566,0.173706,-0.192505,0.780273,5.737305,-36.254883,-13.488770
11575,0.177734,-0.192139,0.703979,5.371094,-36.560059,-16.540527
11585,0.156128,-0.303711,0.647339,5.065918,-36.987305,-19.409180
11595,0.147827,-0.334961,0.630005,3.723145,-37.780762,-23.498535
11604,0.037720,-0.307129,0.688110,1.770020,-37.963867,-28.015137
11615,0.030762,-0.192383,0.913086,-0.183105,-38.024902,-32.775879
11624,-0.034546,-0.161133,1.042847,-1.647949,-37.902832,-38.208008
11636,-0.068359,0.117188,1.116455,-2.563477,-37.353516,-48.706055
11646,-0.022095,0.021240,1.075317,-1.220703,-36.743164,-53.039551
11655,0.010986,0.033325,1.102051,0.000000,-35.949707,-56.762695
11665,0.079102,-0.049805,0.977295,0.732422,-35.217285,-60.180664
11674,0.099365,-0.013428,0.950928,0.671387,-34.362793,-63.598633
11685,0.067017,-0.069580,0.874878,0.488281,-33.447266,-67.321777
11694,0.060425,0.032593,0.883789,0.366211,-31.677246,-70.556641
11706,-0.030762,0.213989,0.975830,-0.488281,-28.259277,-75.134277
11715,-0.114136,0.169067,1.009399,-1.281738,-26.428223,-75.866699
11725,-0.115967,0.246948,1.160889,-1.281738,-24.108887,-75.439453
11735,-0.121582,0.187744,1.086792,-1.647949,-21.606445,-74.523926
11744,-0.119263,0.233521,1.134277,-2.136230,-19.348145,-73.181152
11755,-0.093506,0.253662,1.121704,-2.502441,-16.845703,-71.411133
11765,-0.019287,0.339600,1.092896,-2.075195,-14.343262,-67.199707
11775,-0.031860,0.405518,1.138306,-0.366211,-10.253906,-65.002441
11785,-0.096924,0.287109,1.114258,0.793457,-8.789063,-63.110352
11794,-0.170654,0.242432,1.084106,1.098633,-7.141113,-60.668945
11805,-0.213501,0.197388,1.046631,1.220703,-5.432129,-58.471680
11814,-0.232056,0.209839,1.048340,0.915527,-3.356934,-56.640625
11825,-0.260864,0.208740,0.895874,0.671387,-1.770020,-54.870605
11834,-0.266357,0.195679,0.834473,0.549316,-0.366211,-53.344727
11846,-0.255249,0.268555,0.955933,0.976562,1.831055,-48.706055
11855,-0.261963,0.328857,1.137939,2.258301,5.920410,-46.875000
11865,-0.293823,0.454102,1.333374,3.234863,8.422852,-44.860840
11874,-0.314087,0.430664,1.356934,5.432129,10.925293,-42.602539
11885,0.333740,-0.357300,1.315308,8.666992,13.061523,-40.466309
11895,0.246338,-0.750122,1.402344,9.704590,13.183594,-36.926270
11905,0.167847,-0.186523,0.655396,8.728027,8.239746,-32.409668
11916,-0.191406,-0.231201,0.213989,9.399414,6.530762,-23.559570
11926,0.078003,-0.714966,0.682861,12.756348,14.404297,-14.038086
11935,0.169189,-1.137207,1.008667,10.803223,21.301270,-3.479004
11945,-0.136353,-1.021729,0.926147,5.798340,21.972656,1.586914
11954,-0.298096,-0.615845,0.827637,0.854492,21.118164,0.854492
11965,-0.306641,-0.350098,1.010010,-1.647949,21.850586,0.671387
11974,-0.118286,-0.332520,1.134644,-0.976562,21.911621,-0.366211
11986,-0.125122,-0.572021,0.951904,1.892090,19.714355,-7.690430
11995,-0.168091,-0.586426,0.899536,6.530762,13.366699,-10.437012
12005,-0.064209,-0.671997,0.825928,6.225586,13.671875,-10.253906
12015,0.094116,-0.528076,0.885620,3.784180,15.563965,-7.873535
12025,0.179565,-0.413696,0.947021,1.647949,17.272949,-5.187988
12035,0.150391,-0.158569,1.067017,0.183105,17.578125,-2.990723
12045,0.106079,-0.198486,0.951782,0.488281,16.723633,-3.356934
12056,0.096680,-0.239868,0.853638,2.685547,12.390137,-5.981445
12066,0.148193,-0.116211,1.050171,3.417969,9.826660,-8.728027
12075,0.178345,-0.425781,1.060425,3.601074,7.263184,-11.840820
12085,0.130493,-0.246338,1.008667,2.136230,5.920410,-15.136719
12094,0.145142,-0.216919,0.974121,0.610352,6.042480,-16.296387
12105,0.230469,-0.114380,0.919922,-0.427246,7.019043,-15.808105
12116,0.311768,-0.000977,1.120972,0.122070,7.690430,-12.634277
12126,0.286743,-0.134399,1.018799,0.610352,7.507324,-10.742188
12135,0.298584,-0.015747,1.253906,0.976562,7.324219,-9.643555
12145,0.229370,-0.150391,1.181152,1.037598,6.774902,-9.460449
12154,0.246826,-0.061279,1.213989,0.427246,6.225586,-9.887695
12165,0.244995,0.045288,1.145752,-0.305176,5.249023,-10.559082
12175,0.204102,0.143066,1.106812,-1.098633,4.211426,-11.474609
12186,0.168091,0.269897,1.128296,-1.159668,1.831055,-11.718750
12196,0.097046,0.277588,1.007446,-0.488281,1.342773,-10.498047
12205,0.139038,0.191650,1.017456,-0.122070,1.403809,-8.850098
12215,0.114746,0.156494,0.957520,-0.671387,2.197266,-6.958008
12225,0.170410,0.167114,0.987427,-1.403809,2.075195,-4.821777
12234,0.128662,0.164185,0.899048,-1.953125,2.136230,-2.441406
12245,0.167358,0.238647,0.906372,-2.746582,1.708984,-0.488281
12255,0.084595,0.151855,0.914795,-2.990723,0.976562,1.403809
12264,-0.082031,0.143311,0.929077,-2.929688,1.586914,4.760742
12276,-0.052734,0.085693,1.055420,-1.892090,3.173828,5.432129
12285,-0.109009,0.104126,1.057739,-1.098633,2.990723,5.554199
12295,-0.120239,-0.036743,0.969116,-0.427246,1.770020,5.065918
12305,-0.161987,0.072754,1.008301,-0.732422,0.549316,3.906250
12315,-0.214233,-0.013794,0.999634,-0.732422,-0.427246,3.417969
12325,-0.197510,-0.098877,0.836670,-1.098633,14.526367,4.943848
12335,-0.119995,-0.092163,0.907227,-1.708984,1.953125,7.385254
12345,0.048096,-0.039917,0.994873,-2.075195,2.990723,10.070801
12355,0.024170,-0.010254,1.082764,-1.647949,3.540039,12.451172
12365,-0.035278,-0.067627,0.984863,-0.671387,3.051758,13.916016
12375,-0.092896,-0.177246,0.972778,0.000000,2.258301,14.160156
12386,-0.148193,-0.261353,1.048096,0.366211,1.220703,13.488770
12395,-0.083130,-0.261108,0.977417,0.610352,0.366211,10.742188
12407,-0.010132,-0.230591,0.920166,-0.549316,-1.770020,9.887695
12416,-0.002075,-0.130737,0.855225,-1.159668,-2.502441,9.643555
12426,0.045776,-0.110840,0.836182,-0.671387,-2.441406,11.047363
12436,0.084473,-0.265747,0.860596,-0.122070,-1.831055,14.099121
12445,0.202515,-0.343018,0.967041,-0.305176,-1.464844,18.005371
12455,0.209717,-0.315186,0.991089,-0.915527,-1.831055,22.155762
12468,0.127930,-0.251953,0.974609,-2.380371,-3.601074,30.090332
12477,0.030640,-0.295044,0.928833,-2.258301,-4.272461,34.057617
12486,-0.042358,-0.262939,0.979492,-2.197266,-4.760742,37.292480
12496,-0.099121,-0.374634,0.961670,-1.464844,-4.577637,40.649414
12506,-0.039673,-0.395386,1.048584,-1.831055,-4.028320,43.395996
12515,-0.035400,-0.401245,0.962280,-2.075195,-5.187988,44.738770
12525,-0.055298,-0.348389,0.935669,-2.380371,-7.873535,44.433594
12535,-0.069336,-0.307373,0.921509,-2.441406,-10.009766,43.579102
12547,-0.118408,-0.518921,0.884155,-1.831055,-12.023926,43.029785
12556,-0.162842,-0.454712,0.951904,-2.197266,-12.390137,41.381836
12566,-0.240112,-0.488159,0.794800,-1.953125,-13.244629,39.062500
12576,-0.209839,-0.471924,0.832642,-2.319336,-13.977051,35.217285
12585,-0.205811,-0.520142,0.926514,-2.441406,-15.136719,29.907227
12595,-0.213867,-0.603271,0.939209,-2.319336,-16.906738,23.986816
12605,-0.239380,-0.320068,1.029663,-1.953125,-19.042969,12.207031
12615,-0.253906,-0.563232,0.984131,-1.403809,-18.249512,7.812500
12625,-0.206177,-0.423340,1.050659,-1.220703,-17.211914,4.150391
12635,-0.241211,-0.615967,0.923828,-1.464844,-16.662598,0.427246
12645,-0.269775,-0.377075,0.976685,-2.319336,-15.991211,-3.601074
12655,-0.284424,-0.288086,1.067261,-3.173828,-15.319824,-7.324219
12665,-0.371460,-0.317993,0.943115,-3.112793,-15.258789,-11.352539
12675,-0.360474,-0.182739,1.042725,-2.929688,-13.977051,-19.653320
12685,-0.326538,-0.262451,0.992187,-2.685547,-10.498047,-23.437500
12694,-0.396118,-0.191040,0.990356,-2.990723,-9.094238,-28.076172
12705,-0.363525,-0.243896,0.990234,-3.540039,-7.629395,-32.653809
12715,-0.333984,-0.217407,1.057373,-4.394531,-6.713867,-37.109375
12725,-0.273560,0.015015,1.173950,-4.516602,-6.774902,-42.358398
12735,-0.306641,0.054077,1.169678,-3.723145,-7.202148,-46.936035
12745,-0.270508,0.005249,1.055054,-2.624512,-5.676270,-49.011230
12756,-0.166260,0.138062,1.030518,-0.976562,-1.220703,-48.339844
12766,-0.084839,0.101929,1.070923,0.061035,1.525879,-46.325684
12775,0.019287,0.026245,1.039551,0.488281,3.601074,-43.457031
12785,-0.010498,-0.009644,1.003296,1.098633,4.760742,-40.283203
12796,0.001587,-0.013306,1.002197,1.159668,5.737305,-37.658691
12805,-0.031128,0.022827,0.991577,0.976562,7.141113,-34.606934
12816,-0.037598,-0.045410,0.989136,0.488281,10.131836,-29.541016
12826,-0.082642,-0.010498,0.919312,0.854492,11.535645,-27.221680
12836,-0.061157,-0.027100,0.944580,1.281738,12.634277,-24.902344
12845,-0.079590,-0.271729,0.831909,1.403809,13.244629,-23.315430
12855,-0.133423,-0.308105,0.771362,0.793457,13.854980,-20.996094
12866,-0.105103,-0.060913,0.880981,-0.366211,14.892578,-18.676758
12875,-0.107544,-0.027832,0.894165,-0.915527,15.441895,-17.639160
12887,-0.070557,0.032959,1.038696,-0.061035,17.028809,-16.052246
12897,-0.000366,-0.059204,1.094360,1.037598,17.639160,-15.808105
12906,-0.019165,-0.227173,1.017212,1.220703,17.211914,-15.686035
12916,0.017944,-0.161377,1.071533,0.976562,16.967773,-14.953613
12925,0.112793,-0.137817,1.090942,0.488281,16.601562,-14.038086
12935,0.127441,-0.188599,0.965332,0.549316,17.028809,-12.573242
12946,0.208618,-0.072144,0.963745,0.549316,17.456055,-10.620117
12955,0.291870,-0.056641,1.024170,0.427246,17.272949,-7.751465
12967,0.175049,-0.052368,0.952881,-0.549316,15.747070,-6.469727
12976,0.143677,0.072998,1.011353,-0.305176,15.441895,-4.333496
12985,0.121826,0.009399,0.998535,0.549316,15.563965,-1.220703
12995,0.109863,-0.133179,0.975098,0.488281,16.052246,1.647949
13005,0.068848,-0.056030,0.958008,0.183105,16.113281,4.089355
13015,0.106812,0.066284,1.078857,0.122070,15.686035,5.981445
13028,0.008057,-0.084961,0.854492,1.525879,13.732910,8.911133
13037,0.009766,-0.078003,0.890503,1.647949,13.549805,10.803223
13046,-0.005249,-0.054077,0.942017,1.342773,13.366699,13.061523
13056,-0.023926,-0.149658,0.961426,0.915527,13.427734,15.136719
13065,0.030640,-0.080566,1.015747,0.488281,13.000488,16.479492
13075,0.051514,-0.093140,1.041748,0.122070,12.207031,17.517090
13085,0.027710,-0.291260,0.968140,-0.305176,11.230469,17.944336
13095,0.008911,-0.167969,1.015015,-0.976562,10.192871,17.578125
13106,-0.000977,-0.157349,1.010376,-1.708984,8.178711,14.526367
13116,-0.021973,-0.185059,0.958130,-1.586914,7.080078,12.939453
13126,0.029907,0.060181,1.074463,-1.403809,5.981445,10.864258
13135,-0.030518,-0.107056,1.060303,-0.732422,5.065918,9.521484
13145,-0.077148,-0.214844,0.953857,-0.976562,5.004883,8.666992
13155,-0.059692,0.068115,1.087280,-0.915527,5.065918,7.934570
13168,-0.093750,-0.171631,0.893311,-0.549316,5.126953,6.225586
13177,-0.062622,-0.003540,0.983398,0.061035,5.371094,5.493164
13186,-0.026367,0.071777,1.052490,0.549316,5.004883,4.394531
13196,0.005981,-0.173340,0.958740,0.549316,4.333496,2.929688
13205,0.007813,-0.114258,0.923828,0.488281,3.845215,1.525879
13215,0.026001,0.034302,1.052246,0.427246,3.540039,0.610352
13226,0.009644,-0.067749,1.015259,0.183105,3.540039,0.549316
13235,-0.031860,-0.103027,0.946777,0.000000,4.394531,3.723145
13246,-0.037598,0.060913,0.952515,-0.244141,5.187988,6.652832
13256,-0.048584,0.021973,0.914551,-0.610352,5.920410,10.314941
13265,-0.031860,0.105957,0.972900,-0.915527,6.408691,14.343262
13275,-0.079346,0.100586,0.942139,-1.464844,6.713867,17.395020
13285,-0.052490,0.029907,0.983032,-1.647949,6.774902,20.019531
13296,-0.068481,0.053833,1.030518,-1.586914,6.164551,22.033691
13305,-0.021362,0.067749,1.016235,-1.892090,5.981445,22.644043
13316,0.032104,0.181274,1.102539,-1.525879,4.089355,22.216797
13326,0.034302,0.078247,1.052612,-0.549316,3.112793,21.057129
13335,0.035034,-0.074341,1.025757,0.061035,2.563477,20.019531
13345,0.065063,0.033569,1.180176,0.305176,1.953125,18.432617
13355,0.071411,-0.062378,1.074219,0.183105,0.854492,16.418457
13366,0.026489,-0.030396,1.039429,0.122070,0.122070,14.709473
13375,0.052734,0.047974,1.013916,0.183105,-0.915527,10.498047
13386,0.028687,-0.028564,0.955078,-0.122070,-2.624512,7.873535
13396,0.048462,-0.081909,1.019287,-0.488281,-3.662109,5.676270
13405,0.012573,-0.116821,0.950806,-1.037598,-4.516602,3.234863
13415,0.035645,0.016357,1.038330,-1.342773,-5.187988,0.854492
13425,0.018188,-0.081055,0.924072,-1.525879,-5.249023,-0.488281
13436,0.075317,0.096924,1.080200,-1.586914,-5.126953,-1.403809
13445,0.062500,-0.013062,1.012817,-0.427246,-5.432129,-4.150391
13455,0.079102,-0.041992,1.106079,0.000000,-5.859375,-5.859375
13465,0.057861,-0.166992,0.960327,0.427246,-6.591797,-8.056641
13475,0.067017,-0.038574,1.060547,0.305176,-7.202148,-10.742188
13486,0.097290,-0.206787,1.010742,0.244141,-7.446289,-13.183594
13495,0.065063,-0.115112,1.010498,-0.732422,-7.873535,-15.014648
13505,0.111816,-0.013184,1.100952,-1.098633,-7.995605,-16.052246
13518,0.063965,0.056641,1.011353,-1.098633,-7.629395,-16.296387
13527,0.028931,-0.075928,0.890259,-0.732422,-6.835937,-15.563965
13536,0.056396,-0.024048,1.013916,-0.610352,-6.347656,-15.014648
13546,0.016724,-0.177124,0.894897,-0.610352,-6.286621,-14.648438
13555,0.019897,-0.182251,0.904541,-0.793457,-5.981445,-15.075684
13565,0.027222,-0.208496,0.878784,-1.098633,-5.981445,-16.052246
13576,0.024170,-0.160522,0.921997,-1.647949,-5.371094,-16.723633
13585,0.040771,-0.234009,1.000000,-1.892090,-4.821777,-18.310547
13597,0.015137,-0.062134,1.205444,-1.770020,-4.760742,-18.432617
13606,-0.004395,-0.280762,1.007446,-0.976562,-4.089355,-18.310547
13616,-0.016968,-0.205688,1.040405,-0.427246,-3.662109,-17.700195
13625,-0.040527,-0.221558,1.001709,-0.549316,-2.685547,-16.540527
13636,-0.067261,-0.361206,0.891235,-0.793457,-1.647949,-15.136719
13645,-0.056030,-0.222778,0.856934,-1.831055,-0.793457,-13.427734
13655,-0.064087,-0.186523,0.911987,-2.929688,0.427246,-10.131836
13667,-0.037476,-0.016357,0.995117,-4.089355,1.098633,-9.155273
13676,-0.036743,-0.168945,0.988647,-4.272461,1.220703,-8.117676
13686,-0.013916,-0.004395,1.112305,-4.577637,1.525879,-7.446289
13695,-0.020264,0.073120,1.210449,-4.333496,1.892090,-6.774902
13705,-0.071167,0.016235,1.057861,-3.356934,2.075195,-5.554199
13716,-0.043701,0.176147,1.104614,-2.014160,2.746582,-3.845215
13725,-0.027222,-0.088013,0.920898,-0.793457,3.723145,-0.244141
13735,0.049683,-0.103760,0.849243,-1.220703,2.746582,1.159668
13745,0.218384,-0.203247,0.802368,-2.624512,0.732422,1.342773
13755,0.158936,-0.088623,0.800171,-4.272461,-1.403809,1.159668
13765,0.011230,-0.017090,0.815308,-4.760742,-1.464844,1.892090
13775,-0.165161,-0.009033,0.833496,-4.882812,0.671387,3.845215
13785,-0.243896,-0.035400,0.924194,-4.272461,4.211426,6.835937
13797,-0.241455,-0.272583,0.955322,-3.723145,9.765625,14.648438
13807,-0.180298,-0.243896,0.925537,-4.150391,9.216309,16.845703
13816,-0.118042,-0.105957,1.003052,-4.638672,7.385254,17.578125
13826,-0.040527,-0.316284,0.823730,-4.577637,5.187988,17.578125
13835,-0.038940,-0.113770,0.856445,-4.943848,3.173828,17.700195
13845,0.027954,-0.098755,0.761475,-4.577637,2.136230,18.005371
13855,-0.019043,-0.090210,0.655151,-3.601074,2.990723,18.981934
13865,-0.017212,-0.188599,0.788818,-1.464844,5.249023,21.850586
13875,-0.105347,-0.191284,1.096558,-0.183105,5.126953,21.667480
13889,-0.165649,-0.683105,1.154175,-0.061035,2.685547,19.958496
13899,-0.093262,-0.864014,0.898804,-0.854492,0.976562,17.822266
13909,0.082031,-1.294922,0.005493,-1.647949,0.183105,15.441895
13918,0.109863,-2.422607,-2.153076,-13.183594,-4.577637,9.216309
13928,0.258057,-2.417969,-1.440674,-27.709961,-6.469727,5.065918
13936,0.258057,-2.417969,-1.440674,-43.762207,-7.568359,-2.319336
13946,0.413818,-0.044800,1.463501,-51.330566,-7.934570,-4.760742
13955,0.414307,-0.258057,2.777588,-45.776367,-9.704590,-6.652832
13965,0.193115,-0.089478,3.712036,-35.583496,-9.765625,-9.338379
13976,-0.013550,0.177856,3.999512,-23.803711,-8.850098,-9.765625
13985,-0.084717,0.143677,3.875854,-8.666992,-8.666992,-10.559082
13995,-0.229736,-0.806641,2.234131,6.347656,-10.253906,-13.061523
14008,-0.217163,-0.587036,1.305176,12.634277,-13.793945,-20.507812
14017,-0.147827,-0.085571,1.366211,9.033203,-11.840820,-21.423340
14027,0.027344,0.685303,1.965698,5.920410,-7.019043,-22.460937
14036,0.786743,2.801880,3.985352,6.408691,-4.394531,-22.460937
14045,0.599365,3.451416,3.999512,20.141602,-10.498047,-17.944336
14055,-0.494751,3.603027,3.999512,41.198730,-10.681152,-14.221191
14066,-0.262207,2.564941,2.849609,59.875488,-2.807617,-8.239746
14075,-0.466919,2.308350,2.154541,67.199707,6.042480,2.929688
14086,0.401367,1.637451,1.230103,69.885254,12.329102,12.512207
14096,0.332886,0.901611,0.593262,73.303223,11.718750,16.113281
14105,0.384277,0.750610,0.534668,72.875977,6.591797,12.634277
14115,0.105103,0.369629,-0.026489,68.664551,2.563477,10.375977
14125,0.161865,0.110107,-0.389038,61.035156,2.136230,9.582520
14135,0.048218,-0.039551,-0.478271,53.100586,2.868652,9.277344
14148,-0.172852,-0.062134,-0.256104,39.245605,3.112793,6.530762
14157,-0.302979,-0.127686,-0.162598,32.043457,5.615234,7.629395
14166,-0.262329,0.035889,-0.068726,24.780273,7.568359,7.690430
14176,-0.298706,0.170044,-0.016479,19.592285,9.704590,7.202148
14185,-0.141602,0.121216,0.082397,16.784668,12.268066,6.896973
14195,-0.064453,0.069702,0.223145,15.197754,14.648438,8.239746
14205,-0.009521,-0.056396,0.340820,13.488770,16.174316,10.375977
14216,0.013550,-0.208496,0.269409,6.347656,17.761230,12.756348
14226,0.008423,-0.284668,0.083618,2.502441,18.005371,14.038086
14235,-0.041260,-0.255127,0.050781,-0.671387,18.554687,15.319824
14245,0.013672,-0.389282,0.042847,-3.601074,18.310547,16.418457
14256,-0.016968,-0.547241,0.015015,-7.019043,18.005371,16.845703
14265,-0.017944,-0.691284,-0.062378,-11.535645,17.578125,17.272949
14276,-0.032593,-0.760132,-0.115479,-17.395020,16.967773,17.333984
14285,-0.031494,-0.747925,-0.191040,-23.315430,15.075684,15.197754
14295,-0.045288,-0.646606,-0.215942,-33.569336,14.404297,13.671875
14305,0.035767,-0.617187,-0.181885,-37.963867,13.122559,12.207031
14315,0.067993,-0.635498,-0.204956,-42.541504,11.718750,10.375977
14325,0.098145,-0.729126,-0.229736,-47.302246,10.253906,8.728027
14335,0.139526,-0.735718,-0.246338,-52.368164,8.972168,7.202148
14345,0.151733,-0.725220,-0.226562,-57.800293,6.896973,5.004883
14357,0.161255,-0.561157,-0.238525,-68.847656,1.892090,-0.915527
14367,0.227539,0.572266,0.898193,-74.157715,0.366211,-4.150391
14376,0.435791,1.303955,3.999512,-63.659668,-1.892090,-6.835937
14386,-0.133545,0.776978,3.999512,-27.526855,-12.390137,-4.943848
14396,-1.488525,-3.999512,-0.825806,-5.126953,-20.996094,-4.272461
14405,-0.713867,-2.753052,-0.123535,-32.653809,-6.408691,-8.422852
14415,-0.059326,3.198120,1.648926,-66.223145,3.906250,-4.272461
14425,0.681152,3.636230,1.108643,-45.166016,0.549316,6.347656
14436,-0.132080,-1.342773,1.824585,5.126953,-15.991211,0.793457
14445,-0.211670,-0.599365,3.951904,-8.117676,-12.390137,1.464844
14455,-0.186157,-2.213745,0.528687,-10.070801,-12.084961,1.586914
14465,0.061646,-0.724365,0.846680,-18.127441,-8.911133,-0.122070
14475,0.440063,0.258911,0.135010,-29.113770,-9.826660,-1.098633
14485,0.597412,1.822388,0.989746,-33.325195,-11.413574,-2.441406
14494,0.142578,1.382935,3.203491,-18.493652,-11.718750,0.915527
14506,-0.528931,-0.567383,3.418457,0.366211,-5.126953,3.906250
14516,-0.343750,-0.127563,2.302002,-5.859375,0.732422,6.530762
14526,-0.339478,0.477295,1.092651,-5.371094,3.295898,7.019043
14535,0.136230,0.152588,0.626099,2.563477,2.868652,4.577637
14545,0.289917,-0.734009,0.570679,10.375977,-1.708984,-1.159668
14554,0.368164,-0.859131,1.127441,8.117676,-8.605957,-8.544922
14567,0.208862,0.572510,1.150635,-4.638672,-13.854980,-17.822266
14577,0.225464,0.586670,1.268555,1.342773,-12.207031,-17.150879
14587,0.369751,0.082520,1.540527,12.023926,-10.498047,-15.686035
14596,0.154053,-0.483276,1.518921,17.211914,-11.108398,-15.502930
14606,0.258423,-0.332031,1.325317,14.648438,-11.962891,-17.883301
14615,0.218384,-0.051392,0.945190,11.108398,-11.901855,-18.981934
14625,0.242187,0.037354,0.679687,11.840820,-12.512207,-19.165039
14634,0.137451,-0.333252,0.529541,15.014648,-14.038086,-21.179199
14646,0.062012,-0.358521,0.707031,15.319824,-13.977051,-26.000977
14655,0.212769,-0.125366,0.702148,7.568359,-12.268066,-26.611328
14665,0.107056,-0.037964,0.570312,5.737305,-10.864258,-25.756836
14675,0.173706,-0.093018,0.642334,6.225586,-10.314941,-24.475098
14685,0.072998,-0.296021,0.714111,7.385254,-10.253906,-23.071289
14695,0.153442,-0.443115,0.876587,6.286621,-9.887695,-21.301270
14705,0.113281,-0.263184,0.859253,2.929688,-9.277344,-16.723633
14716,0.038818,0.017334,0.758545,0.366211,-8.422852,-14.831543
14726,-0.044189,-0.080811,0.798462,1.953125,-8.117676,-12.817383
14735,-0.087646,-0.305176,0.756714,2.441406,-7.934570,-10.864258
14745,-0.061157,-0.245605,0.923462,0.793457,-7.568359,-9.033203
14754,-0.089844,-0.154175,1.026855,-1.281738,-7.080078,-7.873535
14764,-0.043579,-0.010254,1.001831,-2.441406,-7.080078,-7.324219
14776,-0.084595,-0.013184,0.995117,-0.366211,-6.164551,-7.080078
14786,0.010864,-0.063843,1.074707,0.732422,-5.981445,-8.178711
14795,-0.022949,-0.124512,1.081543,0.854492,-6.469727,-10.620117
14805,-0.036499,-0.038086,1.043823,0.793457,-7.507324,-14.221191
14814,0.008301,0.063965,1.071655,1.708984,-7.995605,-17.883301
14825,-0.052612,-0.238647,0.916260,3.234863,-8.239746,-21.057129
14835,-0.029541,-0.257813,1.005859,3.784180,-8.300781,-23.803711
14844,-0.000244,-0.178833,1.134766,2.929688,-7.446289,-25.634766
14856,-0.032349,-0.026611,1.085449,-0.427246,-5.371094,-26.245117
14866,-0.054932,0.064331,1.063843,-0.366211,-4.516602,-25.817871
14876,-0.139526,-0.143921,0.787354,0.610352,-3.784180,-25.085449
14885,-0.037964,-0.053345,0.936523,1.220703,-2.685547,-24.353027
14895,-0.077637,-0.226807,0.873169,0.854492,-1.831055,-24.169922
14905,-0.068604,-0.115967,0.872681,-0.732422,-1.403809,-24.230957
14915,-0.072388,-0.020630,0.900879,-1.831055,0.000000,-23.437500
14927,-0.044434,0.074463,1.009399,-1.708984,1.098633,-22.277832
14936,-0.019653,-0.136963,0.970215,-1.220703,2.136230,-20.751953
14945,0.002930,-0.044312,1.032227,-1.708984,3.295898,-19.592285
14955,0.047974,0.037842,1.102905,-2.075195,4.211426,-18.493652
14964,0.031860,-0.026855,0.939453,-1.770020,4.577637,-17.883301
14975,0.062256,0.015625,0.970947,-1.342773,4.455566,-17.761230
14984,0.060669,-0.094971,0.892456,-0.854492,4.333496,-18.127441
14996,0.073242,0.062866,1.001953,-0.793457,4.394531,-18.615723
15005,-0.018799,0.062500,0.909058,-0.915527,4.760742,-18.432617
15015,-0.031616,0.031128,0.976318,-0.610352,5.065918,-17.761230
15025,-0.033691,-0.027954,0.910889,-0.305176,5.798340,-16.235352
15036,0.003906,0.016235,0.983643,-0.793457,6.530762,-14.587402
15045,0.014893,0.059326,0.962280,-1.525879,6.652832,-12.939453
15056,0.030884,0.104736,0.970825,-1.892090,7.324219,-8.850098
15066,-0.021362,0.023437,0.910278,-1.342773,7.812500,-6.958008
15075,-0.017578,0.052124,1.061646,-1.220703,8.483887,-5.065918
15085,0.034668,-0.063232,1.017090,-1.770020,8.972168,-3.173828
15096,0.003296,0.054077,1.030518,-2.746582,9.216309,-1.403809
15105,0.032837,0.056885,1.026855,-3.479004,9.033203,-0.366211
15116,0.021973,0.083618,0.990845,-3.845215,8.666992,0.061035
15125,-0.002319,0.064209,1.033936,-3.540039,8.361816,0.244141
15137,-0.052124,0.011108,1.063843,-3.479004,7.995605,-0.122070
15146,-0.060425,-0.035889,1.016968,-3.295898,8.361816,0.183105
15155,-0.050537,0.052612,1.042725,-3.234863,8.666992,0.793457
15165,-0.051147,-0.019775,0.949463,-2.990723,8.666992,2.075195
15175,-0.073975,0.058960,1.052979,-3.234863,8.789063,3.967285
15185,-0.057373,-0.020996,1.025757,-3.356934,9.033203,6.530762
15195,-0.072876,0.116821,1.052612,-3.845215,9.521484,11.047363
15206,-0.072021,0.161133,1.016357,-3.173828,9.460449,12.756348
15216,-0.069702,-0.014038,0.962036,-2.197266,9.643555,14.099121
15226,-0.080322,0.091064,1.040161,-1.525879,9.948730,14.770508
15235,-0.063721,-0.053101,0.978149,-1.098633,9.765625,15.258789
15245,-0.054932,-0.038330,1.016357,-1.098633,9.155273,15.075684
15255,-0.037598,-0.212891,0.914673,-1.281738,8.422852,14.648438
15267,0.013672,-0.015259,0.958740,-1.647949,7.812500,14.282227
15277,0.002075,0.006226,1.010376,-1.281738,7.751465,14.282227
15286,-0.058105,-0.154175,0.919434,-0.732422,7.385254,14.160156
15296,-0.055786,-0.172119,0.951416,-0.793457,7.385254,14.160156
15306,-0.052490,-0.143433,0.999634,-1.159668,7.141113,13.916016
15315,-0.067749,-0.037476,1.050293,-1.525879,6.530762,13.366699
15325,-0.061523,-0.074585,0.949463,-1.403809,6.469727,12.878418
15337,-0.030273,-0.044189,0.973633,-0.427246,5.432129,13.305664
15347,-0.014771,-0.053223,0.991577,-0.122070,5.065918,14.343262
15357,-0.009155,-0.155518,0.896973,-0.305176,5.126953,16.235352
15366,0.033325,-0.185547,0.915649,-0.793457,5.126953,18.310547
15375,0.066772,-0.070435,1.005981,-1.159668,5.126953,19.958496
15385,0.066284,-0.150513,0.948364,-1.586914,4.455566,20.751953
15395,0.080444,-0.103760,0.980713,-1.831055,4.028320,20.812988
15405,0.067993,-0.190674,1.050171,-1.708984,2.807617,18.981934
15416,0.031616,-0.163696,1.047729,-1.220703,0.549316,17.822266
15426,0.022949,-0.134644,1.033936,-0.854492,-0.122070,17.028809
15435,0.078003,-0.211792,1.077148,-0.610352,-0.671387,15.319824
15445,0.074585,-0.227051,0.983887,-0.610352,-1.647949,13.244629
15456,0.080078,-0.200195,0.962036,-0.671387,-2.563477,10.925293
15465,0.044556,-0.209351,0.963379,-0.854492,-3.295898,8.605957
15478,-0.030518,-0.216675,0.928345,-1.281738,-4.760742,3.112793
15487,0.004395,-0.010742,1.159180,-1.037598,-5.493164,0.122070
15496,0.003418,-0.198853,1.025269,-0.305176,-6.225586,-3.112793
15506,-0.008057,-0.070923,1.085938,0.183105,-6.713867,-6.347656
15516,0.046875,-0.284302,1.062866,0.427246,-7.690430,-8.911133
15525,0.073608,-0.207031,1.002197,0.183105,-7.751465,-12.145996
15535,0.062622,-0.173950,0.992798,-0.244141,-7.995605,-14.709473
15547,0.032104,-0.094238,0.977783,-0.671387,-7.202148,-17.517090
15557,0.020142,-0.191406,0.907227,-0.732422,-6.652832,-18.310547
15567,0.020508,-0.022705,1.028931,-0.854492,-6.591797,-19.226074
15577,0.008911,-0.126831,0.894409,-0.854492,-6.408691,-19.897461
15586,0.020996,0.029297,1.058472,-0.915527,-6.103516,-20.324707
15596,0.013306,-0.118774,0.932251,-0.671387,-5.737305,-20.324707
15605,-0.015137,0.025146,1.029053,-1.098633,-5.249023,-19.653320
15615,0.003662,-0.082520,0.957520,-0.793457,-4.394531,-17.944336
15627,0.000244,-0.098511,0.934326,-0.854492,-1.892090,-12.756348
15636,-0.022949,-0.067627,0.953003,-1.220703,-0.854492,-10.192871
15646,-0.040771,-0.085083,0.873169,-1.647949,-0.305176,-7.690430
15656,0.003662,0.015747,0.957764,-1.708984,0.671387,-5.432129
15665,-0.036133,-0.099243,0.863159,-1.892090,0.854492,-3.112793
15675,-0.003906,-0.049805,0.899658,-2.563477,1.220703,-1.098633
15688,-0.021118,-0.015991,0.970093,-3.295898,2.014160,2.746582
15697,-0.039551,0.075439,1.083130,-3.051758,2.197266,3.845215
15706,-0.028198,-0.012695,1.022583,-2.258301,2.014160,4.089355
15716,-0.051270,0.097168,1.087769,-1.525879,2.075195,3.295898
15725,-0.036255,-0.225708,0.955322,-0.488281,2.014160,1.647949
15735,-0.035278,-0.049927,1.081055,-0.427246,1.220703,-1.281738
15745,-0.015747,-0.182251,0.934570,-0.549316,0.244141,-4.394531
15758,-0.006104,-0.147095,1.044678,-0.427246,-0.610352,-9.399414
15767,-0.038696,-0.108398,1.020386,-0.610352,-0.671387,-11.047363
15777,-0.019775,-0.061157,1.028320,-0.793457,-0.183105,-12.023926
15787,0.024414,-0.139404,0.987305,-1.037598,0.305176,-11.962891
15796,0.025391,-0.050171,1.013184,-1.647949,0.854492,-11.230469
15806,0.005249,-0.164429,0.884644,-1.831055,1.708984,-9.887695
15815,0.036011,-0.028198,0.985474,-2.380371,2.441406,-8.544922
15825,-0.008545,-0.068481,0.931030,-2.624512,2.807617,-6.286621
15837,-0.014526,-0.166382,0.915894,-2.746582,2.624512,-5.859375
15846,0.006470,0.024780,1.072754,-3.234863,2.990723,-5.432129
15856,0.012329,-0.011475,1.031494,-3.112793,2.807617,-5.065918
15866,0.026733,0.115967,1.085693,-2.929688,2.807617,-4.882812
15875,0.013672,-0.046753,0.992676,-2.441406,2.685547,-4.089355
15885,0.048584,0.012695,1.098511,-2.075195,2.990723,-3.601074
15898,0.072388,-0.019653,0.982544,-1.525879,3.112793,-3.234863
15907,0.056396,-0.031982,0.997803,-1.831055,3.112793,-3.417969
15917,0.031128,-0.040527,0.985474,-1.770020,2.868652,-3.540039
15926,-0.000244,-0.003662,1.020508,-1.953125,3.173828,-3.417969
15936,0.004517,0.009888,1.000366,-1.586914,2.990723,-2.990723
15945,-0.018677,0.018555,0.979492,-1.220703,2.685547,-2.685547
15955,0.003052,-0.023682,0.930542,-0.976562,2.624512,-2.380371
15968,0.032837,0.067383,1.012085,-0.488281,3.173828,-0.610352
15978,0.007080,0.121704,1.012329,0.549316,3.173828,-0.183105
15987,-0.035645,-0.124146,0.891846,1.159668,3.234863,0.854492
15996,-0.000488,-0.142212,0.958984,1.159668,3.540039,1.770020
16006,-0.012573,-0.045654,0.973877,0.427246,3.601074,2.075195
16015,-0.041748,0.032593,0.948242,-0.305176,3.784180,2.685547
16025,-0.021851,0.022461,0.921265,-0.305176,4.211426,3.662109
16037,-0.021851,-0.176514,0.926025,-0.061035,4.333496,5.493164
16047,-0.080566,-0.201172,0.825317,-0.366211,4.455566,6.164551
16057,-0.042725,-0.001465,0.993164,-1.831055,4.455566,6.835937
16066,-0.040649,-0.023560,1.025513,-2.868652,4.516602,7.629395
16076,-0.057251,0.065308,0.983032,-2.624512,4.455566,7.507324
16086,-0.042236,0.021606,0.939819,-2.075195,4.272461,7.629395
16095,-0.055786,-0.104370,0.965454,-0.915527,4.516602,8.239746
16105,-0.046021,-0.274170,0.908569,-1.586914,4.394531,8.605957
16116,-0.026123,0.048462,0.989380,-4.028320,4.577637,9.338379
16126,0.004639,0.020264,0.958618,-3.540039,4.638672,10.070801
16135,-0.008667,-0.072998,0.947754,-2.380371,4.516602,10.742188
16145,-0.019653,-0.175903,0.917847,-2.014160,4.272461,10.925293
16155,-0.006226,-0.108154,0.974487,-2.441406,4.150391,10.742188
16166,-0.026245,-0.126587,0.966431,-3.417969,4.089355,10.986328
16175,-0.021240,-0.059448,1.010864,-3.173828,3.662109,10.620117
16185,-0.026733,-0.091064,0.981934,-2.868652,3.112793,10.498047
16196,0.010254,-0.193848,0.997925,-2.502441,2.807617,9.521484
16205,0.018799,-0.126587,1.090332,-2.990723,2.502441,8.544922
16215,0.014771,-0.153076,0.977417,-3.540039,2.136230,7.751465
16225,0.066772,-0.038574,1.030762,-3.601074,1.831055,6.835937
16236,0.019653,-0.192383,0.970703,-3.417969,1.708984,6.225586
16245,0.041138,-0.058472,1.104248,-3.723145,1.281738,4.882812
16257,0.029297,0.061279,1.117188,-4.028320,1.098633,3.784180
16266,0.002441,-0.045654,0.982788,-3.723145,0.366211,2.258301
16275,0.007935,0.043335,1.080811,-3.295898,-0.305176,1.098633
16285,0.017212,-0.158447,1.050415,-2.319336,-0.183105,0.305176
16296,0.016357,-0.038330,1.162231,-2.075195,0.000000,-0.366211
16305,0.016724,-0.116821,1.054443,-2.258301,-0.061035,-0.488281
16315,0.019775,0.002686,1.071289,-2.136230,0.366211,-0.305176
16327,0.059814,0.040771,1.100830,-1.770020,0.366211,-0.061035
16336,0.007813,-0.056152,1.009644,-1.464844,0.122070,0.244141
16345,0.047241,0.034180,1.100708,-1.464844,0.305176,0.244141
16356,0.020508,0.010376,1.085327,-1.220703,0.061035,0.610352
16365,0.009521,0.060913,1.066284,-0.732422,-0.061035,1.281738
16375,0.007568,-0.013428,0.970825,0.305176,-0.183105,1.647949
16387,0.051270,-0.100098,0.951050,0.732422,0.244141,2.929688
16397,0.027344,-0.078491,0.900024,0.732422,0.366211,3.234863
16406,0.016968,-0.121948,0.838013,0.122070,0.183105,3.417969
16415,-0.002319,-0.000854,0.975708,-0.427246,0.244141,3.295898
16425,0.015137,-0.132812,0.995728,-0.244141,0.183105,3.479004
16435,-0.038330,0.052612,1.017822,-0.732422,0.244141,3.173828
16445,-0.022095,0.096436,0.937134,-0.488281,0.183105,3.173828
16458,0.016602,-0.033447,0.995605,2.014160,-0.061035,2.929688
16467,0.000488,-0.077393,0.970703,2.441406,-0.549316,2.807617
16477,0.016602,-0.120728,0.966553,2.441406,-0.305176,2.502441
16486,-0.005005,-0.152954,0.921143,2.075195,-0.488281,2.197266
16495,0.029663,-0.066162,0.984009,1.525879,0.122070,2.380371
16505,0.022705,-0.031494,1.034790,1.342773,0.305176,2.502441
16515,-0.001465,0.004517,1.000488,2.075195,0.366211,2.624512
16525,-0.021240,-0.128418,0.957886,2.502441,0.305176,3.540039
16536,-0.006348,-0.077637,1.038574,2.258301,0.000000,3.845215
16546,-0.004761,-0.002197,1.026978,2.563477,-0.122070,3.967285
16555,-0.013916,-0.190063,0.900391,2.624512,-0.122070,4.516602
16565,0.012207,-0.060059,0.981567,2.319336,-0.183105,5.187988
16576,-0.010010,-0.153564,0.947754,2.014160,-0.061035,5.493164
16585,-0.009033,-0.090698,1.043457,1.586914,0.610352,6.286621
16595,-0.046509,-0.240479,0.972534,1.342773,0.732422,7.446289
16607,0.003174,-0.204956,0.981934,0.671387,0.854492,8.056641
16616,0.038452,-0.071045,1.099854,0.427246,0.732422,7.995605
16625,-0.015015,-0.184814,0.947266,0.183105,0.061035,7.568359
16635,0.011353,-0.211182,1.021851,0.000000,-0.122070,6.896973
16646,0.033936,-0.201294,0.981079,-0.427246,-0.488281,6.469727
16655,-0.010864,-0.218018,0.910156,-0.793457,-0.366211,6.408691
16668,0.011108,-0.294800,0.907349,-2.075195,-0.793457,6.347656
16677,0.054565,-0.155762,0.973633,-2.807617,-0.854492,6.164551
16686,0.056519,-0.124634,0.974243,-2.868652,-1.464844,5.187988
16696,0.057007,-0.138916,0.980469,-2.807617,-1.892090,3.967285
16705,0.074341,-0.261108,0.939453,-2.868652,-2.563477,2.746582
16715,0.063843,-0.254517,1.041260,-3.784180,-3.051758,1.098633
16725,0.062256,-0.130493,1.022583,-4.699707,-3.234863,-0.671387
16738,0.045044,0.027588,1.027222,-4.150391,-4.028320,-3.906250
16747,0.063232,-0.080078,0.993408,-2.990723,-4.272461,-5.249023
16757,0.053467,-0.119385,1.002197,-2.441406,-4.699707,-6.347656
16766,0.036377,-0.163086,0.968384,-2.807617,-5.004883,-7.141113
16775,0.066284,-0.124878,0.985474,-3.356934,-4.943848,-7.324219
16785,0.076050,-0.130737,0.917969,-3.784180,-4.150391,-7.141113
16796,0.053955,-0.067017,0.984863,-4.211426,-3.845215,-7.202148
16805,0.045044,-0.110107,0.969727,-4.089355,-2.990723,-6.774902
16817,0.020020,-0.090698,1.054565,-3.967285,-3.295898,-6.896973
16826,0.000610,0.032593,1.135864,-3.967285,-3.845215,-7.202148
16835,-0.041992,-0.018677,0.993774,-3.540039,-3.784180,-7.507324
16845,-0.064575,0.038086,0.984497,-3.112793,-3.601074,-7.751465
16855,-0.096802,0.014893,0.872192,-2.929688,-3.295898,-7.141113
16866,-0.145508,0.075806,0.821289,-3.601074,-1.770020,-5.187988
16875,-0.129150,0.110352,0.869263,-4.699707,2.502441,1.708984
16885,-0.109009,0.269043,1.000366,-4.333496,3.784180,4.760742
16896,-0.012817,0.311646,1.326050,-2.563477,4.089355,6.530762
16905,0.063721,0.156006,1.420166,-0.061035,2.807617,6.896973
16916,0.035889,0.069946,1.381470,2.441406,1.037598,6.286621
16925,-0.000732,-0.017822,1.153564,4.211426,0.061035,6.042480
16935,-0.003052,-0.107910,0.818115,4.272461,0.427246,7.019043
16945,0.017334,-0.155273,0.466064,3.173828,0.549316,9.826660
16956,0.033325,-0.234985,0.234497,1.098633,1.831055,10.986328
16965,0.060425,-0.212402,0.560669,-0.976562,1.892090,11.535645
16976,-0.010498,-0.122437,0.645630,-3.540039,0.915527,10.742188
16985,-0.129272,-0.238770,0.473389,-5.554199,0.366211,9.887695
16995,-0.118164,-0.273682,0.243896,-6.347656,0.427246,10.192871
17005,-0.071167,-0.729248,-0.187012,-6.896973,0.122070,10.742188
17015,-0.085937,-0.900513,-0.149292,-10.742188,0.488281,13.183594
17026,0.128296,-1.265991,-0.802612,-23.681641,0.305176,13.793945
17036,0.324097,-1.087036,-0.046143,-28.686523,0.610352,13.793945
17045,0.424072,-1.192017,0.607422,-33.447266,-0.793457,12.207031
17055,0.385986,-0.950806,0.945923,-39.733887,-3.723145,7.995605
17066,0.345459,-0.161499,1.962769,-42.358398,-6.347656,3.601074
17075,0.262451,0.070679,2.947876,-35.705566,-8.239746,0.671387
17085,0.189697,-0.079590,3.602417,-23.620605,-10.131836,-4.028320
17096,0.027100,-0.620361,2.718018,-2.136230,-12.145996,-5.432129
17106,-0.049194,-1.422607,1.575073,7.324219,-13.000488,-7.324219
17116,-0.078613,-1.696777,0.902954,8.850098,-13.427734,-11.352539
17126,0.018799,-1.276001,0.935425,3.784180,-12.329102,-15.747070
17135,0.110352,-0.960571,1.195801,0.427246,-10.681152,-18.798828
17146,0.020020,-1.073730,1.495239,1.281738,-10.192871,-21.362305
17155,-0.176636,-1.123535,1.699341,5.371094,-7.202148,-29.602051
17165,-0.604614,-0.791626,1.713257,6.164551,-2.807617,-33.325195
17175,-0.544434,1.847778,3.982178,8.605957,2.014160,-33.874512
17185,-1.564697,2.180664,3.731323,21.728516,0.183105,-33.813477
17196,-1.326416,3.965210,3.999512,41.748047,3.479004,-45.288086
17205,-1.092651,3.444336,3.999512,65.002441,7.141113,-42.480469
17216,-0.233398,3.909058,3.515991,78.308105,6.896973,-35.461426
17225,1.271484,3.865601,3.127197,84.106445,28.198242,8.300781
17236,0.700806,1.525269,1.282593,106.201172,19.470215,12.207031
17245,0.106445,1.468384,0.823608,109.313965,10.742188,6.896973
17255,-0.481201,1.300293,0.385010,106.384277,10.375977,9.033203
17265,-0.224365,0.898560,-0.167114,101.135254,14.709473,14.282227
17275,-0.253296,0.537109,-0.459961,95.458984,21.423340,16.723633
17285,-0.334717,0.281006,-0.506104,90.576172,26.306152,19.348145
17295,-0.133545,0.022583,-0.361816,69.335937,32.775879,29.968262
17307,0.202515,-0.299561,-0.336792,67.565918,31.738281,31.494141
17316,0.430664,0.014160,-0.191528,59.570312,27.893066,28.686523
17326,0.568726,0.061279,-0.039429,55.175781,22.155762,26.123047
17335,0.670410,-0.112305,0.128540,53.466797,17.333984,25.024414
17345,0.563354,-0.369385,0.253784,51.391602,12.207031,24.230957
17355,0.531860,-0.463989,0.285645,47.912598,6.835937,22.338867
17365,0.418335,-0.406372,0.210449,43.518066,1.525879,16.052246
17376,0.288818,-0.498413,0.137573,36.865234,-7.812500,14.160156
17386,0.284302,-0.645020,0.099976,33.996582,-12.939453,12.023926
17396,0.219360,-0.769043,0.042603,30.273437,-18.127441,8.850098
17405,0.131958,-0.797852,-0.061157,25.390625,-22.216797,5.371094
17416,0.000488,-0.732788,-0.180298,19.592285,-25.146484,2.380371
17425,-0.107300,-0.781372,-0.295288,13.854980,-26.733398,-0.061035
17438,-0.169678,-0.872314,-0.356689,3.051758,-27.099609,-2.807617
17447,-0.147339,-0.938965,-0.386475,-3.112793,-25.878906,-2.807617
17457,-0.043701,-0.946533,-0.450806,-10.009766,-24.841309,-1.953125
17467,-0.023315,-0.860718,-0.509399,-17.089844,-24.047852,-0.305176
17476,-0.065430,-0.836060,-0.525757,-23.681641,-22.827148,1.953125
17486,-0.115845,-0.864380,-0.508667,-30.029297,-21.789551,4.211426
17496,-0.198120,-0.974609,-0.483032,-36.315918,-20.507812,6.164551
17505,-0.263550,-0.880005,-0.449585,-49.560547,-15.686035,7.934570
17517,-0.305664,-0.844727,-0.503540,-56.274414,-12.451172,8.422852
17526,-0.280151,-0.728882,-0.509277,-62.744141,-9.338379,8.422852
17536,-0.250610,-0.680786,-0.505493,-68.481445,-6.408691,8.239746
17545,-0.248169,-0.667236,-0.500610,-74.279785,-3.723145,8.422852
17555,-0.200806,-0.644653,-0.506836,-79.956055,-0.976562,8.605957
17565,-0.119019,-0.622803,-0.558960,-86.120605,1.037598,8.300781
17575,-0.126953,-0.640747,-0.631226,-98.449707,4.760742,7.446289
17587,-0.030151,-0.541504,-0.756958,-104.370117,6.042480,7.141113
17596,0.018799,-0.382202,-0.807983,-110.595703,7.019043,5.981445
17606,0.050659,-0.386475,-0.888184,-116.577148,7.812500,4.028320
17615,0.107910,-0.348267,-0.953857,-122.619629,7.873535,1.525879
17626,0.260620,3.760742,2.338745,-130.126953,8.483887,-2.258301
17635,0.525146,3.999512,3.999512,-100.341797,9.887695,-4.150391
17647,-0.333130,-3.999512,-0.655884,-26.611328,-0.671387,5.187988
17657,0.846436,2.395386,1.955200,-84.289551,8.239746,-5.493164
17667,-0.013916,3.999512,3.021606,-90.332031,-2.929688,-15.869141
17676,0.025269,2.329468,1.740479,-22.399902,-19.104004,-13.732910
17686,0.031616,-1.564331,1.710449,17.517090,-23.376465,-14.709473
17696,0.610352,1.279419,3.999512,-16.235352,-13.244629,-25.207520
17705,0.246338,-0.690552,2.472412,-17.150879,-11.840820,-19.714355
17715,1.024048,0.634399,2.522705,-12.023926,-6.713867,-4.882812
17726,0.447754,0.225952,1.161621,5.004883,-3.967285,-1.831055
17736,0.015869,-1.250122,1.919067,11.657715,-5.676270,-4.089355
17745,-0.450073,-1.103394,2.292969,2.380371,-9.460449,-13.732910
17755,-0.347656,-0.152588,1.560425,-11.108398,-8.911133,-18.249512
17765,0.020020,0.817505,1.018433,-15.441895,-7.202148,-16.906738
17775,-0.003784,0.731079,1.265259,-4.821777,-11.169434,-18.554687
17787,-0.065918,-0.577759,1.830200,10.375977,-10.681152,-14.953613
17797,-0.141968,-0.343262,1.636230,7.263184,-6.347656,-10.192871
17807,-0.337524,0.267212,1.057495,6.042480,-3.845215,-7.324219
17817,-0.441040,0.495605,0.791748,10.070801,-0.854492,-2.563477
17827,-0.368286,0.131226,0.855957,17.761230,2.075195,3.417969
17836,-0.376587,-0.173096,1.098633,22.033691,3.784180,7.019043
17845,-0.389771,-0.175537,1.189453,20.202637,4.943848,8.605957
17858,-0.508423,0.117065,0.582275,14.526367,5.981445,10.803223
17867,-0.448608,0.234741,0.420898,16.906738,7.690430,11.718750
17876,-0.294556,0.039185,0.480713,19.287109,10.314941,14.770508
17886,-0.182861,-0.231567,0.548462,18.737793,11.718750,17.089844
17895,-0.236328,-0.080933,0.643066,16.052246,11.291504,16.418457
17905,-0.284668,0.083130,0.703491,13.549805,10.742188,15.075684
17915,-0.260498,0.037476,0.671997,12.695313,11.718750,15.686035
17925,-0.129395,-0.223267,0.647705,12.695313,13.366699,18.676758
17936,-0.020508,-0.321655,0.725586,8.239746,14.404297,18.920898
17946,-0.037476,-0.207153,0.805420,4.577637,13.732910,19.531250
17955,-0.038940,-0.140503,0.769287,1.892090,13.549805,20.629883
17965,-0.001343,-0.062988,0.618042,1.281738,13.854980,22.155762
17975,0.087646,-0.125122,0.604004,1.403809,13.549805,23.925781
17985,0.062988,-0.223633,0.592285,0.549316,12.145996,25.268555
17995,0.025513,-0.173096,0.836060,-1.159668,10.681152,26.977539
18006,0.104126,0.021606,1.156006,-2.319336,9.826660,28.259277
18016,0.116089,0.013184,1.098389,-1.281738,8.911133,28.564453
18025,0.122192,-0.156372,0.991699,0.305176,7.263184,27.709961
18035,0.090088,-0.197998,1.018188,0.549316,5.554199,26.489258
18045,0.097900,-0.224487,1.063232,0.427246,4.455566,24.963379
18056,0.069580,-0.190430,1.092773,-0.427246,2.868652,23.193359
18065,0.122314,-0.126587,0.983521,-0.732422,1.281738,21.240234
18077,0.204712,-0.043701,0.809937,-0.183105,1.098633,22.155762
18086,0.246582,-0.121216,0.874390,-0.061035,0.793457,23.559570
18095,0.166260,-0.147339,1.037964,-0.488281,-0.427246,24.353027
18105,0.109497,-0.051880,1.192993,-1.220703,-1.770020,24.047852
18115,0.058594,-0.062256,1.272095,-1.708984,-2.502441,23.132324
18125,0.015137,-0.041870,1.154541,-0.915527,-3.356934,21.606445
18135,-0.018066,0.017090,1.051514,0.000000,-4.211426,19.226074
18146,-0.016846,-0.056641,1.140747,1.220703,-6.164551,17.578125
18156,-0.047241,-0.115967,1.094238,1.464844,-6.896973,15.869141
18165,-0.038940,-0.089966,1.041138,1.342773,-7.385254,13.977051
18175,-0.027100,-0.131714,0.948853,1.220703,-7.568359,11.962891
18186,-0.004517,-0.127930,0.923584,0.915527,-7.629395,9.399414
18195,0.016724,-0.101563,0.945435,0.366211,-8.422852,6.042480
18205,0.024780,-0.132324,0.930786,-0.183105,-10.192871,-2.380371
18216,0.005005,-0.089233,0.957520,-0.854492,-10.803223,-6.591797
18226,-0.005859,-0.098389,0.900391,-1.098633,-10.803223,-9.765625
18236,-0.017578,-0.067139,0.914551,-1.037598,-10.803223,-12.573242
18245,-0.019409,-0.037354,0.963501,-1.098633,-10.620117,-15.197754
18255,-0.041260,0.003174,1.018921,-1.464844,-10.192871,-16.723633
18265,-0.011719,-0.045166,0.967407,-1.220703,-9.826660,-18.127441
18277,-0.034668,-0.016479,0.952271,-0.976562,-9.216309,-18.798828
18286,0.024780,-0.055298,0.945190,-0.183105,-7.568359,-18.981934
18296,0.025635,-0.110107,0.987671,-0.183105,-7.080078,-19.287109
18305,0.040649,-0.074219,1.008545,-0.488281,-6.408691,-19.348145
18315,0.033936,-0.044189,1.006104,-0.488281,-6.347656,-19.714355
18326,0.003662,-0.130371,0.951050,-0.427246,-5.920410,-19.714355
18335,-0.012329,-0.150269,1.012085,-0.549316,-5.371094,-19.409180
18347,-0.040405,-0.081787,1.085327,-0.793457,-4.455566,-17.578125
18357,-0.029663,-0.090332,1.046997,-1.342773,-2.685547,-15.686035
18367,-0.028076,-0.069214,0.981445,-1.708984,-1.953125,-13.122559
18376,0.025757,-0.024780,0.913818,-1.770020,-1.281738,-10.131836
18386,0.044922,-0.057617,0.907837,-1.464844,-0.854492,-7.629395
18396,0.063599,-0.098022,0.956299,-1.281738,-0.549316,-5.432129
18405,0.075684,-0.130371,0.987427,-1.708984,-0.305176,-3.662109
18417,0.064697,-0.043945,1.028076,-1.892090,-0.244141,-2.014160
18426,0.055298,-0.051392,1.050293,-1.770020,-0.122070,-1.586914
18436,0.038208,-0.025146,1.033691,-1.220703,0.000000,-1.708984
18445,0.006470,-0.116333,0.980347,-0.915527,-0.183105,-2.258301
18455,-0.011108,-0.063110,1.045776,-0.732422,-0.427246,-2.929688
18466,-0.038086,-0.124146,1.014160,-0.732422,-0.854492,-3.295898
18475,-0.010498,-0.060669,1.001587,-1.037598,-0.854492,-3.417969
18487,-0.047485,-0.086548,0.978516,-1.037598,-0.915527,-2.685547
18496,-0.016235,-0.114380,0.874878,-1.525879,-0.488281,-2.075195
18506,0.006104,-0.101929,0.861572,-2.075195,-0.305176,-1.586914
18515,-0.005371,-0.072754,0.919434,-2.746582,-0.366211,-1.403809
18525,-0.001099,-0.014038,1.027344,-3.234863,-0.671387,-1.647949
18536,-0.002808,-0.025269,0.992554,-3.112793,-0.427246,-2.258301
18546,0.008179,0.016479,1.029541,-2.685547,-0.427246,-2.380371
18555,-0.022827,-0.088379,1.001831,-2.868652,-0.305176,-3.173828
18567,-0.046387,0.067505,1.094604,-2.746582,-0.061035,-3.112793
18576,0.006592,-0.007690,1.047607,-1.953125,0.488281,-2.380371
18586,-0.041138,-0.023682,1.011353,-1.342773,0.488281,-1.953125
18596,-0.031860,-0.078003,0.944702,-0.793457,0.610352,-1.647949
18605,-0.017334,-0.114258,0.944458,-1.220703,0.610352,-1.342773
18615,0.001831,-0.090088,0.954590,-1.953125,0.427246,-1.586914
18628,-0.020996,-0.086548,0.739868,-2.563477,0.366211,-2.380371
18637,0.008423,-0.128906,0.828125,-3.173828,0.732422,-2.441406
18647,0.028320,-0.099243,0.942261,-3.906250,0.732422,-3.051758
18657,-0.011597,-0.061768,0.929932,-4.028320,0.915527,-3.540039
18666,-0.019775,-0.043823,0.995605,-4.211426,1.281738,-3.112793
18676,0.006592,-0.086304,1.046265,-4.333496,1.831055,-1.953125
18685,-0.035400,-0.047485,0.971069,-4.028320,2.197266,-0.976562
18695,-0.033813,-0.037598,0.970093,-4.272461,2.258301,1.525879
18707,-0.041992,-0.118042,0.975586,-4.577637,2.258301,2.624512
18716,-0.026978,-0.080078,0.946899,-4.821777,2.380371,3.662109
18725,-0.019653,-0.071655,0.937988,-4.882812,2.563477,4.516602
18735,-0.040649,-0.059448,0.984741,-5.004883,2.807617,5.310059
18746,0.001953,-0.069824,1.017334,-4.699707,2.746582,5.981445
18755,-0.009521,-0.062866,1.058228,-4.516602,3.051758,5.981445
18767,-0.029785,-0.073853,1.021362,-4.333496,3.112793,6.347656
18776,-0.030029,-0.101440,1.011108,-3.356934,2.868652,5.981445
18786,-0.003052,-0.099731,1.051636,-3.356934,2.868652,5.920410
18795,-0.017456,-0.116577,1.044067,-3.417969,2.441406,5.676270
18805,-0.024658,-0.095337,0.983643,-3.723145,1.953125,4.943848
18815,-0.009277,-0.135376,0.967529,-3.845215,2.197266,4.882812
18826,0.015259,-0.141113,0.991577,-4.089355,1.892090,4.821777
18835,-0.050659,-0.037109,1.035522,-4.211426,1.647949,4.150391
18847,-0.033325,-0.053345,1.096313,-3.967285,1.464844,3.723145
18856,-0.011230,-0.000122,1.074829,-3.784180,1.281738,2.868652
18866,-0.032715,-0.035400,1.060547,-3.173828,1.220703,1.770020
18875,-0.042358,0.002808,1.052246,-2.380371,1.159668,0.549316
18886,-0.042847,-0.038086,0.965454,-1.647949,1.342773,-0.427246
18895,-0.006348,-0.032959,1.012695,-1.281738,1.098633,-1.342773
18905,-0.013550,-0.042969,1.052734,-1.037598,1.342773,-3.173828
18918,-0.001587,-0.040771,1.035400,-1.220703,0.793457,-3.784180
18928,0.005249,-0.145264,0.965698,-1.220703,1.037598,-4.089355
18938,0.035889,-0.116577,1.022583,-1.403809,1.892090,-4.699707
