timestamp,accX,accY,accZ,gyrX,gyrY,gyrZ
10,-0.039673,-0.076782,0.963379,-2.136230,3.723145,-4.089355
20,-0.028687,-0.134888,0.956421,-2.197266,4.089355,-4.577637
30,-0.020874,-0.118896,0.945190,-2.197266,4.089355,-5.249023
42,-0.038086,-0.050415,0.984497,-2.136230,3.723145,-6.225586
51,0.014038,-0.116821,0.979126,-1.831055,2.685547,-6.286621
61,0.047974,-0.113525,0.946655,-1.525879,2.624512,-6.103516
71,-0.000488,-0.110229,0.950928,-1.708984,2.807617,-5.737305
81,0.038208,-0.088745,0.963623,-1.831055,2.990723,-5.187988
90,0.028809,-0.111328,1.005127,-1.281738,2.929688,-4.638672
100,-0.004883,-0.131470,0.969604,-1.037598,2.502441,-4.333496
112,-0.044434,-0.104126,0.993774,-1.281738,2.441406,-2.868652
121,-0.029907,-0.093750,1.002808,-1.220703,2.746582,-2.014160
131,-0.047119,-0.091187,0.986450,-0.915527,3.295898,-1.220703
140,-0.057007,-0.055420,1.005737,-1.525879,3.601074,-1.159668
150,-0.062500,-0.029663,1.040894,-1.831055,3.662109,-1.098633
160,-0.028564,0.029785,1.096924,-1.770020,3.295898,-1.098633
171,-0.046021,0.052368,1.063599,-1.159668,2.929688,-0.488281
180,-0.064697,-0.052734,0.961914,-0.732422,2.746582,0.122070
192,-0.067871,-0.044922,0.952271,-0.671387,3.601074,0.366211
201,-0.069824,-0.050171,0.959961,-1.037598,4.455566,-0.488281
210,-0.058472,-0.026367,1.040283,-0.671387,3.723145,-1.586914
220,-0.051025,-0.083618,0.972534,-0.488281,2.929688,-3.295898
230,-0.004639,-0.158569,0.940918,-0.488281,3.112793,-4.699707
241,-0.007446,-0.053711,1.063232,-0.854492,3.295898,-5.798340
250,0.037964,0.026123,1.083496,-0.976562,2.929688,-6.713867
262,0.024048,-0.008057,1.035889,-0.610352,2.380371,-6.591797
271,-0.013306,-0.056885,0.988037,0.366211,2.563477,-5.371094
281,-0.031982,-0.107178,0.916626,0.305176,3.112793,-4.333496
290,-0.046143,-0.092407,0.942139,0.366211,3.662109,-3.845215
300,-0.024780,-0.095337,0.901611,0.244141,3.601074,-4.028320
311,-0.008789,-0.137939,0.886719,-0.244141,3.417969,-4.821777
320,-0.005737,-0.093140,0.978638,-0.793457,3.112793,-5.615234
330,0.054443,-0.012695,1.004395,-1.098633,2.319336,-5.981445
342,0.097168,0.004883,1.081665,-1.159668,1.953125,-5.004883
351,0.066772,0.054321,1.058716,-0.854492,1.770020,-2.807617
360,0.049438,0.006470,1.012451,-0.671387,2.075195,-0.610352
370,0.030396,0.007080,1.047852,-0.793457,2.807617,1.586914
380,0.029053,0.058228,1.052612,-0.793457,2.807617,3.417969
390,-0.003662,-0.026855,1.008057,-0.488281,2.502441,4.577637
402,-0.030396,-0.036011,0.963867,-0.305176,2.319336,4.821777
411,-0.003906,-0.073608,0.958252,-0.488281,1.953125,4.150391
421,-0.040283,-0.033081,0.921021,-0.915527,1.708984,3.540039
430,0.033447,-0.078491,1.013184,-0.854492,1.770020,4.333496
440,0.082886,-0.074707,0.966431,-0.854492,1.647949,4.272461
450,0.001221,-0.081299,1.008179,-0.549316,1.098633,4.638672
460,-0.025146,-0.084473,0.981689,-0.427246,0.610352,4.638672
470,-0.026001,-0.068115,0.934326,-0.366211,0.366211,3.601074
481,-0.075317,-0.120605,0.918945,-0.488281,0.183105,3.112793
491,-0.085815,-0.109619,0.950806,-0.976562,0.061035,1.892090
500,-0.124023,-0.082764,0.916382,-1.586914,0.061035,0.488281
510,-0.114868,-0.048340,0.981934,-1.586914,0.366211,-1.403809
521,-0.171265,-0.074341,0.973022,-1.525879,0.549316,-3.662109
530,-0.190918,-0.081299,0.967651,-1.464844,0.488281,-5.981445
540,-0.175537,-0.121460,1.082153,-1.098633,1.647949,-9.277344
550,-0.233887,-0.098877,1.057373,-0.854492,2.502441,-10.620117
561,-0.171875,-0.093140,1.074707,-0.793457,3.234863,-11.840820
570,-0.201660,-0.043579,1.022461,-0.671387,3.845215,-12.268066
580,-0.203125,-0.053223,1.038086,-0.122070,5.004883,-12.084961
590,-0.218750,-0.077148,1.008667,0.122070,6.164551,-12.023926
600,-0.203857,-0.065674,1.018677,0.366211,7.446289,-11.230469
610,-0.170532,-0.040405,1.035522,0.976562,8.972168,-11.352539
621,-0.137207,-0.139038,0.959351,0.854492,9.887695,-10.620117
631,-0.063232,-0.136353,0.969116,0.549316,10.681152,-10.437012
640,-0.052124,-0.124023,1.005737,0.183105,11.474609,-10.498047
650,-0.012573,-0.093384,0.996582,-0.488281,11.840820,-9.826660
660,0.045532,-0.035400,1.085815,-0.854492,11.901855,-8.911133
671,0.033691,0.094238,1.071411,-0.854492,12.207031,-7.324219
680,0.048584,0.075806,0.959106,-0.488281,14.709473,1.586914
691,0.018066,0.099121,0.963623,-0.366211,16.601562,8.422852
700,0.059937,0.085815,1.036377,-0.488281,17.639160,13.854980
710,0.035522,0.046265,1.027100,-0.549316,17.517090,18.310547
720,0.023193,0.033813,0.994751,-0.366211,16.662598,20.996094
730,0.009277,0.026978,0.940308,-0.061035,16.357422,21.911621
740,-0.056763,-0.005615,0.941040,-0.244141,16.296387,22.277832
752,-0.061157,0.129639,1.018799,-0.854492,16.418457,23.559570
761,-0.131592,0.104004,1.059814,-0.976562,15.441895,23.986816
771,-0.263428,0.129272,1.154053,-0.976562,14.587402,23.864746
780,-0.118530,-0.331055,1.104370,-1.037598,15.380859,23.559570
790,0.466675,-0.247681,1.267700,-2.075195,15.869141,24.230957
800,0.213257,0.051514,1.454956,-3.540039,11.291504,25.817871
810,-0.330566,0.360107,1.120605,-2.380371,7.141113,27.648926
822,0.273682,-0.019165,0.635620,4.516602,15.869141,30.212402
832,0.574463,-0.516479,0.780029,4.272461,19.226074,30.700684
841,0.303589,-0.486450,0.895142,0.915527,15.930176,25.756836
851,-0.130249,-0.209351,1.096313,-2.563477,10.009766,18.798828
860,-0.310913,-0.067871,1.179810,-2.807617,5.493164,12.573242
870,-0.478271,-0.170410,1.152466,-0.732422,3.906250,7.690430
882,-0.402100,-0.328491,1.088501,0.671387,9.277344,4.943848
891,-0.041626,-0.353394,0.853027,0.122070,10.009766,4.272461
902,0.006714,-0.395630,0.726562,0.366211,8.300781,2.990723
911,0.043091,-0.416748,0.709229,0.854492,6.774902,2.258301
920,0.028442,-0.433838,0.745117,0.976562,6.774902,2.380371
931,0.092285,-0.466064,0.887939,0.244141,7.385254,2.990723
941,0.160645,-0.415405,0.970093,-1.098633,8.850098,3.234863
952,0.156494,-0.396484,1.053101,-1.770020,9.155273,4.516602
961,-0.005127,-0.503784,0.977417,-1.220703,8.422852,4.699707
972,-0.020630,-0.454712,1.065308,-0.671387,7.934570,4.577637
981,0.022705,-0.494385,1.033203,-0.793457,7.690430,3.967285
990,0.141724,-0.453369,1.126465,-1.525879,7.507324,3.845215
1000,0.213501,-0.410767,1.024048,-1.525879,7.202148,3.967285
1010,0.247192,-0.410767,0.912598,-0.976562,7.446289,4.760742
1020,0.328125,-0.449707,0.943237,0.305176,7.263184,6.042480
1031,0.297241,-0.494507,1.078369,1.220703,6.652832,8.178711
1041,0.188232,-0.544434,0.970215,0.671387,4.333496,8.483887
1050,0.194946,-0.468506,0.957031,0.000000,3.234863,7.812500
1060,0.159424,-0.425537,1.020142,-0.427246,1.770020,6.958008
1071,0.110474,-0.398193,1.017456,-0.671387,0.122070,5.554199
1080,0.082520,-0.358765,0.968628,-0.549316,-1.159668,4.089355
1092,0.101807,-0.316772,0.911743,-0.732422,-2.624512,2.563477
1101,0.228760,-0.316528,0.859009,-0.732422,-2.685547,2.868652
1112,0.189453,-0.271118,0.785278,-1.098633,-3.173828,3.479004
1121,0.144409,-0.206055,0.775879,-1.586914,-3.479004,3.784180
1130,0.159058,-0.230103,0.836304,-1.586914,-3.234863,3.540039
1141,0.157959,-0.209351,1.010254,-1.708984,-3.601074,2.929688
1150,0.077515,-0.246338,0.968140,-2.319336,-4.455566,2.197266
1163,0.056396,-0.076416,1.087280,-3.051758,-5.310059,-0.183105
1173,0.053833,-0.059937,1.087769,-3.295898,-5.615234,-0.671387
1182,0.100952,0.201538,1.112061,-3.723145,-5.676270,0.122070
1192,0.148682,0.066650,1.053955,-3.540039,-5.981445,2.075195
1201,0.255493,0.215576,1.073975,-3.112793,-5.859375,5.065918
1211,0.327515,0.177002,1.151978,-2.868652,-6.103516,8.789063
1220,0.352051,0.106079,1.014526,-2.624512,-6.713867,12.695313
1233,0.370728,0.118408,1.118652,-1.708984,-9.216309,18.981934
1243,0.351440,0.146240,1.102295,-1.159668,-9.887695,21.423340
1252,0.339233,0.122070,1.051147,-0.732422,-10.131836,23.376465
1261,0.280518,-0.000977,0.960815,-0.671387,-11.047363,24.108887
1271,0.284180,0.131104,0.986572,-0.915527,-12.268066,23.925781
1280,0.285400,0.033325,0.969971,-0.610352,-14.099121,22.705078
1291,0.275513,0.062012,1.051025,-0.671387,-16.174316,20.080566
1300,0.242310,-0.032227,0.967407,-0.427246,-18.188477,1.220703
1310,0.196655,0.056030,1.035645,0.244141,-21.911621,10.253906
1322,0.163696,0.022827,1.035034,-0.122070,-23.620605,6.958008
1331,0.083862,-0.008179,0.990234,-0.671387,-24.658203,3.601074
1340,0.091797,0.013794,0.964722,-1.159668,-25.329590,0.610352
1351,0.033325,0.045288,0.974976,-1.586914,-25.329590,-2.075195
1361,0.012939,0.030884,0.919556,-2.075195,-25.512695,-4.760742
1373,-0.040649,-0.050049,0.925659,-3.479004,-25.512695,-10.864258
1383,-0.098145,0.015137,0.950439,-4.333496,-25.634766,-15.014648
1393,-0.115479,-0.046875,0.912720,-4.394531,-25.756836,-20.202637
1402,-0.156006,-0.143066,0.944580,-4.150391,-25.634766,-25.390625
1412,-0.196777,-0.191406,0.929810,-4.089355,-25.207520,-31.066895
1422,-0.144287,-0.082031,0.996460,-3.906250,-24.230957,-36.071777
1432,-0.135376,-0.165649,0.897461,-3.356934,-23.132324,-39.733887
1441,-0.046387,-0.146606,1.004517,-2.014160,-21.057129,-43.640137
1451,-0.038330,-0.162598,0.959595,-1.342773,-20.019531,-43.579102
1460,0.058350,-0.196289,0.995850,-0.976562,-18.676758,-42.297363
1471,0.166016,-0.175903,1.035889,-0.793457,-17.456055,-39.978027
1481,0.235107,-0.204224,0.999390,-0.244141,-16.723633,-37.231445
1490,0.196777,-0.226318,0.949707,0.183105,-16.418457,-34.179687
1501,0.145142,-0.260742,0.999634,0.244141,-15.808105,-30.761719
1510,0.087280,-0.302490,1.011597,-0.305176,-14.465332,-27.221680
1522,0.116089,-0.141479,0.953857,-0.915527,-12.756348,-19.775391
1532,0.142822,-0.036255,0.909302,-0.366211,-12.207031,-15.930176
1541,0.158691,-0.210327,0.944214,0.671387,-11.779785,-11.657715
1550,0.164062,-0.336182,0.974121,0.976562,-11.352539,-7.446289
1561,0.109985,-0.361328,1.057739,0.183105,-11.352539,-4.089355
1571,0.013550,-0.330444,1.051270,-1.647949,-11.657715,-1.159668
1580,-0.035034,-0.201538,1.030518,-2.807617,-11.901855,0.976562
1590,-0.044922,-0.206421,0.994995,-1.037598,-11.413574,3.906250
1601,-0.119385,-0.359253,0.894043,0.000000,-11.291504,4.882812
1611,-0.193115,-0.480347,0.855591,-0.122070,-11.108398,5.615234
1621,-0.294067,-0.463379,0.928345,-1.037598,-10.925293,5.493164
1631,-0.300415,-0.383057,1.004517,-2.075195,-10.192871,5.493164
1641,-0.328857,-0.429443,0.895630,-2.502441,-9.338379,5.126953
1650,-0.285034,-0.302734,0.923096,-2.197266,-8.483887,4.882812
1662,-0.226807,-0.481323,1.011230,-0.549316,-6.896973,3.662109
1672,-0.231323,-0.330933,0.998535,-0.366211,-6.835937,2.014160
1681,-0.254272,-0.303955,1.016235,-0.183105,-6.713867,0.305176
1691,-0.289917,-0.387207,0.929443,0.427246,-6.225586,-1.586914
1701,-0.243896,-0.281006,0.971069,1.037598,-6.103516,-3.845215
1711,-0.271973,-0.227417,0.938599,1.770020,-5.493164,-5.859375
1723,-0.216187,-0.247925,0.952637,1.953125,-3.662109,-7.629395
1732,-0.175781,-0.094971,0.946167,1.831055,-3.051758,-8.178711
1742,-0.225830,-0.168823,1.003784,1.220703,-2.197266,-8.239746
1752,-0.123413,-0.149780,1.066040,0.610352,-1.220703,-8.361816
1761,-0.091553,-0.063110,1.110596,-0.122070,-1.159668,-8.972168
1771,-0.102905,-0.048706,1.087524,-0.610352,-1.159668,-10.437012
1781,-0.166016,-0.124878,0.969971,-0.244141,-1.220703,-12.268066
1793,-0.137207,0.095215,1.001343,-0.244141,-0.061035,-15.075684
1803,-0.151001,0.030273,1.109131,-0.610352,0.183105,-16.662598
1812,-0.137085,-0.060181,1.070923,-0.732422,0.366211,-18.127441
1822,-0.180054,-0.009399,1.033691,-0.793457,0.732422,-18.615723
1831,-0.181274,0.102417,1.060425,-0.366211,1.342773,-18.676758
1841,-0.186157,0.145264,1.072144,0.183105,2.990723,-17.639160
1850,-0.141235,-0.027100,1.015747,0.366211,5.004883,-15.502930
1863,-0.112305,-0.012207,0.936890,-0.671387,7.019043,-11.901855
1872,-0.131470,-0.029297,0.967529,-1.098633,7.324219,-10.253906
1882,-0.142090,-0.134644,0.843140,-1.464844,7.751465,-9.155273
1891,-0.105103,0.005249,0.994385,-2.014160,8.117676,-8.483887
1901,-0.084351,0.042603,1.023682,-2.136230,8.117676,-8.056641
1910,-0.075684,-0.192505,0.942627,-1.770020,8.056641,-7.324219
1921,-0.068115,-0.261108,0.814941,-1.525879,8.300781,-6.469727
1931,-0.019043,-0.226929,0.748779,-3.051758,9.643555,-3.967285
1941,-0.026245,-0.285034,0.786621,-4.516602,9.521484,-3.479004
1951,-0.005371,-0.136597,0.898804,-5.737305,9.277344,-4.638672
1961,0.001709,0.018921,1.078491,-6.042480,8.666992,-6.103516
1970,0.012939,0.020020,1.147339,-4.638672,7.751465,-7.934570
1981,0.081421,-0.174194,1.064575,-2.502441,6.347656,-10.498047
1991,0.100342,-0.327759,1.065796,-2.014160,5.432129,-12.939453
2000,0.060303,-0.234863,1.152100,-2.807617,5.371094,-14.404297
2012,0.066528,0.016846,0.966431,-3.173828,5.859375,-16.540527
2022,0.042603,0.117065,0.887451,-2.258301,6.042480,-16.906738
2031,0.050781,0.013550,0.902954,-1.220703,5.798340,-16.967773
2040,0.093384,-0.071289,1.026855,-0.732422,5.554199,-17.883301
2051,0.148193,-0.127197,1.162231,-1.098633,5.249023,-18.493652
2060,0.186523,-0.149170,1.174683,-2.075195,4.821777,-18.737793
2073,0.139648,-0.002563,0.985229,-2.258301,4.455566,-18.554687
2083,0.146606,0.003540,0.941528,-1.342773,4.699707,-18.371582
2092,0.069336,-0.034790,1.030518,-1.037598,5.004883,-18.371582
2102,0.018799,-0.003174,1.107056,-1.403809,4.943848,-18.432617
2111,0.005737,-0.004883,1.064697,-0.793457,4.638672,-17.883301
2121,0.009766,0.116455,1.151245,-0.366211,4.455566,-16.357422
2130,0.089233,-0.144165,1.094360,0.061035,4.577637,-14.648438
2143,0.137695,-0.068359,1.001221,-1.525879,5.676270,-8.422852
2153,0.178833,0.213257,1.059448,-2.624512,6.103516,-5.737305
2163,0.090454,0.103149,0.880615,-2.197266,6.591797,-3.234863
2172,-0.007324,0.009644,0.736450,-0.915527,6.652832,-1.525879
2182,-0.038208,0.061279,0.842529,0.244141,6.286621,-1.220703
2191,-0.122559,-0.013184,0.891479,0.122070,5.615234,-2.075195
2201,-0.161255,-0.130493,0.895874,-0.915527,4.821777,-3.540039
2210,-0.142578,0.082520,0.933228,-2.441406,4.272461,-5.920410
2222,-0.101929,0.105713,0.867798,0.061035,5.187988,-5.310059
2231,-0.080322,0.023193,0.909058,1.464844,5.859375,-3.601074
2241,-0.058228,0.053223,1.152466,1.953125,6.774902,-1.403809
2251,-0.066895,-0.103638,1.143677,1.892090,7.812500,1.281738
2261,-0.092407,-0.072388,1.044922,1.586914,8.911133,3.662109
2271,-0.093140,0.142822,1.056885,1.647949,9.460449,5.676270
2283,-0.131470,-0.182983,1.016724,3.845215,9.582520,7.690430
2293,-0.148682,-0.056885,1.085571,3.967285,9.460449,7.934570
2303,-0.159058,-0.054077,1.156006,3.173828,9.033203,7.812500
2312,-0.196533,-0.276855,0.967896,2.685547,9.155273,7.812500
2322,-0.124390,-0.139282,0.953003,2.136230,9.277344,7.995605
2331,-0.062988,0.123535,1.121460,2.136230,9.277344,8.483887
2341,-0.044189,-0.140625,1.094482,2.563477,9.460449,9.033203
2351,-0.039063,-0.282104,1.063110,2.380371,9.582520,9.155273
2362,0.040894,0.041016,1.226074,1.770020,9.643555,9.094238
2371,-0.024536,-0.142456,1.079712,2.258301,9.216309,8.483887
2381,0.000488,-0.105591,1.028320,3.051758,8.483887,7.934570
2391,-0.010864,0.079102,1.122803,3.723145,7.873535,7.629395
2401,-0.010864,-0.188232,1.005371,3.479004,7.019043,7.080078
2411,-0.033325,-0.338989,0.829590,2.441406,6.652832,7.141113
2421,0.036499,0.096313,0.990112,0.488281,6.225586,8.239746
2432,0.018188,-0.096436,0.778809,0.549316,6.103516,9.033203
2442,-0.002808,0.030273,1.079956,0.671387,6.164551,10.192871
2451,-0.001831,0.391357,1.432861,0.854492,5.676270,10.620117
2462,-0.058105,0.252686,1.351318,2.258301,5.737305,10.437012
2471,-0.182251,0.039185,0.948486,4.760742,5.676270,10.864258
2482,-0.048706,-0.084839,0.803345,6.347656,5.554199,11.352539
2491,-0.067383,-0.298340,0.559692,4.333496,4.150391,12.573242
2503,0.024658,-0.215820,0.620239,0.244141,4.028320,13.305664
2512,0.038208,0.044556,0.765869,-2.441406,3.845215,14.648438
2521,0.010620,0.388428,1.106201,-2.746582,3.723145,14.953613
2531,0.010254,0.205322,1.168701,-0.061035,3.417969,14.831543
2542,-0.091064,-0.260742,0.921387,2.929688,2.929688,14.831543
2551,-0.073730,-0.402344,0.875000,2.441406,2.868652,14.892578
2563,-0.044922,-0.043579,0.979370,-1.098633,2.624512,14.465332
2572,-0.032227,0.252686,1.156128,-4.638672,1.586914,13.305664
2582,-0.038574,0.092896,1.196045,-2.258301,1.220703,11.962891
2591,-0.029663,-0.201538,1.048096,0.183105,0.793457,10.009766
2601,-0.028809,-0.259521,1.043945,0.244141,0.122070,7.690430
2611,0.022339,-0.047607,1.194702,-1.159668,-0.244141,5.859375
2621,0.019897,-0.074219,1.163208,-1.647949,-0.427246,4.638672
2631,-0.027710,-0.103027,0.996338,1.037598,-0.976562,2.807617
2643,0.035034,-0.528442,0.868408,1.403809,-1.159668,2.319336
2652,0.011963,-0.361328,0.936523,-0.854492,-1.403809,1.831055
2662,0.038208,-0.093262,1.096680,-3.356934,-1.892090,0.976562
2671,0.025146,-0.159180,0.894653,-4.211426,-2.014160,0.366211
2681,0.061768,-0.206421,0.840698,-4.089355,-2.197266,0.244141
2693,0.069824,-0.400879,0.755127,-6.347656,-3.479004,-1.953125
2702,0.066895,-0.094238,0.901245,-9.521484,-3.356934,-3.112793
2712,0.076538,0.280273,1.195923,-11.047363,-3.479004,-4.211426
2722,0.016846,0.399780,1.285034,-9.277344,-3.295898,-5.371094
2731,-0.047363,0.227905,1.207764,-5.676270,-3.662109,-6.835937
2742,-0.050659,-0.011963,1.044678,-2.685547,-3.662109,-7.812500
2751,0.003784,-0.253662,0.924194,-2.380371,-3.356934,-8.544922
2761,0.039673,-0.289185,0.941406,-4.577637,-3.295898,-9.033203
2773,0.055420,0.114990,1.135132,-7.263184,-3.356934,-8.911133
2782,-0.005127,0.168945,1.080200,-7.873535,-2.624512,-8.178711
2792,0.058716,0.231567,1.206665,-6.408691,-2.319336,-8.178711
2802,-0.000610,0.189087,0.957153,-5.126953,-2.258301,-8.361816
2811,-0.011230,0.316650,0.993652,-3.662109,-2.441406,-8.605957
2822,0.021606,0.297119,1.029907,-0.732422,-2.563477,-8.911133
2832,0.019897,-0.061157,0.845947,1.647949,-2.990723,-9.094238
2841,0.057617,-0.142822,1.040039,1.403809,-2.258301,-8.300781
2852,0.071411,-0.059814,1.042236,0.000000,-1.708984,-7.568359
2862,0.070801,0.182983,1.157837,-0.427246,-0.976562,-6.042480
2871,0.003174,0.034058,0.950928,0.610352,-0.732422,-5.065918
2882,-0.020996,0.175415,1.088989,2.258301,-0.732422,-4.394531
2891,-0.056641,-0.099609,1.099121,3.479004,-1.037598,-3.723145
2901,-0.099365,-0.275635,0.975708,3.479004,-0.793457,-3.417969
2913,0.009766,-0.239502,0.857544,1.403809,-0.793457,-3.112793
2923,0.015503,-0.161377,0.853638,0.122070,-0.549316,-2.868652
2932,0.039307,-0.171387,0.857300,-0.671387,-0.671387,-2.746582
2942,0.018188,-0.111694,0.939331,-1.464844,-0.549316,-2.868652
2952,-0.021606,-0.109863,0.926270,-2.441406,-0.488281,-3.051758
2962,-0.012695,0.044067,1.005005,-2.868652,-0.854492,-3.662109
2971,-0.015991,-0.058838,0.888062,-2.563477,-0.854492,-4.272461
2981,0.004395,-0.072388,0.868774,-2.014160,-1.342773,-5.187988
2992,0.011353,-0.137329,0.918945,-2.441406,-1.464844,-5.126953
3002,-0.006592,-0.040649,0.889771,-2.685547,-0.854492,-4.638672
3012,-0.000732,0.050903,0.961060,-2.746582,-0.549316,-3.906250
3021,-0.005371,0.098633,0.958618,-1.586914,-0.061035,-2.990723
3032,-0.028198,-0.013916,0.938721,0.244141,0.366211,-2.441406
3041,-0.009033,-0.232178,0.931519,1.342773,0.488281,-2.014160
3053,-0.064819,-0.296143,1.010132,-1.281738,0.366211,-2.624512
3063,-0.070923,-0.187134,0.981201,-2.868652,0.732422,-3.112793
3073,-0.061523,-0.006592,0.978638,-3.295898,1.281738,-3.234863
3082,-0.042969,0.025879,0.949097,-2.441406,1.281738,-3.295898
3092,-0.030396,0.025391,1.010620,-1.403809,1.220703,-3.845215
3101,-0.014526,-0.178101,1.046265,-0.854492,1.037598,-4.272461
3111,-0.055542,-0.264526,1.061279,-1.342773,0.793457,-4.455566
3123,-0.002075,-0.186768,1.042358,-2.563477,0.610352,-4.943848
3133,0.001099,0.017334,1.133911,-2.258301,1.342773,-4.943848
3142,0.006958,-0.062134,1.169678,-1.220703,1.647949,-4.821777
3152,-0.034424,-0.193115,1.126587,-0.854492,1.770020,-5.065918
3161,-0.014771,-0.067749,1.119385,-0.793457,1.647949,-5.310059
3172,-0.019653,-0.256958,0.969238,-0.732422,1.586914,-5.737305
3181,0.024780,-0.117554,0.970703,-1.281738,1.525879,-5.981445
3193,0.048462,-0.157715,0.990845,-2.685547,1.586914,-5.187988
3203,0.012817,-0.024536,1.109497,-3.234863,2.075195,-4.394531
3212,-0.015625,-0.126221,0.992432,-3.479004,2.624512,-3.051758
3222,-0.002197,0.081299,1.061279,-3.356934,2.929688,-1.831055
3231,0.000000,-0.063110,0.961182,-3.051758,3.173828,-0.732422
3242,-0.019531,0.086304,1.038086,-3.173828,3.540039,0.244141
3251,-0.010132,-0.058716,0.930542,-2.563477,3.540039,0.976562
3263,-0.035156,0.020264,0.942139,-2.563477,3.417969,2.258301
3272,-0.030151,0.001831,0.872314,-2.197266,3.356934,2.807617
3282,-0.020508,0.026489,0.936401,-1.770020,3.295898,3.295898
3291,0.000366,-0.052979,0.936401,-1.159668,3.417969,4.089355
3302,0.005615,0.012939,0.984009,-0.976562,3.479004,4.760742
3311,0.028809,0.053833,0.979614,-0.610352,3.295898,5.249023
3323,0.017212,-0.025757,0.914185,0.488281,2.807617,5.981445
3332,-0.020020,-0.000488,0.914551,1.159668,2.685547,6.408691
3342,-0.026001,-0.109131,0.920532,1.403809,2.441406,6.652832
3352,-0.007935,-0.064453,0.970459,1.098633,2.441406,6.652832
3362,-0.045044,-0.082153,0.988281,0.854492,2.136230,6.591797
3372,-0.024780,-0.185181,1.006714,0.976562,2.014160,6.408691
3381,-0.037720,-0.008179,1.122192,1.220703,1.831055,6.774902
3393,-0.012329,-0.183472,1.042725,1.403809,1.464844,6.652832
3402,0.011353,-0.137573,1.023438,1.220703,1.586914,6.530762
3413,0.004028,-0.235229,0.912109,0.732422,1.220703,6.286621
3422,0.059204,-0.165405,1.039673,0.366211,0.793457,5.737305
3432,0.016357,-0.304321,0.895874,0.061035,0.671387,4.882812
3441,0.066406,-0.165283,1.064209,-0.915527,0.244141,3.906250
3452,0.027954,-0.312012,1.035767,-1.708984,-0.305176,2.929688
3462,0.024902,-0.174438,1.112915,-2.685547,-0.610352,1.953125
3473,0.023804,-0.145630,1.065552,-3.295898,-1.586914,-0.122070
3483,0.031616,-0.006592,1.098755,-3.479004,-1.464844,-0.610352
3493,0.025757,-0.203491,0.956299,-3.417969,-1.464844,-0.732422
3503,0.056763,0.022583,1.047852,-3.540039,-1.403809,-1.220703
3512,0.019287,-0.174316,0.889404,-3.723145,-1.464844,-1.281738
3523,0.012817,0.059326,0.988037,-3.662109,-1.464844,-1.464844
3532,0.010010,-0.066040,1.029419,-2.746582,-1.770020,-2.685547
3542,-0.007202,-0.012695,1.031128,-2.990723,-1.953125,-2.929688
3552,-0.027344,-0.128418,0.943726,-3.112793,-1.831055,-3.540039
3562,-0.049072,-0.031250,0.944946,-3.356934,-2.014160,-4.089355
3572,-0.046143,0.053955,0.916870,-3.173828,-1.892090,-4.455566
3582,-0.029907,0.031860,0.874878,-2.380371,-1.647949,-4.760742
3591,-0.031128,-0.038452,0.844238,-1.770020,-1.525879,-5.126953
3604,-0.046631,-0.124634,0.874512,-2.563477,-0.976562,-4.577637
3614,0.026123,-0.014282,1.017578,-3.173828,-0.488281,-4.211426
3624,-0.020508,-0.022339,0.947021,-2.807617,-0.061035,-3.295898
3633,-0.027832,-0.104248,0.903320,-2.807617,0.488281,-2.563477
3643,-0.057129,-0.115723,0.905884,-2.502441,0.671387,-2.380371
3653,-0.018066,-0.086304,0.919556,-2.624512,1.098633,-1.953125
3662,-0.036743,-0.046997,0.961182,-2.929688,1.220703,-1.831055
3672,-0.041870,-0.065552,0.908691,-3.173828,1.159668,-1.953125
3682,-0.060669,0.001465,0.986206,-3.112793,1.281738,-1.220703
3693,-0.018555,-0.093018,1.111084,-3.540039,1.403809,-0.793457
3702,0.005249,-0.072510,1.212158,-4.028320,1.403809,-0.305176
3712,0.008667,-0.092896,1.145752,-4.211426,1.586914,0.427246
3722,0.001953,0.052002,1.268799,-3.845215,2.014160,1.220703
3733,-0.018799,-0.015869,1.153931,-2.868652,1.892090,2.258301
3742,-0.040161,-0.052612,1.075195,-1.159668,2.380371,4.333496
3754,-0.010864,-0.189575,0.965332,-1.525879,2.258301,5.065918
3763,0.057983,-0.052368,1.047852,-2.075195,2.197266,5.249023
3773,0.036621,-0.184326,0.929810,-1.892090,2.197266,5.493164
3782,0.057129,-0.021851,1.009033,-2.014160,2.258301,5.432129
3793,0.001099,-0.199219,0.928955,-2.075195,1.464844,4.760742
3802,-0.018311,-0.002441,1.050049,-2.624512,1.342773,3.662109
3812,-0.010132,-0.074219,1.048096,-2.868652,0.610352,0.976562
3824,0.016235,0.078003,0.994019,-1.953125,-0.061035,-0.427246
3833,0.029419,-0.017944,0.871460,-1.403809,-0.427246,-0.854492
3843,0.061523,-0.011108,0.955688,-1.281738,-0.732422,-1.464844
3853,0.035278,-0.160767,0.960693,-0.976562,-0.854492,-1.831055
3863,0.020630,-0.098145,0.921143,-1.525879,-0.854492,-2.014160
3872,0.022217,-0.059082,0.950928,-1.892090,-0.610352,-1.831055
3882,0.025513,-0.033936,0.955933,-1.953125,-0.854492,-2.990723
3894,0.021606,-0.147583,0.947998,-2.075195,-0.854492,-3.845215
3903,0.011108,-0.056030,1.010986,-2.380371,-1.281738,-5.249023
3913,-0.010254,0.075562,0.977295,-2.136230,-1.525879,-6.347656
3923,0.013794,0.156738,1.045532,-1.159668,-1.586914,-7.324219
3933,-0.012573,-0.119019,0.890991,0.183105,-1.647949,-7.934570
3942,0.033691,-0.065308,1.006470,0.854492,-1.464844,-8.239746
3955,0.072510,-0.079468,1.107178,0.183105,-0.976562,-8.361816
3964,0.044922,-0.083984,1.100708,-0.061035,-0.610352,-8.300781
3974,0.038208,-0.096558,1.092896,0.732422,-0.305176,-8.483887
3983,-0.006226,0.087891,1.229004,1.770020,-0.366211,-8.972168
3993,-0.025391,-0.119263,1.047119,3.234863,-0.305176,-8.666992
4002,-0.068604,-0.079224,1.101929,3.723145,-0.305176,-8.178711
4012,-0.005737,-0.130127,1.131592,4.089355,0.244141,-7.324219
4024,0.044189,-0.149292,0.975464,3.295898,1.342773,-4.455566
4034,0.012817,-0.293335,0.888550,2.685547,1.892090,-2.380371
4043,0.004883,-0.153931,1.009521,1.586914,2.563477,-0.915527
4053,-0.053711,-0.269287,0.949097,0.427246,2.990723,0.610352
4062,-0.089355,-0.060425,1.022949,-0.488281,3.417969,1.831055
4072,-0.104736,-0.009277,1.045776,-0.976562,3.601074,2.807617
4083,-0.091797,0.005615,1.003418,-0.610352,3.906250,3.662109
4092,-0.027466,0.122559,1.088257,1.464844,3.356934,4.516602
4103,0.001587,0.016968,1.018311,1.708984,2.868652,4.699707
4113,0.015625,-0.126953,0.973999,1.403809,2.990723,5.676270
4122,0.005249,-0.078003,0.976807,1.159668,3.479004,6.774902
4133,0.026733,0.024048,1.041138,1.220703,3.906250,8.117676
4142,0.016479,-0.140137,0.983276,1.464844,4.211426,9.643555
4152,-0.001953,0.056641,1.132080,1.464844,4.089355,10.620117
4162,-0.001221,-0.070923,1.109497,1.953125,3.967285,10.864258
4173,-0.016479,0.115845,1.125732,2.746582,3.234863,10.498047
4183,-0.063477,-0.158691,0.966675,3.112793,2.929688,10.192871
4193,-0.051270,-0.006714,1.023071,3.112793,2.563477,9.582520
4202,-0.041138,-0.068848,0.955688,3.295898,2.319336,9.460449
4212,0.000000,-0.070679,0.960205,3.234863,2.136230,9.399414
4222,0.022339,-0.112549,0.846191,3.051758,1.525879,8.789063
4234,0.014038,-0.180908,0.960449,1.525879,0.976562,7.568359
4244,-0.009521,-0.114990,0.973022,0.732422,0.244141,6.591797
4253,0.003662,-0.014038,1.021851,0.366211,-0.183105,5.310059
4263,-0.054687,-0.044800,0.906494,0.366211,-0.122070,4.455566
4272,-0.005127,0.029297,1.028320,0.610352,0.061035,3.906250
4282,-0.028687,-0.120850,0.933838,0.976562,-0.366211,3.295898
4293,-0.002319,-0.075928,0.997559,0.854492,-0.244141,3.356934
4302,-0.005005,-0.234497,0.976440,-0.671387,-0.183105,4.760742
4312,0.005493,-0.219238,0.882812,-1.831055,-0.122070,5.249023
4323,-0.003784,-0.057373,0.999023,-2.990723,0.488281,5.432129
4332,-0.003906,-0.111694,1.009888,-3.479004,0.244141,5.615234
4342,0.013916,0.025635,1.055420,-3.417969,0.000000,5.310059
4352,0.011597,-0.096436,0.986938,-2.868652,-0.122070,4.516602
4362,0.041504,-0.090820,1.037964,-2.990723,-0.793457,3.906250
4375,0.066284,-0.068237,1.047974,-3.479004,-1.403809,2.868652
4384,0.080200,-0.002563,1.059448,-3.356934,-1.586914,2.563477
4393,0.063843,-0.007446,0.987915,-3.234863,-1.831055,2.319336
4403,0.047241,-0.011719,1.022949,-2.990723,-2.136230,1.953125
4413,0.046875,-0.137451,1.025757,-2.868652,-2.380371,1.708984
4422,0.034912,-0.122314,0.943115,-3.112793,-2.563477,1.098633
4433,0.056763,-0.049683,1.035400,-3.723145,-2.929688,1.098633
4442,0.039063,0.003418,1.007080,-3.906250,-3.845215,0.671387
4454,0.067749,-0.027832,1.065430,-3.540039,-4.211426,0.793457
4463,0.057129,0.115845,1.147583,-3.417969,-4.760742,1.037598
4472,0.044434,0.035522,1.082153,-2.807617,-4.821777,1.708984
4482,0.048096,0.166504,1.078735,-2.807617,-4.638672,2.380371
4493,0.044312,0.008667,0.929199,-2.624512,-4.333496,3.601074
4502,0.063599,-0.011353,0.937134,-3.112793,-4.455566,4.760742
4514,-0.061279,-0.000244,0.766968,-4.028320,-4.638672,5.798340
4523,-0.088623,0.026001,0.775024,-6.896973,-3.845215,7.019043
4533,-0.174194,0.077881,0.832153,-8.056641,-3.356934,8.056641
4543,-0.227905,0.006104,0.838623,-8.422852,-2.624512,8.972168
4553,-0.337769,0.040649,0.882935,-8.178711,-1.525879,9.643555
4562,-0.401245,-0.039917,0.762207,-7.507324,0.305176,10.131836
4573,-0.344849,-0.049194,0.866699,-6.896973,1.770020,10.803223
4582,-0.331299,-0.325317,0.826050,-5.676270,2.502441,11.718750
4594,-0.123901,-0.363159,0.874023,-5.676270,1.708984,12.451172
4603,-0.057251,-0.340942,0.972290,-5.859375,0.854492,12.634277
4613,-0.096802,-0.447266,0.912720,-5.126953,0.854492,12.939453
4622,-0.124634,-0.722656,0.621094,-4.455566,2.441406,13.732910
4632,-0.123413,-0.664062,0.622681,-4.760742,4.821777,13.366699
4644,-0.144775,-0.709961,0.562378,-4.211426,5.249023,8.850098
4653,-0.159912,-0.887573,0.808350,-3.295898,3.723145,5.187988
4663,-0.108032,-1.987061,-0.482056,-1.647949,2.502441,1.953125
4672,-0.016968,-3.316895,-1.641479,-2.380371,0.976562,0.305176
4683,0.233032,-2.849854,-0.823486,-21.179199,1.098633,-3.601074
4692,0.059814,-2.172974,-1.147949,-43.579102,-2.685547,-8.850098
4702,0.507935,-0.214844,-0.110107,-63.720703,-5.310059,-13.854980
4712,0.308472,1.057373,2.763428,-60.058594,-6.835937,-15.319824
4724,0.501587,-0.317871,3.999512,-40.100098,-7.934570,-12.390137
4733,0.441040,-0.462524,3.999512,-4.577637,-5.615234,-9.765625
4743,0.443970,-1.961304,2.095581,10.253906,-4.760742,-9.155273
4753,0.469116,-1.747803,0.598145,14.587402,-6.591797,-10.864258
4763,0.247803,-1.270630,0.273193,11.108398,-12.390137,-15.747070
4773,-0.020142,-0.946533,0.632446,7.568359,-17.272949,-20.690918
4783,-0.067383,-0.548950,1.943481,4.821777,-15.502930,-20.141602
4794,-0.040649,1.718384,3.524048,4.028320,-1.281738,-8.117676
4804,-0.088867,3.014771,3.998291,11.779785,2.502441,-2.441406
4813,-0.269287,3.375488,3.777954,31.311035,-0.976562,0.610352
4823,-0.698242,3.999512,3.999512,53.100586,1.708984,4.577637
4833,-1.521973,3.999512,3.999512,75.622559,9.216309,9.948730
4842,-1.027222,3.990845,3.770020,86.425781,18.676758,15.625000
4854,0.010254,2.764893,2.015747,102.416992,45.898437,44.860840
4863,0.259888,1.662720,0.863403,108.459473,40.161133,45.837402
4873,0.667603,1.370361,0.569580,109.741211,29.296875,36.071777
4888,0.476196,0.792480,0.077637,105.468750,14.099121,23.559570
4898,0.823486,0.168701,-0.257813,88.867187,9.521484,18.981934
4907,0.307373,-0.178711,-0.329834,79.772949,5.065918,11.169434
4917,-0.116821,-0.058716,-0.096924,71.411133,2.136230,4.455566
4926,-0.235962,0.028564,-0.000854,63.842773,0.854492,-1.281738
4936,-0.292969,0.119263,0.048828,56.701660,1.037598,-7.141113
4945,-0.225342,0.253540,0.189941,52.001953,2.258301,-12.512207
4955,-0.070435,0.096924,0.316284,50.964355,4.455566,-16.296387
4964,-0.003662,-0.113525,0.469116,50.659180,6.591797,-17.395020
4974,0.133667,-0.268311,0.459351,48.645020,7.507324,-17.272949
4983,0.188721,-0.333008,0.214966,44.067383,6.286621,-17.944336
4992,0.139404,-0.230957,0.109985,38.940430,4.150391,-18.981934
5004,0.150391,-0.432373,-0.039429,32.836914,-0.122070,-16.296387
5014,0.012817,-0.570312,0.060059,29.418945,-1.892090,-15.075684
5023,-0.043335,-0.677856,0.037109,24.475098,-3.601074,-14.282227
5033,-0.078491,-0.750732,-0.083008,18.066406,-4.760742,-12.878418
5044,-0.142822,-0.688110,-0.221436,11.291504,-5.126953,-11.901855
5053,-0.229126,-0.607666,-0.307617,6.042480,-4.943848,-10.803223
5063,-0.203003,-0.635986,-0.258545,-2.868652,-3.662109,-7.446289
5073,-0.195312,-0.681396,-0.198975,-7.873535,-2.624512,-5.554199
5084,-0.110352,-0.660156,-0.244385,-13.305664,-1.708984,-3.173828
5094,-0.136475,-0.645386,-0.269165,-18.920898,-0.427246,-0.366211
5104,-0.105103,-0.625732,-0.269775,-23.925781,0.549316,2.014160
5113,-0.128906,-0.737061,-0.256714,-28.686523,1.586914,3.967285
5123,-0.091797,-0.756592,-0.248169,-33.630371,2.502441,5.554199
5133,-0.074219,-0.801147,-0.262939,-39.428711,3.540039,6.408691
5144,0.031250,-0.804687,-0.429443,-52.124023,5.371094,7.141113
5154,0.065552,-0.731079,-0.485352,-58.410645,5.676270,7.141113
5164,0.120239,-0.750854,-0.505615,-64.086914,5.310059,7.446289
5173,0.134644,-0.725708,-0.529175,-69.763184,4.577637,7.141113
5184,0.145020,-0.771118,-0.574707,-75.866699,3.723145,6.530762
5193,0.136230,-0.776733,-0.644897,-82.580566,2.136230,5.554199
5203,0.121460,-0.742310,-0.708252,-89.477539,-14.526367,2.563477
5215,0.093872,-0.667114,-0.830811,-103.088379,-1.281738,0.793457
5224,0.132812,-0.577637,-0.887817,-110.229492,-2.624512,-1.281738
5234,0.132568,-0.542114,-0.984253,-117.126465,-4.028320,-3.540039
5244,0.238403,-0.527588,-1.012207,-124.389648,-6.408691,-6.530762
5253,0.310913,1.850586,1.100220,-132.568359,-9.338379,-10.559082
5264,-0.229858,3.683960,3.999512,-114.807129,-9.948730,-15.197754
5274,0.496216,-1.307861,3.999512,-27.465820,-5.737305,-1.403809
5283,-1.187988,0.094238,2.207153,-76.782227,4.333496,-5.004883
5294,0.900391,3.999512,1.460815,-97.717285,-2.136230,-18.737793
5303,-0.105469,3.385864,0.673340,-35.705566,-17.517090,-12.145996
5314,-0.231689,-2.882690,0.574829,15.502930,-21.911621,-6.896973
5324,0.252930,0.713013,3.999512,-8.300781,-12.756348,-15.991211
5333,-0.321289,-1.473267,3.406738,-19.042969,-9.948730,-10.620117
5346,0.241577,0.513550,0.287476,-11.169434,-4.272461,-2.563477
5355,0.117676,0.781616,0.382690,7.568359,-5.798340,2.136230
5365,0.398682,-1.360229,1.028687,19.409180,-2.746582,8.300781
5374,-0.118164,-1.785645,1.631348,8.789063,-4.333496,4.516602
5384,-0.162598,-0.703735,1.535156,-10.986328,-5.310059,2.197266
5393,0.025879,0.876831,1.452026,-20.324707,-2.685547,4.394531
5404,-0.140991,0.570679,1.105469,-8.972168,-3.906250,4.028320
5413,-0.139404,0.101807,1.635498,13.366699,-7.446289,-6.774902
5423,-0.006836,-0.345215,1.631958,12.634277,-7.629395,-8.728027
5434,0.103760,0.069824,1.073608,11.718750,-9.704590,-12.634277
5443,0.014404,0.352173,0.789307,15.441895,-10.131836,-12.939453
5453,0.170044,-0.014893,0.762939,22.521973,-8.483887,-9.887695
5463,0.151367,-0.268188,0.941162,24.597168,-7.019043,-8.117676
5474,0.130493,-0.191772,0.977661,21.240234,-5.371094,-7.690430
5483,0.174072,0.115967,0.863281,1.037598,-3.845215,-6.652832
5495,-0.125366,0.090332,0.282959,16.845703,-4.882812,-7.629395
5504,-0.140137,0.080688,0.454468,17.578125,-5.004883,-9.094238
5514,-0.076904,-0.132202,0.737183,15.930176,-5.065918,-11.535645
5523,-0.158691,-0.151123,0.937866,12.145996,-6.408691,-15.869141
5534,-0.124146,0.123047,0.931274,9.094238,-6.835937,-19.592285
5543,-0.115479,0.155884,0.848877,8.239746,-6.469727,-20.629883
5556,-0.121826,0.072998,0.648315,8.544922,-3.845215,-19.104004
5565,-0.086304,0.082520,0.796265,7.812500,-1.892090,-17.028809
5575,-0.138184,0.142090,0.818115,6.896973,0.061035,-14.343262
5584,-0.078979,0.255493,0.945557,6.164551,1.647949,-12.268066
5594,-0.115845,0.136108,0.802246,6.347656,2.929688,-9.826660
5603,-0.083130,-0.066650,0.647827,6.225586,3.906250,-7.690430
5613,-0.085815,-0.123901,0.672241,5.004883,4.516602,-6.347656
5626,-0.035645,0.059692,0.863159,0.671387,5.554199,-4.089355
5635,-0.014771,0.090210,0.857422,-0.854492,6.164551,-3.051758
5645,-0.009033,0.097412,0.878784,-2.014160,6.591797,-2.319336
5655,-0.036255,0.202881,0.873169,-2.319336,6.591797,-1.770020
5664,-0.079346,0.175293,0.793823,-2.258301,6.591797,-1.892090
5674,-0.140137,0.118774,0.881226,-2.746582,6.958008,-2.136230
5683,-0.178101,0.152100,1.115112,-2.990723,7.019043,-2.685547
5695,-0.250244,0.248047,1.312500,-2.807617,8.911133,-4.760742
5705,-0.218262,-0.010620,1.125000,-1.831055,9.765625,-5.920410
5714,-0.196411,0.106689,1.108521,-1.403809,10.559082,-7.385254
5724,-0.208252,0.047607,0.983276,-0.732422,10.437012,-8.728027
5734,-0.206177,0.112549,1.066650,-0.061035,10.681152,-10.375977
5743,-0.233643,0.020264,1.024536,0.915527,11.596680,-10.986328
5753,-0.219238,-0.013306,1.059448,1.647949,12.634277,-10.986328
5765,-0.149536,-0.055786,0.999390,1.708984,13.732910,-10.559082
5774,-0.140259,0.036011,1.015747,0.488281,15.747070,-9.277344
5784,-0.133789,0.100830,1.023193,0.427246,16.845703,-8.117676
5794,-0.068115,0.137207,1.081299,0.793457,17.944336,-7.019043
5804,0.292603,-0.183594,1.036499,1.831055,18.554687,-5.676270
5814,0.663208,-0.342407,1.216919,2.319336,18.249512,-2.868652
5824,0.542480,-0.399536,0.984497,1.708984,14.404297,1.098633
5835,0.089844,-0.486816,0.369019,2.014160,6.958008,5.981445
5844,0.243652,-0.868896,0.481934,4.577637,8.789063,10.681152
5854,0.391846,-1.078979,0.899902,1.708984,13.305664,18.249512
5863,0.263062,-0.801392,0.976685,-3.234863,15.075684,24.108887
5874,0.201782,-0.408325,0.930542,-6.225586,14.221191,25.756836
5884,0.144165,-0.328491,1.196167,-6.774902,12.756348,25.451660
5895,0.117676,-0.417480,1.198120,-3.356934,7.446289,22.094727
5905,0.070801,-0.811646,0.442627,-2.685547,5.432129,20.751953
5914,0.135742,-0.765259,0.640503,-5.676270,3.295898,19.775391
5923,0.126221,-0.064575,0.799072,-11.535645,2.807617,19.287109
5934,0.078735,0.190552,0.743530,-15.258789,3.723145,19.104004
5943,0.054321,0.538940,1.015015,-14.953613,5.249023,19.348145
5954,0.053223,0.559204,1.584106,-10.742188,5.554199,19.470215
5965,-0.037964,0.291016,1.895142,-2.624512,2.624512,13.977051
5975,-0.081787,0.253174,1.753540,-0.061035,1.708984,12.268066
5984,0.030640,0.142334,1.475708,3.295898,1.037598,11.657715
5994,0.073608,-0.055908,1.023193,7.080078,-0.976562,10.742188
6004,0.125977,-0.069580,0.917358,8.178711,-3.234863,10.253906
6014,0.280396,-0.096558,0.879761,6.652832,-5.187988,10.498047
6024,0.337036,0.094238,0.861816,4.394531,-5.920410,11.108398
6033,0.389648,0.427734,1.024902,3.295898,-6.164551,11.962891
6046,0.282104,0.144043,1.089600,5.004883,-6.225586,12.878418
6055,0.215210,-0.106567,1.132446,4.821777,-7.141113,12.573242
6065,0.186401,0.047485,1.205566,2.990723,-8.239746,11.901855
6074,0.099121,0.176758,1.123657,1.037598,-9.460449,11.047363
6084,0.043213,0.263306,1.013062,0.183105,-10.620117,9.521484
6094,-0.076050,0.101440,0.957886,0.549316,-11.230469,7.568359
6105,-0.109131,-0.012817,0.915405,-0.305176,-10.192871,4.089355
6115,-0.107544,0.007813,0.988770,-2.502441,-8.361816,2.685547
6124,-0.075684,0.039795,0.983154,-3.540039,-6.958008,1.464844
6134,-0.109497,0.014038,1.039429,-3.417969,-6.958008,-0.488281
6144,-0.190063,-0.009521,1.250488,-2.624512,-8.300781,-3.662109
6154,-0.208008,-0.026733,1.337891,-0.976562,-9.460449,-7.263184
6164,-0.249390,-0.033691,1.316772,0.976562,-10.131836,-10.192871
6177,-0.105469,-0.135132,1.112183,5.676270,-8.789063,-13.427734
6186,-0.009521,-0.112549,0.862793,8.605957,-7.629395,-12.634277
6196,0.018066,-0.314331,0.668457,10.925293,-5.981445,-11.047363
6205,0.106201,-0.452637,0.646362,12.145996,-4.394531,-8.544922
6215,0.167969,-0.644775,0.655151,12.329102,-3.173828,-6.103516
6224,0.230469,-0.907837,0.724243,10.986328,-2.502441,-2.929688
6234,0.194580,-0.807861,0.791504,7.446289,-2.380371,1.037598
6244,0.196899,-0.772095,0.757812,3.051758,-2.624512,8.361816
6256,0.133057,-0.480957,0.796387,-2.868652,-3.295898,11.901855
6266,0.064209,-0.422485,0.718018,-3.662109,-4.516602,14.221191
6275,0.027832,-0.391357,0.669434,-3.417969,-5.554199,16.235352
6285,0.067627,-0.452881,0.851074,-2.868652,-5.737305,17.883301
6294,0.134766,-0.643555,0.911011,-2.258301,-5.798340,19.348145
6304,0.151978,-0.514282,1.069580,-2.441406,-6.958008,20.446777
6314,0.065674,-0.617310,1.069214,-2.746582,-8.056641,22.155762
6324,-0.017212,-0.591309,1.039429,-3.540039,-8.666992,22.766113
6334,-0.131958,-0.712646,0.943726,-3.112793,-8.605957,22.583008
6344,-0.262695,-0.681274,0.864990,-3.051758,-8.239746,21.362305
6354,-0.280273,-0.715698,0.858765,-2.990723,-7.202148,19.836426
6364,-0.362793,-0.809814,0.833374,-3.295898,-6.225586,17.700195
6375,-0.463745,-0.708740,0.904297,-4.394531,-5.615234,14.892578
6384,-0.542603,-0.566528,0.974609,-4.638672,-3.173828,8.789063
6396,-0.572754,-0.737793,0.836548,-5.065918,-1.098633,6.347656
6406,-0.599243,-0.698242,0.760132,-4.882812,0.854492,4.028320
6415,-0.551758,-0.497559,0.819336,-5.249023,2.807617,2.197266
6425,-0.497314,-0.299316,0.829346,-5.249023,4.638672,0.915527
6435,-0.317383,-0.098267,0.934204,-4.394531,5.859375,0.000000
6444,-0.034912,-0.178345,1.008179,-2.685547,6.103516,0.061035
6457,0.237671,0.132202,1.174194,-1.892090,4.455566,2.136230
6466,0.318481,0.326294,1.297974,-2.929688,2.563477,4.455566
6476,0.432373,0.478882,1.279175,-3.540039,0.244141,6.469727
6485,0.493652,0.599365,1.111206,-4.089355,-2.014160,8.605957
6495,0.408569,0.626343,1.105225,-4.516602,-3.662109,11.352539
6504,0.356812,0.647339,1.130615,-5.004883,-4.699707,13.305664
6515,0.310181,0.701660,1.191895,-5.004883,-4.394531,14.831543
6524,0.159912,0.539673,1.044189,-3.417969,-3.662109,11.840820
6536,-0.285278,0.364258,0.966919,-2.624512,-3.540039,6.347656
6545,-0.465698,0.099976,0.841064,-2.014160,-3.417969,-1.220703
6555,-0.467285,0.026611,0.824341,-2.197266,-3.906250,-9.399414
6565,-0.513306,-0.109375,0.771362,-2.868652,-4.150391,-16.662598
6574,-0.530518,0.001709,0.913330,-3.784180,-4.455566,-23.620605
6584,-0.359741,-0.050903,0.952393,-4.150391,-3.845215,-29.479980
6597,0.125366,-0.026733,1.069946,-3.540039,-2.868652,-35.888672
6607,0.323853,-0.078735,0.987305,-2.746582,-3.173828,-36.804199
6616,0.370117,-0.266968,0.834229,-2.380371,-2.380371,-35.705566
6626,0.457520,-0.127075,0.773071,-2.990723,-0.793457,-32.775879
6636,0.518555,-0.017334,0.955688,-3.662109,0.976562,-29.663086
6645,0.472534,-0.089111,0.952148,-4.089355,1.647949,-26.855469
6655,0.388428,-0.117310,1.002686,-4.394531,0.427246,-25.085449
6664,0.323975,0.121094,1.078491,-5.126953,-2.441406,-22.827148
6674,0.205444,0.017944,1.083740,-4.882812,-2.868652,-21.789551
6685,0.076904,0.081421,1.172485,-4.272461,-2.197266,-20.202637
6694,0.079224,-0.167847,0.931763,-3.173828,-0.366211,-18.310547
6705,0.020508,-0.083008,1.033691,-2.441406,0.610352,-17.028809
6715,0.031982,-0.054321,1.030396,-1.403809,0.610352,-16.723633
6724,-0.031738,-0.255615,0.924683,-0.793457,0.610352,-17.761230
6737,0.042236,-0.256348,0.976929,0.122070,0.122070,-22.705078
6746,-0.049561,-0.334839,0.928589,0.000000,-0.244141,-25.329590
6756,-0.015869,-0.079956,1.014526,-0.122070,-0.061035,-28.015137
6766,-0.054199,-0.188843,1.091187,0.122070,0.915527,-29.724121
6775,-0.119019,-0.198364,0.993652,0.488281,2.136230,-30.639648
6785,-0.115479,-0.090210,1.009155,1.281738,3.356934,-30.822754
6795,-0.060791,-0.055542,0.974976,1.525879,4.638672,-27.465820
6805,-0.050415,-0.200684,0.975342,1.953125,8.300781,-23.925781
6815,-0.056641,-0.009766,1.029175,2.502441,10.192871,-19.653320
6824,-0.085327,-0.273560,0.990356,3.051758,12.329102,-14.709473
6835,-0.136475,-0.312744,0.932129,2.380371,14.465332,-9.826660
6844,-0.113159,0.006958,1.061035,1.647949,16.296387,-6.042480
6855,-0.047852,0.109741,1.085938,1.159668,17.211914,-2.380371
6864,-0.059082,-0.243530,0.954224,1.281738,17.456055,0.854492
6877,-0.021118,-0.015503,0.932861,1.159668,18.310547,7.263184
6886,-0.021851,-0.271362,0.767334,0.732422,18.920898,11.108398
6895,-0.062988,-0.223022,0.797119,-0.366211,19.958496,14.648438
6905,-0.035278,-0.078247,0.939819,-1.586914,20.446777,17.883301
6915,-0.068970,-0.205322,0.777588,-2.258301,20.507812,21.057129
6925,-0.090820,0.107788,0.990112,-2.868652,20.751953,23.620605
6934,-0.085449,0.078857,1.157959,-2.685547,20.690918,25.634766
6947,-0.093628,-0.072632,1.076538,-1.647949,20.446777,30.273437
6956,-0.092651,-0.056763,0.942749,-0.305176,20.202637,32.592773
6966,-0.054443,-0.063110,0.954590,-0.244141,20.019531,34.729004
6975,-0.043457,-0.297852,0.842285,-0.854492,20.019531,37.048340
6985,0.014038,-0.001465,0.883911,-1.525879,19.714355,39.001465
6995,-0.026001,0.055542,1.014282,-1.708984,19.226074,40.832520
7005,-0.046753,-0.140625,0.958496,-1.892090,18.127441,42.236328
7016,-0.061646,0.276489,1.402344,-2.258301,16.906738,43.334961
7026,-0.058350,0.199829,1.337769,-1.586914,16.113281,43.701172
7036,-0.046021,0.047852,1.199829,0.488281,15.197754,43.701172
7045,-0.054932,-0.047241,1.085083,1.708984,14.526367,43.884277
7055,-0.089478,-0.330933,0.903564,2.685547,13.549805,43.701172
7065,-0.065552,-0.180054,0.907959,2.197266,12.390137,41.870117
7075,-0.078003,-0.120850,0.863770,0.976562,11.718750,40.466309
7086,-0.013428,0.002441,0.972778,-0.854492,10.070801,39.306641
7096,-0.020020,-0.112915,0.939209,-1.525879,9.704590,39.794922
7105,0.019043,-0.219604,1.054321,-2.014160,9.338379,40.039062
7115,0.100830,-0.109741,1.110229,-2.502441,8.239746,39.733887
7125,0.087280,-0.107178,1.118042,-2.868652,6.652832,39.306641
7135,0.050415,-0.193604,1.023804,-2.868652,5.310059,39.062500
7146,0.036255,-0.031738,1.083374,-0.854492,4.394531,39.367676
7156,0.088379,-0.140015,1.126343,0.549316,2.990723,39.123535
7165,0.090820,-0.101563,1.218262,0.793457,1.525879,38.635254
7174,0.084229,-0.028687,1.179199,1.770020,0.061035,38.269043
7185,0.092529,0.058105,1.154785,2.746582,-0.793457,37.292480
7195,0.102661,-0.051514,1.015747,4.028320,-1.647949,36.010742
7205,0.089478,-0.186035,0.877563,5.371094,-2.624512,34.179687
7216,0.090942,-0.294434,0.867187,5.859375,-6.958008,27.221680
7226,0.083496,-0.133179,0.862915,4.333496,-8.789063,23.254395
7235,0.115967,-0.244507,0.782959,3.295898,-10.375977,19.287109
7245,0.155029,-0.293945,0.774292,3.112793,-10.803223,15.502930
7254,0.117432,-0.075317,0.933594,2.380371,-11.840820,12.268066
7265,0.120117,-0.195190,0.948364,1.342773,-12.695313,9.094238
7275,0.138916,-0.233521,0.828247,0.671387,-13.061523,6.347656
7285,0.169189,-0.191040,0.877808,0.244141,-13.427734,4.028320
7295,0.226685,-0.171021,0.940308,0.183105,-15.014648,-0.671387
7305,0.196777,-0.244751,0.983276,0.610352,-15.808105,-3.051758
7315,0.247803,-0.220215,1.084106,0.305176,-16.967773,-5.310059
7325,0.267212,-0.152466,1.093018,-0.793457,-17.639160,-6.958008
7335,0.184082,-0.127075,1.073120,-1.220703,-18.188477,-8.544922
7345,0.147827,-0.158447,1.028564,-1.220703,-18.432617,-10.253906
7355,0.142212,-0.114258,1.023071,-1.647949,-18.615723,-12.939453
7365,0.168701,-0.108276,0.998901,-2.075195,-18.371582,-14.038086
7376,0.054321,-0.095581,1.042236,-1.647949,-18.005371,-14.465332
7386,-0.004395,-0.002686,1.104492,-0.976562,-17.883301,-14.038086
7395,-0.026367,-0.113281,1.022705,-0.427246,-16.784668,-13.488770
7405,-0.063599,-0.238037,0.945801,-0.488281,-15.136719,-12.451172
7415,-0.090698,-0.169189,1.023315,-1.098633,-13.427734,-11.047363
7425,-0.034058,-0.065796,1.102783,-1.159668,-12.634277,-9.826660
7437,0.001343,-0.128174,1.000732,-1.464844,-12.451172,-10.131836
7446,-0.044189,-0.137817,1.081177,-1.892090,-12.084961,-10.559082
7456,0.028076,-0.077026,1.104736,-2.624512,-11.291504,-11.169434
7466,-0.029663,-0.042847,1.096680,-3.234863,-10.559082,-11.718750
7475,-0.020386,-0.048950,1.040771,-4.089355,-10.070801,-11.962891
7485,-0.033081,0.020508,0.955933,-4.150391,-9.582520,-12.329102
7495,-0.065430,-0.123657,0.839844,-4.028320,-8.911133,-12.329102
7507,-0.001099,0.159546,0.962280,-5.310059,-7.385254,-12.207031
7516,0.032104,0.104248,0.887329,-5.249023,-7.019043,-12.084961
7526,-0.001953,0.161621,0.954956,-4.089355,-6.530762,-11.840820
7535,0.047729,0.037598,0.978882,-2.563477,-6.103516,-11.352539
7545,0.012939,-0.201050,0.912720,-1.403809,-5.615234,-10.559082
7556,0.015503,-0.136597,0.933716,-0.732422,-5.004883,-9.582520
7565,-0.019165,-0.070557,0.931519,-0.183105,-4.577637,-7.629395
7575,-0.034546,-0.315796,0.804077,0.671387,-2.563477,-6.591797
7585,0.022827,-0.159180,0.852539,0.488281,-2.380371,-5.859375
7595,0.072998,-0.200928,0.896240,0.366211,-2.502441,-5.187988
7605,0.020508,-0.214600,0.896729,0.061035,-2.746582,-4.455566
7615,-0.027100,-0.146851,0.915161,-0.305176,-2.502441,-3.173828
7625,-0.085693,-0.001709,0.937500,-0.305176,-1.525879,-1.464844
7635,-0.064575,0.039673,0.966797,0.122070,0.671387,1.647949
7645,-0.138916,-0.104370,1.005127,0.366211,1.281738,2.197266
7656,-0.288208,0.094482,1.059814,0.732422,2.136230,2.624512
7665,-0.302612,0.103149,1.063721,0.915527,3.479004,2.990723
7675,-0.284790,-0.063110,0.989380,0.671387,4.699707,2.807617
7685,-0.176880,-0.159790,0.938477,-0.427246,5.676270,2.136230
7696,-0.065186,0.072876,1.004272,-1.953125,6.408691,2.014160
7705,0.022949,0.180664,1.029541,-3.173828,6.835937,3.662109
7717,0.062378,0.186401,0.995239,-3.906250,6.225586,5.432129
7726,0.023560,0.275391,1.071289,-4.333496,5.920410,7.385254
7735,0.011963,0.181030,1.078735,-4.760742,5.676270,8.850098
7746,0.001465,0.247803,1.165405,-5.310059,6.042480,9.887695
7755,0.014526,0.240234,1.195923,-5.371094,6.347656,10.742188
7766,0.050293,0.031006,1.116455,-5.065918,6.164551,10.864258
7775,0.095093,0.201660,1.144287,-4.699707,5.493164,10.192871
7787,0.159912,-0.126221,0.979248,-4.516602,3.479004,10.559082
7796,0.178711,0.152832,0.999268,-3.967285,2.929688,11.596680
7806,0.224365,0.095215,1.000122,-3.112793,2.258301,13.061523
7815,0.137329,-0.219971,0.814697,-2.136230,2.014160,14.343262
7826,0.066162,-0.009766,0.981812,-1.647949,1.770020,14.648438
7835,0.029053,-0.223999,0.890625,-1.586914,0.976562,13.977051
7848,-0.061523,-0.003784,1.102539,-2.563477,0.061035,10.620117
7857,-0.120239,-0.231323,0.994141,-2.319336,-0.671387,7.629395
7867,-0.082397,-0.209473,0.953735,-2.014160,-0.610352,4.516602
7876,-0.091309,-0.193359,0.894287,-2.136230,-0.793457,2.075195
7886,-0.100464,-0.315918,0.800903,-2.929688,-0.671387,-0.122070
7896,-0.019897,-0.319336,0.794922,-4.272461,-0.305176,-1.342773
7905,0.000977,-0.099854,0.918213,-5.065918,0.000000,-1.647949
7915,-0.004639,-0.081177,1.014160,-5.126953,-0.427246,-1.708984
7927,0.013428,-0.140259,1.113037,-3.784180,0.122070,-0.915527
7937,0.010620,-0.187256,1.083618,-3.479004,0.549316,-0.305176
7946,0.020264,-0.158081,0.993774,-3.234863,0.671387,0.854492
7956,0.066284,-0.095825,0.987183,-3.540039,0.671387,2.014160
7965,0.063477,-0.108154,0.997925,-3.356934,0.610352,3.234863
7976,0.059326,-0.062866,1.004517,-2.868652,0.793457,3.967285
7985,0.064697,-0.005127,0.979492,-2.319336,0.732422,6.103516
7997,0.054932,-0.085205,0.971558,-1.464844,0.610352,6.286621
8006,0.042114,0.064453,1.052368,-0.488281,0.427246,6.408691
8015,0.066528,-0.126221,1.001221,1.037598,0.000000,6.530762
8026,0.074097,-0.420532,0.983154,2.197266,-0.732422,5.432129
8035,0.054932,-0.339478,1.076172,2.075195,-0.854492,4.577637
8046,0.117676,-0.302124,1.104980,1.159668,-1.464844,3.417969
8055,0.097290,-0.338501,1.053589,-0.061035,-2.380371,0.610352
8067,0.113159,-0.036377,1.076538,-0.976562,-2.075195,0.610352
8076,0.083130,-0.114624,1.040039,-1.098633,-2.075195,0.488281
8086,0.102295,-0.242065,1.032593,-1.464844,-2.441406,0.305176
8095,0.103271,-0.118652,1.082275,-1.892090,-3.295898,-0.427246
8106,0.014893,-0.043579,1.022339,-1.831055,-4.028320,-0.854492
8116,-0.021240,-0.181641,0.924927,-1.647949,-3.845215,-0.915527
8125,-0.054932,-0.128296,0.910034,-1.525879,-1.770020,1.464844
8137,0.006470,-0.099731,1.031006,-1.464844,-1.403809,2.258301
8147,0.077148,-0.129272,1.010132,-1.464844,-1.281738,2.868652
8156,0.123169,-0.012939,1.043213,-1.159668,-2.380371,2.990723
8166,0.253174,-0.043701,0.979370,-0.976562,-4.455566,2.380371
8175,0.220581,-0.046509,0.875122,-1.220703,-6.713867,1.037598
8185,0.109131,-0.011841,0.717773,-1.037598,-7.629395,0.061035
8198,-0.038696,0.032471,0.788452,-0.549316,-3.356934,2.502441
8207,-0.040649,-0.102905,0.902832,-0.183105,-1.770020,4.150391
8217,-0.008667,-0.246460,1.004883,0.000000,-1.770020,4.699707
8227,0.084961,-0.127930,1.289795,-0.366211,-3.112793,5.187988
8236,0.168335,-0.190430,1.245361,-0.793457,-5.432129,5.371094
8246,0.219971,-0.075684,1.217773,-0.610352,-7.934570,4.577637
8255,0.070190,-0.069580,0.981567,0.366211,-8.911133,4.455566
8268,-0.113159,-0.193604,0.637329,0.732422,-3.723145,8.056641
8277,-0.169312,-0.081177,0.701782,-0.061035,-1.037598,10.009766
8287,-0.233398,-0.082520,0.722046,-0.854492,-0.549316,10.925293
8296,-0.178955,-0.265137,0.723755,-1.281738,-1.403809,11.291504
8306,-0.148315,-0.163940,0.818481,-1.953125,-3.173828,10.864258
8315,-0.085327,-0.016479,0.992187,-2.319336,-4.638672,10.620117
8325,0.003174,-0.315308,0.857666,-1.770020,-5.126953,11.718750
8338,0.032471,-1.433228,-0.879272,-1.342773,-5.554199,14.038086
8347,-0.193726,-2.236938,-1.628052,-4.577637,-4.272461,15.014648
8357,-0.151245,-1.864502,-0.894165,-20.996094,-0.244141,17.150879
8367,-0.220947,-1.854248,-1.809326,-39.855957,-0.793457,15.075684
8376,-0.112549,-0.516357,-0.544189,-57.739258,-1.525879,10.864258
8386,-0.190918,-0.065430,1.130127,-60.180664,-3.845215,6.652832
8395,-0.182861,0.020508,2.936523,-51.452637,-7.385254,-2.014160
8407,-0.028076,0.693115,3.999512,-42.297363,-7.995605,-12.268066
8417,-0.223389,-0.243896,3.339111,-11.535645,-7.019043,-17.700195
8426,-0.242920,-0.744141,2.515869,5.554199,-4.211426,-19.226074
8436,-0.243774,-1.475952,1.447632,13.610840,-1.831055,-21.240234
8445,-0.103882,-1.305786,0.995483,9.765625,-1.831055,-24.963379
8456,-0.059692,-0.672607,1.397095,1.037598,-0.976562,-24.902344
8466,-0.091553,-0.107544,1.368774,-2.624512,0.183105,-22.155762
8477,-0.005981,0.002075,1.880981,1.464844,3.112793,-9.094238
8487,0.575439,1.104980,3.155640,10.009766,11.047363,1.708984
8496,0.820312,1.892090,3.276245,18.371582,6.896973,12.207031
8505,1.004883,2.607544,3.845459,33.203125,-0.549316,19.836426
8516,-0.541016,2.807129,3.856201,52.856445,-3.784180,25.756836
8525,-0.409302,2.868286,3.488647,68.786621,4.821777,32.043457
8536,-0.269897,3.306885,3.788208,74.829102,12.756348,47.058105
8545,0.237671,2.759155,2.438354,79.956055,18.798828,56.945801
8557,0.577637,1.269775,0.897949,96.557617,18.859863,59.387207
8566,0.213867,0.916016,0.452148,96.008301,13.488770,51.330566
8575,-0.053345,0.784302,0.284302,90.942383,8.728027,41.320801
8586,0.042480,0.278564,-0.367188,85.266113,7.141113,32.714844
8595,0.299072,0.077148,-0.446899,78.674316,8.666992,25.085449
8606,0.059448,-0.054932,-0.255005,72.509766,10.009766,18.554687
8617,-0.336914,-0.152954,-0.143188,65.185547,11.108398,8.728027
8627,-0.314209,-0.110718,-0.144897,47.729492,15.319824,4.516602
8636,-0.226074,-0.043213,-0.031006,41.442871,16.784668,-1.220703
8646,0.025146,0.112183,0.156982,38.208008,17.150879,-7.385254
8655,0.075928,-0.041992,0.356934,37.231445,17.395020,-11.291504
8666,0.067505,-0.162598,0.362793,35.644531,16.540527,-14.038086
8677,0.068359,-0.262329,0.258423,27.832031,13.366699,-18.981934
8687,-0.013428,-0.311646,-0.073486,23.803711,10.986328,-21.118164
8697,0.045288,-0.442261,-0.133911,21.179199,9.033203,-21.789551
8706,0.085937,-0.547363,-0.059204,18.066406,6.713867,-21.850586
8716,0.124146,-0.749634,-0.078125,13.732910,4.455566,-22.399902
8726,0.154541,-0.807617,-0.139526,7.812500,2.075195,-23.437500
8736,0.142212,-0.848145,-0.257813,1.464844,-0.366211,-24.536133
8746,0.118652,-0.838379,-0.304077,-4.699707,-2.502441,-25.268555
8756,0.084106,-0.803589,-0.258911,-14.587402,-5.004883,-23.742676
8765,0.023193,-0.890625,-0.281494,-19.897461,-5.920410,-22.338867
8776,0.034302,-0.828003,-0.362061,-25.573730,-5.859375,-20.263672
8786,-0.027100,-0.860718,-0.363159,-31.250000,-5.126953,-17.761230
8796,-0.039063,-0.878784,-0.339600,-37.109375,-4.760742,-15.808105
8806,-0.064453,-0.824951,-0.363403,-42.968750,-4.516602,-13.732910
8816,-0.068237,-0.759521,-0.413208,-48.278809,-2.746582,-8.666992
8826,-0.056152,-0.780396,-0.406982,-59.387207,-2.441406,-6.652832
8836,-0.000366,-0.702881,-0.459106,-64.819336,-1.770020,-4.272461
8846,0.005859,-0.747437,-0.486938,-70.556641,-1.220703,-1.098633
8856,0.010620,-0.874146,-0.489624,-76.599121,-0.427246,2.685547
8866,-0.010864,-0.801147,-0.562744,-83.618164,0.305176,6.103516
8876,0.059082,-0.905396,-0.640381,-91.125488,0.610352,8.911133
8886,0.074463,-0.963745,-0.726562,-99.121094,1.037598,10.986328
8897,0.097534,1.345337,0.929932,-118.286133,0.000000,12.695313
8907,-0.259033,3.043091,3.999512,-105.468750,0.915527,13.793945
8916,0.354492,-0.502808,3.999512,-59.570312,0.488281,20.263672
8926,-0.374756,-3.999512,1.069336,-30.456543,-0.976562,26.428223
8935,0.614990,0.507690,1.875488,-58.776855,3.295898,20.507812
8946,0.013062,3.999512,0.734253,-73.974609,0.122070,13.305664
8956,0.047852,2.282837,-0.458374,-27.282715,-8.850098,18.554687
8967,-0.058716,0.458374,3.999512,10.009766,-14.953613,7.629395
8977,-0.215942,-1.628418,2.766968,-17.395020,-10.986328,4.028320
8986,0.470947,0.468872,2.712646,-15.869141,-5.432129,9.399414
8996,0.461670,0.567261,0.385620,-14.892578,-3.723145,8.789063
9006,0.393066,1.407715,0.870728,-3.112793,-10.375977,4.821777
9016,-0.015747,-0.089722,2.111206,8.300781,-8.911133,4.638672
9026,0.074951,-1.293945,2.540527,15.563965,-10.620117,1.037598
9037,0.174072,0.725098,1.275024,5.676270,-12.939453,-6.103516
9046,0.206299,0.954224,0.235107,-7.568359,-14.526367,-11.962891
9056,0.067871,0.407471,0.384155,8.178711,-17.639160,-15.014648
9066,-0.038208,-0.662476,1.124756,17.028809,-17.272949,-18.310547
9076,0.243774,-1.021240,1.443237,12.207031,-14.892578,-20.935059
9086,-0.011719,-0.469360,1.085938,1.586914,-14.282227,-24.475098
9098,0.192505,0.152710,0.474976,0.610352,-14.282227,-27.526855
9107,0.202148,0.239380,1.137451,7.629395,-14.526367,-26.977539
9116,0.113525,-0.199097,1.454712,10.681152,-12.451172,-27.709961
9126,-0.029541,-0.092163,1.540649,8.605957,-7.873535,-26.428223
9136,-0.105713,0.172852,1.238403,6.530762,-4.760742,-26.123047
9146,-0.265015,0.297363,0.993164,8.178711,-4.150391,-27.893066
9156,-0.461914,0.035278,0.900879,12.573242,-4.760742,-30.029297
9166,-0.414185,-0.210693,0.998901,14.648438,-4.577637,-33.081055
9178,-0.362915,-0.019287,0.826782,9.216309,-1.403809,-37.536621
9187,-0.348511,0.119019,0.497192,7.446289,0.427246,-38.085937
9197,-0.310669,0.138672,0.323853,8.361816,2.197266,-36.315918
9206,-0.191406,0.017334,0.456543,9.826660,5.554199,-31.982422
9217,-0.054077,-0.192261,0.708008,9.460449,9.704590,-25.695801
9226,0.042969,-0.295288,0.874878,6.652832,12.634277,-19.836426
9239,-0.124878,-0.069580,0.663940,0.244141,15.502930,-10.314941
9248,-0.156006,-0.052734,0.591064,-0.915527,17.150879,-6.835937
9258,-0.107910,-0.066284,0.751831,-0.793457,19.348145,-3.845215
9268,-0.051392,-0.120850,0.920288,-0.976562,20.019531,-3.356934
9277,-0.005249,-0.322876,0.917236,-1.831055,18.981934,-3.784180
9287,-0.042969,-0.226929,0.985962,-2.868652,18.005371,-3.662109
9297,0.022949,-0.197876,0.992432,-3.417969,18.066406,-3.540039
9306,0.081055,-0.342041,0.906738,-3.540039,18.127441,-1.525879
9318,0.159912,-0.050049,0.947754,-5.065918,17.578125,-1.403809
9328,0.174561,-0.014038,0.998657,-5.920410,17.578125,-1.708984
9337,0.278198,-0.012939,1.074585,-6.042480,17.700195,-2.258301
9347,0.351440,0.051392,1.151733,-5.249023,16.662598,-2.929688
9356,0.227905,0.047363,1.075562,-3.601074,14.892578,-5.065918
9367,0.202759,0.001831,0.997314,-1.586914,13.977051,-6.835937
9376,0.053101,0.259277,0.969482,-0.122070,13.977051,-9.887695
9388,0.065430,-0.061157,0.966797,4.638672,15.625000,-11.840820
9397,0.012939,-0.308594,0.930786,6.225586,15.197754,-14.038086
9407,-0.037109,-0.374023,1.015991,6.042480,15.319824,-14.709473
9417,-0.027100,-0.442627,1.123291,3.906250,16.418457,-14.648438
9426,-0.042114,-0.400024,1.054321,1.037598,17.822266,-13.671875
9437,-0.042725,-0.093384,1.029541,-1.159668,19.226074,-11.718750
9446,-0.016602,0.227539,0.977173,-1.220703,20.263672,-7.202148
9458,-0.143188,-0.015259,0.699585,2.136230,22.460937,-4.150391
9468,-0.170898,-0.215088,0.734131,2.929688,24.047852,-0.061035
9477,-0.187744,-0.218872,0.991455,1.953125,25.573730,4.394531
9487,-0.188599,-0.302490,1.018555,-0.549316,27.160645,9.216309
9497,-0.163208,-0.227661,0.898437,-1.953125,29.418945,15.319824
9507,-0.129761,0.066895,0.961914,-3.234863,31.738281,21.850586
9519,-0.071655,-0.232422,0.861572,-2.685547,34.118652,33.386230
9529,-0.096436,0.009277,0.949585,-2.807617,33.874512,38.024902
9538,-0.130981,0.096558,1.012451,-2.868652,33.813477,42.053223
9548,-0.268677,-0.125244,0.953857,-2.624512,34.057617,45.654297
9558,-0.217651,-0.217651,0.904175,-1.953125,35.705566,51.513672
9567,-0.209961,-0.131958,0.950439,-1.586914,36.682129,55.480957
9577,-0.218018,-0.005493,0.999634,-2.502441,36.865234,59.082031
9587,-0.216309,0.039429,0.977173,-2.624512,36.743164,66.162109
9596,-0.181519,0.100708,0.973022,-0.793457,36.987305,70.617676
9607,-0.133911,-0.045776,1.007935,1.159668,36.865234,75.012207
9616,-0.155396,-0.167480,1.052734,2.014160,35.644531,79.345703
9627,-0.148560,-0.230957,1.152832,1.342773,34.667969,83.557129
9636,-0.130981,0.041016,1.219482,-0.671387,33.874512,88.562012
9647,0.009888,-0.263062,1.103149,-2.136230,33.447266,94.909668
9656,-0.060913,-0.019165,0.998657,-2.685547,29.724121,100.708008
9666,-0.125488,0.187866,0.972778,-0.915527,28.381348,102.355957
9677,-0.136353,-0.060669,1.290894,0.305176,26.733398,103.637695
9686,-0.107178,-0.149658,1.341187,1.098633,25.207520,104.064941
9697,-0.100952,-0.071655,1.316040,1.464844,23.315430,103.759766
9707,-0.137939,-0.218384,1.156738,2.258301,22.338867,104.309082
9717,-0.090088,0.039795,1.110352,2.197266,21.301270,104.675293
9729,-0.141724,0.260864,1.147095,4.028320,17.333984,102.233887
9739,-0.058716,0.173096,1.370972,7.080078,15.136719,99.731445
9748,-0.026245,0.125610,1.531006,10.498047,12.817383,96.008301
9757,-0.005615,-0.044434,1.521362,13.244629,9.460449,91.430664
9767,0.089478,-0.195801,1.285034,15.747070,5.920410,86.364746
9777,0.161987,-0.247192,1.033936,17.089844,1.647949,80.871582
9786,0.242065,-0.152832,0.890015,17.028809,-3.540039,74.096680
9796,0.205688,-0.103516,0.670532,16.418457,-7.141113,63.903809
9808,0.252197,0.021851,0.951050,16.113281,-10.559082,60.058594
9817,0.255737,-0.076660,1.196899,16.967773,-12.329102,55.358887
9827,0.246582,-0.222168,1.281006,16.662598,-14.343262,49.377441
9837,0.201538,-0.145752,1.175903,14.831543,-16.845703,42.785645
9847,0.235474,0.052490,1.093872,14.160156,-18.615723,36.804199
9857,0.248047,0.008545,0.898682,15.197754,-20.874023,30.212402
9866,0.135498,-0.157593,0.919556,16.601562,-26.550293,15.014648
9878,-0.072510,-0.039307,1.060669,14.343262,-27.648926,7.690430
9887,-0.104736,0.166626,1.076904,11.535645,-26.611328,2.136230
9897,-0.044678,0.267212,0.972656,9.704590,-24.719238,-1.464844
9907,0.037598,0.302490,0.959961,10.192871,-22.949219,-4.028320
9922,-0.020386,0.236816,1.000366,9.216309,-24.291992,-8.300781
9931,-0.035767,0.447144,0.925049,7.507324,-22.399902,-9.765625
9941,-0.049805,0.405273,0.848145,6.225586,-19.531250,-10.314941
9950,0.027344,0.435913,0.948486,6.164551,-17.822266,-10.070801
9960,-0.036621,0.147949,0.827759,6.530762,-16.540527,-8.911133
9969,-0.082520,0.416870,1.019043,5.371094,-15.686035,-7.995605
9979,-0.047974,0.449463,1.108887,3.479004,-14.282227,-6.347656
9988,-0.004150,0.367554,0.960327,1.403809,-12.023926,-3.295898
9998,0.064087,0.629883,1.016602,0.549316,-7.995605,3.845215
10007,0.099243,0.496826,0.960693,2.807617,-7.324219,7.080078
10017,0.098877,0.310669,1.053467,3.662109,-7.446289,9.338379
10027,0.050049,0.127808,1.003174,2.075195,-7.690430,10.803223
10037,0.054932,0.364258,1.050903,-1.281738,-6.958008,12.878418
10047,0.071899,0.507812,0.901855,-3.112793,-5.920410,15.258789
10057,0.088867,0.421265,0.821289,-1.831055,-4.455566,17.944336
10067,0.031128,0.299561,0.840210,0.000000,-4.516602,20.080566
10076,0.011230,0.204956,1.008301,0.427246,-4.821777,22.155762
10088,-0.017456,0.268433,1.070190,-3.417969,-4.089355,23.315430
10097,0.055664,0.413696,1.050659,-5.187988,-2.929688,24.475098
10107,0.142456,0.438110,0.966797,-3.845215,-2.075195,25.695801
10117,0.120605,0.237427,0.934692,-0.183105,-2.075195,26.855469
10127,0.052490,0.253906,1.095581,1.708984,-2.929688,27.465820
10137,-0.047241,0.123047,1.170166,1.892090,-3.540039,27.648926
10147,-0.053223,0.123413,1.183472,-0.732422,-3.356934,26.977539
10158,0.049683,0.281250,1.012451,-1.464844,-2.746582,27.587891
10168,0.057617,0.397461,0.972046,-0.671387,-2.563477,28.259277
10177,0.078003,0.314697,0.930908,0.915527,-2.929688,29.418945
10188,0.057129,0.238403,0.883179,2.258301,-3.173828,30.212402
10197,0.064453,0.348633,0.999634,1.953125,-3.417969,30.883789
10207,0.077515,0.199585,1.068604,2.136230,-3.601074,32.043457
10217,0.072510,0.154419,1.061279,0.305176,-2.929688,34.301758
10228,0.052246,0.221069,1.128418,-0.122070,-2.685547,35.888672
10238,0.035889,0.295776,1.002563,0.183105,-2.319336,37.292480
10247,0.002319,0.219971,0.934326,1.159668,-1.770020,38.635254
10257,-0.012573,0.103149,0.814575,2.502441,-1.892090,38.879395
10267,-0.050537,0.162354,0.820312,2.929688,-2.990723,37.719727
10277,-0.079834,0.018433,0.924194,3.540039,-4.150391,36.499023
10288,-0.039429,-0.177246,0.912842,3.051758,-5.371094,32.836914
10298,-0.041748,-0.182251,0.679810,-0.976562,-5.676270,32.165527
10307,-0.038818,0.010132,0.701904,-3.417969,-4.272461,32.653809
10317,-0.057129,0.132080,0.798950,-5.249023,-2.990723,33.203125
10327,-0.010132,0.192993,0.821167,-5.310059,-2.136230,33.264160
10337,0.004028,0.154907,1.032959,-4.333496,-1.708984,33.020020
10349,0.014893,0.116943,1.366943,0.366211,-3.723145,30.883789
10358,-0.026123,-0.228638,1.427734,0.549316,-5.554199,27.404785
10368,-0.103760,0.000122,1.275269,-1.220703,-5.798340,25.024414
10378,-0.016113,0.239502,1.152100,-0.854492,-4.394531,24.719238
10388,0.037720,0.197266,1.021118,1.220703,-3.112793,25.146484
10397,0.060913,-0.026611,0.857300,3.479004,-2.746582,25.573730
10407,0.035278,-0.034668,0.999023,4.943848,-2.380371,25.878906
10419,0.000610,-0.112183,1.088989,3.967285,-2.990723,24.841309
10428,-0.003540,-0.073975,1.128174,2.380371,-3.723145,23.132324
10438,0.034180,0.061157,1.056274,1.647949,-4.150391,22.033691
10448,0.036865,0.198975,0.980957,1.525879,-4.211426,21.545410
10457,0.067139,0.192749,0.889160,2.319336,-3.845215,21.667480
10468,0.053223,0.287964,0.907349,3.784180,-3.356934,22.338867
10477,0.037476,0.052124,0.948364,5.859375,-3.112793,22.583008
10488,0.020020,-0.101807,0.900635,4.516602,-3.723145,22.277832
10498,-0.042236,0.038696,0.966675,2.319336,-3.112793,23.071289
10508,0.019653,0.207275,0.993652,1.037598,-2.014160,24.230957
10518,0.059326,0.349731,0.971069,-0.183105,-1.525879,25.695801
10527,0.053345,0.379761,0.910156,0.366211,-1.037598,27.282715
10538,0.096191,0.310669,1.000610,1.525879,-0.732422,28.564453
10548,0.070312,0.384277,1.052490,2.258301,-0.854492,29.602051
10557,0.056030,0.212036,1.083618,3.356934,-1.098633,29.724121
10569,0.038940,0.261108,1.004883,3.601074,-1.708984,29.785156
10578,0.047852,0.333374,0.964233,3.906250,-1.953125,29.785156
10588,0.024414,0.224854,0.941406,3.967285,-2.075195,29.663086
10597,0.007935,0.326294,0.990723,3.356934,-2.319336,29.174805
10608,-0.024170,0.217285,0.974121,2.136230,-2.319336,28.991699
10617,0.041626,0.274170,0.994873,1.220703,-1.525879,28.991699
10630,0.064209,0.301392,1.008911,1.037598,-0.244141,28.808594
10639,0.030640,0.147583,1.029175,1.770020,-0.244141,28.198242
10649,-0.004517,0.112549,1.024292,1.708984,-1.037598,26.489258
10658,-0.030884,0.176147,0.995239,0.427246,-1.647949,24.780273
10667,0.039673,0.241699,0.996826,-0.427246,-1.708984,23.925781
10677,0.058960,0.185547,0.968750,0.000000,-1.464844,23.864746
10687,0.032837,0.149292,1.037598,0.671387,-1.098633,24.047852
10699,0.016235,0.162720,1.079468,-0.915527,-0.610352,24.414062
10708,0.129150,0.240234,1.010376,-0.915527,0.244141,25.024414
10718,0.137451,0.262329,1.012695,-0.610352,-0.183105,25.146484
10727,0.108643,0.229492,0.982422,0.122070,-0.488281,25.146484
10737,0.054687,0.208008,0.993896,1.037598,-0.732422,25.268555
10748,0.056885,0.117676,1.030029,1.892090,-0.793457,24.902344
10757,0.065918,0.057739,1.021851,1.403809,-1.281738,24.597168
10768,0.036011,0.142578,1.021973,0.427246,-0.793457,24.902344
10778,0.077393,0.079834,0.953491,1.281738,-0.366211,25.329590
10788,0.042480,0.100220,1.039551,1.586914,-0.366211,25.329590
10797,-0.019775,0.015015,1.022461,1.525879,-0.427246,25.329590
10808,-0.037720,0.106689,1.017700,0.549316,-0.061035,25.390625
10817,0.001221,0.077148,0.991333,0.000000,0.732422,25.756836
10828,0.012817,0.137573,1.001709,0.305176,1.525879,26.367187
10837,-0.000244,0.104858,1.036377,0.549316,1.525879,26.794434
10848,-0.024292,0.022827,0.986572,1.342773,1.831055,27.648926
10858,-0.028564,0.036011,1.024536,1.831055,2.319336,28.503418
10868,-0.014771,0.026367,1.013794,1.586914,2.746582,29.663086
10877,-0.026367,0.049561,0.958374,1.159668,3.417969,31.372070
10888,-0.016113,0.102417,0.945435,1.220703,4.760742,33.569336
10897,-0.005127,0.048584,0.985474,1.464844,5.920410,36.315918
10908,-0.067139,0.002563,1.006836,1.159668,7.385254,39.916992
10918,-0.090942,-0.009277,1.035767,0.427246,7.812500,41.198730
10928,-0.015625,0.172119,1.018311,-0.244141,8.666992,42.663574
10937,0.041260,0.119629,0.953369,0.122070,9.155273,43.762207
10948,0.070190,0.083984,0.998657,1.220703,9.094238,44.616699
10957,0.023804,0.102173,1.054199,1.586914,8.300781,45.227051
10968,0.005005,0.032349,1.003906,1.281738,8.117676,45.776367
10980,0.034302,0.166260,0.980835,0.122070,9.460449,48.583984
10989,0.038818,0.156982,0.984985,0.549316,10.009766,49.682617
10999,0.029907,0.097412,1.006836,0.732422,10.437012,51.208496
11008,0.053101,0.138062,1.033203,1.159668,10.803223,52.612305
11017,0.036255,0.048340,1.042480,1.831055,11.291504,54.016113
11028,-0.003784,-0.014282,1.043823,1.464844,11.352539,54.931641
11037,-0.003296,0.069214,1.033081,0.671387,11.535645,55.847168
11048,0.027222,0.055298,0.989502,0.915527,12.756348,59.020996
11058,0.024414,0.154541,0.984985,0.976562,13.305664,60.607910
11067,0.031616,0.093506,1.013184,2.075195,13.610840,62.011719
11078,0.037720,-0.013794,0.987183,2.563477,13.549805,63.232422
11087,0.028076,-0.037842,1.006836,2.502441,13.977051,64.270020
11098,0.011597,0.005859,1.012329,2.563477,13.793945,65.490723
11107,-0.007446,-0.017334,0.961304,2.258301,14.099121,66.833496
11120,-0.036133,0.007324,0.970459,2.685547,15.014648,69.824219
11129,-0.020386,-0.033203,0.979980,2.502441,15.808105,71.533203
11139,-0.042480,-0.015137,1.034180,2.319336,16.113281,73.242187
11148,-0.008301,0.014404,1.040649,2.502441,16.540527,74.462891
11158,0.040405,-0.007080,1.009277,2.929688,17.211914,76.171875
11168,0.063354,0.007690,0.998779,3.295898,17.639160,77.575684
11177,0.039917,-0.021118,1.023560,3.784180,17.456055,78.918457
11190,0.011597,-0.090210,0.984253,4.211426,18.249512,81.787109
11199,0.021118,-0.010498,0.996216,3.662109,18.737793,83.007812
11209,0.067505,0.039429,0.985352,3.356934,19.348145,84.289551
11218,0.094849,-0.012085,0.962402,3.845215,19.531250,85.510254
11228,0.069702,0.002563,1.010620,4.394531,19.165039,86.120605
11238,0.053833,0.031372,1.070557,4.638672,18.615723,86.364746
11247,0.087891,0.026123,1.060303,4.821777,18.066406,86.242676
11260,0.102539,0.090942,1.016479,4.760742,17.822266,86.547852
11269,0.154175,0.127808,1.024536,5.249023,18.066406,86.608887
11278,0.131592,0.080078,1.033691,6.103516,18.005371,87.097168
11288,0.120728,0.117554,1.064331,6.408691,18.005371,87.524414
11298,0.133057,0.052734,1.011230,7.019043,18.127441,87.890625
11307,0.171753,0.041016,1.009766,7.507324,18.066406,88.317871
11318,0.132202,0.067871,1.023560,7.995605,18.005371,88.317871
11327,0.092407,0.062378,1.031982,8.544922,17.456055,88.195801
11339,0.110718,-0.010254,0.996582,9.643555,17.150879,87.646484
11348,0.107666,0.023560,0.991577,9.887695,16.296387,86.791992
11358,0.127686,0.089722,1.000610,10.314941,15.991211,86.242676
11368,0.112427,-0.050659,0.997437,10.803223,15.502930,85.998535
11378,0.081787,-0.046265,1.011230,11.169434,14.953613,85.083008
11388,0.120483,0.004028,1.005981,11.108398,14.343262,84.167480
11397,0.146240,0.011841,0.989746,11.230469,14.221191,83.984375
11409,0.085205,-0.002808,1.000488,11.779785,13.793945,83.679199
11418,0.108154,-0.010376,1.008911,12.023926,13.732910,83.007812
11428,0.117432,-0.011841,1.000732,12.145996,13.793945,82.397461
11438,0.107788,-0.023560,1.009277,12.390137,13.671875,81.604004
11447,0.138428,-0.054077,1.003296,12.512207,13.061523,80.200195
11458,0.151611,-0.023926,1.013916,12.939453,12.084961,78.735352
11470,0.167847,0.028687,1.045532,13.793945,10.070801,74.707031
11480,0.183960,-0.005005,1.018433,14.221191,9.460449,72.753906
11489,0.145996,-0.019043,1.010620,14.221191,8.666992,71.228027
11498,0.187378,0.009644,1.000732,14.526367,8.178711,69.824219
11508,0.222290,0.009521,1.000366,14.648438,7.690430,68.481445
11518,0.202393,0.060547,1.019165,14.831543,7.385254,67.199707
11528,0.174805,0.057495,1.016479,15.197754,6.530762,65.612793
11537,0.209229,-0.001343,0.997925,15.625000,5.981445,62.255859
11549,0.203125,0.051636,1.023804,15.869141,4.455566,60.180664
11558,0.215332,0.029785,1.013916,16.174316,3.845215,58.044434
11568,0.209839,0.010376,0.998657,16.235352,2.868652,56.030273
11578,0.182007,0.040894,0.982666,16.235352,2.258301,54.016113
11587,0.169556,0.061401,1.000366,16.357422,1.403809,51.940918
11598,0.211670,-0.000854,1.007324,16.418457,1.220703,50.415039
11609,0.198120,0.054932,1.014160,16.235352,1.098633,48.706055
11619,0.223633,0.044556,1.012085,16.479492,-0.305176,45.410156
11628,0.200439,0.050049,1.008423,16.052246,-0.732422,44.067383
11637,0.160522,0.114258,1.020264,15.808105,-1.037598,43.090820
11648,0.203979,0.068970,0.979980,15.930176,-0.732422,42.480469
11658,0.199097,0.050049,0.958496,16.052246,-0.976562,42.297363
11668,0.164062,0.103027,0.980469,15.625000,-1.464844,41.992187
11680,0.177368,0.091919,1.011719,15.197754,-1.647949,40.771484
11690,0.155640,0.117310,1.017456,14.770508,-1.892090,40.161133
11699,0.191895,0.093262,0.997070,14.770508,-1.770020,39.550781
11708,0.203125,0.079834,0.979492,14.526367,-1.770020,39.123535
11718,0.199707,0.156738,1.015991,14.038086,-1.831055,38.818359
11728,0.233643,0.164062,0.999878,14.160156,-1.892090,38.696289
11737,0.267578,0.103882,0.948853,14.038086,-1.953125,38.818359
11750,0.125488,0.209839,0.970215,13.671875,-2.502441,39.367676
11760,0.120361,0.161255,1.008667,13.488770,-2.014160,39.916992
11770,0.109009,0.163940,1.028320,13.122559,-1.159668,41.137695
11779,0.150513,0.167480,0.990479,12.634277,-0.244141,42.114258
11788,0.201050,0.162720,0.956787,12.573242,0.427246,43.151855
11799,0.249634,0.149170,0.959595,12.878418,0.610352,43.945312
11808,0.202393,0.168823,0.958984,13.000488,0.000000,44.616699
11820,0.136597,0.040649,0.969849,13.183594,15.319824,44.982910
11829,0.098511,0.026733,0.976562,13.305664,0.427246,44.982910
11838,0.089844,0.046143,0.944214,12.634277,0.305176,44.738770
11848,0.094238,0.082031,0.953125,12.084961,0.549316,45.166016
11858,0.130615,0.103882,0.987915,11.779785,1.098633,45.532227
11868,0.143677,0.135010,1.001709,11.962891,1.525879,46.081543
11880,0.118408,0.055542,0.980957,12.145996,1.403809,46.875000
11889,0.127441,0.121094,0.990112,12.084961,1.953125,47.790527
11899,0.164185,0.079468,0.937866,11.657715,2.197266,48.522949
11909,0.159790,0.096436,0.946655,11.962891,2.319336,49.499512
11918,0.147827,0.114990,0.995728,11.840820,2.685547,50.842285
11928,0.124390,0.099731,0.975708,12.023926,3.601074,52.612305
11938,0.091553,0.032837,0.944336,12.084961,3.784180,54.016113
11949,0.065918,0.047607,0.994263,11.169434,4.516602,56.579590
11959,0.056030,0.052368,1.017334,10.437012,5.187988,57.189941
11968,0.105591,0.095215,1.005127,10.131836,5.981445,57.434082
11978,0.144043,0.121460,1.023804,9.887695,6.286621,57.678223
11989,0.157715,0.144409,1.010986,9.826660,6.225586,57.495117
11998,0.136108,0.074951,1.005249,10.314941,6.042480,57.067871
12009,0.120361,0.052002,1.039063,10.314941,5.615234,56.518555
12018,0.098999,0.064819,1.040161,9.338379,5.554199,55.725098
12029,0.167358,0.154785,0.991699,8.422852,5.981445,55.297852
12039,0.165771,0.154907,0.980957,8.361816,6.958008,54.931641
12048,0.165894,0.129395,0.980225,8.666992,6.835937,54.992676
12058,0.123169,0.064941,1.020630,9.033203,6.591797,54.687500
12069,0.119385,0.066406,1.021118,9.155273,6.225586,54.565430
12078,0.134644,0.043701,0.996582,8.850098,6.347656,54.504395
12090,0.148682,0.108032,0.990723,8.178711,6.591797,54.443359
12099,0.130249,0.171387,0.948486,8.361816,7.263184,55.236816
12109,0.155273,0.135376,0.957153,8.483887,7.751465,56.518555
12118,0.142456,0.197266,0.994751,8.728027,8.239746,57.495117
12129,0.105835,0.154297,1.007080,8.850098,8.605957,58.776855
12138,0.144897,0.094482,0.997559,9.033203,9.033203,59.753418
12148,0.164795,0.081787,1.019165,9.277344,9.460449,60.607910
12160,0.151001,0.086304,1.004517,9.155273,10.437012,62.194824
12169,0.171509,0.079834,0.988159,9.582520,11.169434,62.988281
12178,0.164185,0.083008,0.996216,10.131836,11.230469,63.598633
12188,0.136475,0.032715,0.983398,10.437012,11.169434,63.659668
12198,0.109253,0.036499,1.009766,10.742188,11.047363,63.476562
12209,0.087280,0.053589,1.023804,10.620117,10.864258,63.598633
12218,0.098145,0.029663,0.989746,10.620117,10.986328,63.415527
12229,0.110596,0.042236,0.989502,10.131836,11.535645,63.598633
12239,0.113647,0.179810,1.037598,10.314941,11.901855,64.025879
12249,0.128174,0.086060,0.955933,10.375977,12.207031,64.514160
12259,0.149292,0.089111,0.992432,10.620117,12.145996,65.490723
12268,0.125488,0.087158,0.989502,10.559082,12.451172,66.528320
12279,0.092163,0.075317,0.972778,10.314941,13.122559,67.565918
12288,0.084961,0.073853,0.993286,9.887695,13.549805,68.481445
12300,0.125000,0.067749,0.974487,9.521484,14.892578,70.373535
12309,0.127930,0.131470,1.007202,9.582520,15.075684,71.044922
12319,0.160034,0.131104,0.988159,10.009766,15.197754,71.716309
12328,0.178345,0.090088,0.953003,10.253906,14.953613,71.716309
12339,0.190308,0.116455,1.000122,10.742188,14.770508,71.716309
12349,0.178345,0.119751,1.003906,10.742188,14.526367,71.716309
12359,0.139160,0.101196,0.966553,10.620117,14.892578,71.655273
12368,0.152588,0.136353,0.974121,10.620117,15.197754,71.533203
12380,0.165771,0.094116,0.939575,10.559082,15.625000,71.411133
12389,0.149414,0.101074,0.972656,10.375977,15.502930,71.289062
12398,0.130005,0.131836,1.000122,10.253906,15.380859,71.411133
12409,0.121216,0.114014,0.993286,10.375977,15.380859,71.289062
12418,0.135498,0.076294,0.957275,10.681152,15.380859,71.350098
12428,0.125366,0.086670,0.987427,10.681152,15.319824,71.472168
12440,0.109619,0.088867,0.956909,10.681152,16.113281,72.937012
12449,0.105591,0.103516,0.988159,10.620117,17.028809,73.974609
12458,0.144531,0.109253,0.962280,10.681152,17.883301,74.951172
12469,0.141357,0.131958,0.986328,10.498047,18.493652,76.232910
12478,0.128052,0.140869,1.007202,10.620117,19.042969,77.514648
12489,0.142456,0.146362,1.015503,10.925293,19.531250,78.613281
12498,0.141479,0.099609,0.994385,11.047363,19.836426,79.223633
12509,0.154053,0.112793,0.984619,10.986328,20.874023,80.444336
12519,0.172607,0.179687,1.012085,11.108398,21.057129,80.993652
12529,0.127808,0.125732,0.992310,11.352539,21.728516,80.993652
12539,0.142456,0.109131,1.000610,11.413574,21.911621,80.810547
12549,0.159180,0.104370,1.026245,11.413574,21.972656,80.505371
12558,0.159790,0.162354,1.065063,11.779785,22.216797,80.261230
12569,0.109985,0.157349,1.065186,11.535645,22.216797,79.589844
12581,0.374268,0.028564,1.050537,12.512207,22.399902,79.101562
12590,0.290161,0.523682,0.992798,13.854980,22.033691,79.406738
12599,0.437134,0.391846,1.095093,16.906738,21.789551,79.589844
12609,0.363525,0.098633,1.061768,20.080566,21.057129,79.528809
12619,0.080688,0.006958,0.960205,21.240234,19.348145,78.430176
12628,0.042358,-0.026001,0.910889,20.874023,17.517090,75.866699
12639,0.000977,-0.012573,0.938843,19.653320,16.479492,72.814941
12651,0.187988,0.197754,0.978271,16.906738,16.601562,67.871094
12660,0.236816,0.234375,0.953003,17.089844,16.662598,66.528320
12670,0.260864,0.228882,0.968750,18.615723,16.174316,65.734863
12679,0.312744,0.226562,1.030029,20.263672,15.258789,64.819336
12689,0.265625,0.239258,1.002686,21.179199,13.977051,64.208984
12698,0.262573,0.191528,0.986816,22.277832,12.695313,63.171387
12709,0.313965,0.199951,0.990479,23.010254,11.779785,61.950684
12721,0.328735,0.254883,0.925659,23.071289,11.352539,60.974121
12730,0.291382,0.244141,0.907959,23.010254,10.864258,60.852051
12740,0.314575,0.268066,0.875610,23.376465,10.864258,60.913086
12749,0.344727,0.283081,0.910645,23.986816,10.742188,61.157227
12759,0.343994,0.264526,0.973145,24.658203,10.192871,61.340332
12769,0.306519,0.255127,0.971436,25.329590,9.643555,61.096191
12778,0.260132,0.256104,0.938232,26.062012,9.094238,60.913086
12790,0.271973,0.192505,0.920288,26.794434,8.422852,61.767578
12799,0.274048,0.201538,0.968384,26.794434,8.544922,62.561035
12809,0.226440,0.187256,0.972046,26.550293,8.728027,63.354492
12818,0.195068,0.161743,0.916138,26.367187,8.972168,64.270020
12829,0.239014,0.098022,0.887939,26.123047,9.216309,65.002441
12839,0.223267,0.097778,0.921143,25.512695,9.216309,65.612793
12848,0.126953,0.105957,0.974121,24.658203,8.483887,65.612793
12861,0.141724,-0.019043,0.969238,24.047852,9.399414,65.185547
12871,0.174927,-0.021851,0.975464,22.888184,9.094238,65.063477
12880,0.142578,0.031982,0.992798,21.606445,8.789063,64.514160
12889,0.105713,0.066772,1.004395,20.751953,8.911133,64.270020
12899,0.118286,0.092407,1.000366,19.836426,9.582520,64.025879
12909,0.195312,0.116211,1.016968,18.798828,10.009766,63.720703
12919,0.229248,0.157227,1.012207,18.066406,10.131836,63.537598
12928,0.180786,0.194946,0.993042,17.883301,9.826660,63.598633
12940,0.238281,0.178467,0.984619,17.883301,10.131836,63.842773
12949,0.287354,0.179932,0.952026,18.066406,10.375977,63.964844
12959,0.245605,0.181152,0.974854,18.249512,10.070801,63.964844
12969,0.204712,0.178223,0.980835,18.615723,9.765625,63.415527
12979,0.215942,0.155518,0.991089,18.920898,9.704590,62.805176
12989,0.261841,0.140747,0.997192,18.981934,9.887695,62.133789
13001,0.248413,0.162964,1.005859,18.676758,10.253906,61.462402
13011,0.224976,0.141357,0.979614,18.798828,10.253906,61.706543
13020,0.267456,0.162231,0.971802,19.287109,10.559082,62.011719
13029,0.285034,0.132568,0.956909,19.653320,10.559082,62.133789
13039,0.284424,0.115356,0.967163,20.080566,10.131836,62.622070
13049,0.224487,0.100830,0.982910,20.935059,9.399414,63.049316
13059,0.193481,0.096436,1.001953,22.155762,9.155273,62.500000
13069,0.224854,0.096802,1.028198,22.888184,8.544922,60.729980
13080,0.206421,0.056885,1.018311,24.536133,7.812500,59.509277
13089,0.171875,0.031372,1.012085,25.329590,7.263184,58.044434
13099,0.213745,0.060547,1.062500,26.000977,7.019043,56.701660
13109,0.242920,0.046143,1.074341,26.550293,6.591797,55.480957
13119,0.206421,0.080688,1.146851,27.160645,6.042480,54.321289
13130,0.165894,0.221313,1.312988,27.648926,5.676270,53.405762
13139,0.117676,0.276001,1.399170,30.761719,7.568359,52.185059
13150,0.284302,0.171997,1.273682,32.714844,7.934570,51.513672
13160,0.272827,0.058838,1.156738,34.790039,6.713867,50.842285
13169,0.251221,-0.033081,0.997437,36.865234,4.577637,49.865723
13179,0.270386,-0.083252,0.851685,37.963867,2.868652,48.583984
13189,0.262817,-0.122192,0.855713,38.330078,1.098633,47.485352
13199,0.256836,-0.109131,0.873901,38.208008,-0.366211,46.142578
13211,0.325562,-0.050903,0.973145,37.414551,-2.441406,40.466309
13221,0.348633,-0.026611,0.951294,36.254883,-3.112793,37.414551
13230,0.391479,-0.027710,0.936157,35.034180,-3.845215,34.057617
13240,0.451660,0.003052,0.899170,33.691406,-4.455566,29.785156
13249,0.470459,-0.018066,0.850708,31.921387,-5.126953,25.512695
13259,0.472900,0.003418,0.824951,30.029297,-6.164551,21.423340
13271,0.459839,0.010986,0.841431,26.733398,-8.300781,15.197754
13280,0.465454,0.064209,0.840454,25.634766,-8.850098,12.817383
13289,0.428833,0.180176,0.836060,25.268555,-9.460449,10.925293
13299,0.422241,0.174316,0.845337,25.390625,-10.437012,8.728027
13310,0.396973,0.095459,0.840820,25.390625,-11.779785,5.798340
13319,0.403809,0.061279,0.839233,25.024414,-13.305664,2.563477
13329,0.333618,-0.027222,0.847046,24.536133,-15.197754,-0.671387
13339,0.334961,0.018311,0.855591,23.315430,-16.784668,-4.455566
13351,0.309082,-0.011597,0.894165,21.850586,-18.066406,-9.338379
13360,0.325073,0.063965,0.850830,18.310547,-18.127441,-11.535645
13370,0.402222,0.106689,0.847900,16.906738,-17.822266,-13.244629
13379,0.441406,0.201782,0.911621,15.747070,-17.456055,-14.404297
13389,0.464355,0.220459,0.889648,15.014648,-17.883301,-15.319824
13400,0.451538,0.183472,0.893677,14.587402,-18.127441,-15.197754
13409,0.441528,0.219604,0.945068,14.343262,-18.310547,-14.465332
13421,0.384888,0.170776,0.983643,14.221191,-17.761230,-11.840820
13430,0.329102,0.092896,0.944580,14.404297,-17.517090,-10.559082
13440,0.368042,0.100464,0.864014,14.404297,-17.211914,-8.911133
13449,0.356079,0.111206,0.884155,14.526367,-16.784668,-7.141113
13460,0.329834,0.182617,0.989990,14.465332,-16.845703,-5.371094
13470,0.318970,0.191040,1.007446,14.831543,-16.723633,-1.953125
13481,0.311157,0.091431,0.894775,15.502930,-14.709473,7.019043
13490,0.275513,0.121704,0.879639,14.892578,-13.977051,10.986328
13500,0.248901,0.100098,0.947144,13.854980,-13.183594,14.587402
13509,0.240479,0.101563,1.017944,13.244629,-12.451172,17.395020
13520,0.210327,0.078369,0.988525,13.122559,-11.779785,19.836426
13530,0.256592,-0.014160,0.893921,13.244629,-11.291504,21.972656
13539,0.233154,0.000732,0.894897,12.817383,-11.535645,23.071289
13549,0.280762,0.033569,0.856079,12.695313,-12.756348,23.132324
13561,0.308472,-0.044556,1.007568,12.817383,-14.831543,21.606445
13570,0.311035,-0.066162,0.938599,13.610840,-16.479492,19.409180
13580,0.328003,-0.159180,0.929321,13.610840,-17.761230,16.113281
13590,0.373291,-0.145508,0.946167,13.366699,-18.676758,12.145996
13600,0.439697,-0.171753,0.912964,12.878418,-20.446777,6.408691
13610,0.477783,-0.189819,0.957520,12.084961,-22.949219,-0.854492
13622,0.579834,-0.166748,1.026245,11.596680,-28.198242,-17.211914
13632,0.561157,-0.230469,0.995483,11.352539,-30.944824,-26.245117
13641,0.602295,-0.233887,0.954102,10.925293,-33.569336,-35.217285
13651,0.596436,-0.214844,0.989014,10.192871,-35.888672,-43.884277
13660,0.606689,-0.213501,0.960327,9.704590,-38.452148,-52.612305
13670,0.621216,-0.222412,0.925049,9.338379,-40.527344,-60.363770
13680,0.607788,-0.233765,0.923096,8.728027,-41.992187,-67.138672
13690,0.537720,-0.264648,0.897339,8.056641,-44.921875,-78.857422
13700,0.541748,-0.278931,0.868042,6.347656,-45.715332,-83.923340
13710,0.520874,-0.254639,0.923706,5.676270,-46.569824,-88.745117
13720,0.507324,-0.315430,0.917725,5.187988,-47.241211,-93.261719
13730,0.431519,-0.251587,0.939209,4.394531,-47.668457,-96.923828
13740,0.426514,-0.220825,0.888062,3.845215,-48.522949,-100.036621
13749,0.425171,-0.227051,0.865356,3.234863,-48.278809,-101.135254
13761,0.384888,-0.194092,0.864502,1.708984,-46.264648,-99.792480
13771,0.257813,-0.159424,0.855103,1.098633,-45.288086,-97.900391
13780,0.233154,-0.292114,0.810669,0.854492,-43.579102,-95.642090
13790,0.195435,-0.257202,0.913574,0.000000,-41.931152,-93.627930
13800,0.151245,-0.219238,0.952759,-0.671387,-41.015625,-92.285156
13810,0.138062,-0.231445,0.919067,-0.854492,-40.283203,-92.407227
13820,0.073364,-0.294434,0.870239,-0.854492,-39.550781,-93.078613
13830,0.065430,-0.247192,0.901611,-0.732422,-38.391113,-98.205566
13841,0.100342,-0.306885,0.969116,-1.342773,-36.865234,-100.463867
13851,0.141602,-0.232300,0.932373,-2.075195,-36.926270,-103.393555
13861,0.212036,-0.198608,0.935303,-2.746582,-36.804199,-105.590820
13870,0.239868,-0.151978,0.915283,-2.868652,-35.644531,-106.018066
13880,0.234497,-0.104370,0.917725,-2.502441,-34.362793,-105.163574
13891,0.250488,-0.114380,0.895264,-1.892090,-32.836914,-103.576660
13900,0.198364,-0.093506,0.968506,-1.220703,-29.602051,-98.632812
13910,0.229126,-0.082031,0.978882,-1.098633,-27.954102,-95.642090
13921,0.205933,-0.034546,1.000244,-0.732422,-26.733398,-92.895508
13930,0.208740,-0.052612,0.994995,-0.549316,-26.123047,-91.735840
13940,0.171631,0.005249,0.998169,-0.793457,-25.512695,-90.698242
13950,0.130493,0.012329,0.994629,-0.854492,-24.658203,-89.111328
13960,0.084961,0.066040,1.017700,-1.037598,-23.559570,-87.280273
13970,0.072510,0.055420,1.000977,-0.793457,-21.484375,-84.350586
13981,0.099731,0.165649,0.925049,-1.159668,-18.615723,-82.824707
13991,0.050293,0.214478,0.936646,-1.525879,-17.456055,-81.604004
14001,0.059326,0.204346,1.032837,-1.403809,-16.113281,-80.444336
14010,-0.048340,0.208252,1.144043,-0.793457,-14.953613,-79.345703
14020,-0.136963,0.128052,1.183472,-0.122070,-14.648438,-78.247070
14030,-0.201538,0.037964,1.164917,0.488281,-14.038086,-77.514648
14040,-0.215332,0.081665,1.124268,0.427246,-13.000488,-74.707031
14052,-0.308350,0.054199,0.987671,1.220703,-12.023926,-72.265625
14061,-0.314331,-0.057129,0.940918,2.075195,-9.704590,-68.176270
14071,-0.296143,-0.121216,0.943237,2.807617,-7.019043,-63.537598
14080,-0.243042,-0.174683,0.947632,2.746582,-4.394531,-58.288574
14090,-0.252441,-0.192139,0.969727,2.746582,-1.647949,-52.490234
14100,-0.172729,-0.140869,0.941284,2.563477,1.159668,-46.691895
14110,-0.161499,-0.118286,0.936157,2.624512,5.310059,-35.522461
14122,-0.074097,-0.015625,0.917725,3.295898,6.774902,-30.517578
14131,-0.049805,0.013428,0.977783,3.479004,8.117676,-25.756836
14140,-0.021240,0.010132,1.051392,3.601074,9.521484,-21.545410
14150,-0.041138,0.091919,1.056396,3.601074,10.314941,-17.761230
14160,-0.018799,0.101563,1.022095,3.356934,11.230469,-14.404297
14172,-0.058716,0.081299,0.993164,2.929688,12.512207,-9.216309
14181,-0.036987,0.103271,1.013550,2.868652,12.451172,-7.507324
14192,-0.099121,0.036377,0.993530,2.990723,12.268066,-5.981445
14201,-0.133789,0.020874,1.015381,2.868652,12.207031,-3.723145
14211,-0.176392,0.002197,0.981079,2.624512,12.634277,-0.976562
14220,-0.194824,-0.025146,0.927734,2.441406,13.122559,2.075195
14231,-0.249146,-0.018555,0.909058,2.380371,13.488770,5.187988
14240,-0.248901,-0.002319,0.943115,2.441406,14.465332,9.033203
14252,-0.288696,-0.081665,0.952271,2.807617,17.639160,16.845703
14262,-0.287109,-0.039429,0.974365,2.685547,18.615723,19.714355
14271,-0.282593,-0.097900,0.975098,2.746582,19.165039,21.545410
14280,-0.216309,-0.020874,0.974609,2.929688,19.531250,22.277832
14290,-0.156250,-0.015747,0.961304,3.356934,19.653320,22.399902
14300,-0.117188,-0.033081,0.938721,3.417969,19.470215,22.277832
14311,-0.055908,0.026001,0.986938,3.234863,19.775391,22.460937
14320,-0.050781,-0.016479,1.036377,3.295898,20.080566,24.780273
14332,0.010376,-0.060425,1.055176,2.746582,19.775391,25.085449
14341,0.016235,-0.060547,0.993530,2.624512,19.104004,25.329590
14350,0.005371,-0.072266,0.964722,2.319336,18.676758,25.573730
14361,-0.060913,-0.134888,0.980225,2.075195,17.822266,25.268555
14370,-0.061401,-0.131104,0.990112,1.892090,16.906738,24.414062
14382,-0.087036,-0.205200,1.025757,1.708984,16.052246,23.437500
14391,-0.052734,-0.173950,0.970215,1.647949,15.625000,22.827148
14400,-0.036743,-0.183960,0.930908,1.220703,14.892578,22.338867
14411,0.005737,-0.145508,0.975586,0.915527,14.587402,22.338867
14421,0.018311,-0.130859,0.985474,0.793457,14.221191,23.010254
14430,0.089233,-0.124512,0.989990,0.793457,13.671875,23.925781
14441,0.074341,-0.102173,0.997803,0.732422,13.488770,25.146484
14450,0.113403,-0.039673,1.035156,0.610352,13.244629,26.733398
14462,0.042358,-0.070068,0.974731,0.610352,13.305664,29.418945
14471,0.021851,-0.010132,1.037720,-0.061035,13.122559,30.639648
14481,0.025513,-0.050659,1.033325,-0.183105,13.000488,31.799316
14490,0.023071,-0.058960,1.057983,-0.366211,12.634277,32.531738
14501,0.014648,-0.046509,1.050659,-0.488281,11.657715,32.897949
14510,0.020264,-0.082275,1.014282,-0.793457,10.375977,32.531738
14521,0.026978,-0.099854,0.962402,-0.610352,8.850098,31.433105
14530,0.050049,-0.018066,0.976929,-0.122070,7.141113,28.930664
14542,0.014282,-0.219116,0.883667,-0.244141,6.103516,27.343750
14551,0.160400,-0.103760,0.953491,-0.122070,5.554199,25.146484
14561,0.005615,-0.144775,1.035889,-0.183105,4.821777,23.010254
14570,0.065796,-0.153564,1.057739,-0.488281,4.150391,19.531250
14581,0.078247,-0.136353,1.016357,-0.915527,2.807617,14.953613
14590,0.013428,-0.057617,1.004028,-1.586914,1.037598,9.826660
14602,0.125488,-0.146484,0.964722,-1.159668,0.122070,2.197266
14611,0.192505,-0.208496,0.955444,-0.061035,-0.122070,-0.427246
14621,0.206543,-0.184448,1.035400,-0.366211,-0.915527,-2.868652
14631,0.249512,-0.163452,1.097290,-0.976562,-2.197266,-5.187988
14640,0.142456,-0.157227,0.995605,-1.342773,-3.295898,-6.958008
14651,0.212524,-0.066895,0.995117,-1.342773,-4.272461,-8.605957
14661,0.138916,-0.083252,1.067505,-1.342773,-5.126953,-11.352539
14671,0.134644,-0.150391,1.038696,-0.793457,-5.920410,-12.451172
14681,0.074341,-0.250122,1.104492,-0.854492,-6.103516,-14.160156
14691,0.085571,-0.196411,1.049683,-1.586914,-6.469727,-15.930176
14700,0.031372,-0.098999,1.005981,-1.770020,-7.568359,-18.249512
14710,0.081421,-0.087158,1.010498,-1.464844,-7.873535,-20.263672
14721,0.074463,-0.109375,0.989380,-1.159668,-7.568359,-21.545410
14730,0.019409,0.016479,0.691650,-0.793457,-7.568359,-22.827148
14740,-0.064087,-0.017944,0.883911,-0.061035,-6.225586,-24.169922
14751,0.152588,-0.121948,1.003296,-0.854492,-5.615234,-23.803711
14761,-0.095703,-0.056274,1.001221,-1.525879,-5.615234,-24.230957
14770,-0.051025,-0.018188,0.981812,-1.342773,-5.432129,-24.475098
14780,-0.088257,-0.107300,1.001465,-0.549316,-5.126953,-24.902344
14791,0.003296,-0.163452,0.951050,-0.061035,-4.150391,-25.512695
14801,-0.009644,-0.142456,1.013794,-0.488281,-3.112793,-27.832031
14811,-0.065552,-0.115845,1.057373,-1.525879,-2.502441,-29.907227
14820,-0.035645,0.023193,1.003662,-1.281738,-2.746582,-31.433105
14831,0.008545,-0.027710,0.973999,-0.366211,-2.014160,-31.799316
14841,0.040894,-0.177368,0.979614,0.305176,-1.708984,-31.188965
14850,0.002808,-0.175171,0.984131,0.366211,-1.464844,-29.357910
14861,-0.003052,-0.108887,1.029663,0.000000,-1.098633,-27.282715
14871,-0.048950,-0.103760,0.990112,0.244141,-0.610352,-25.146484
14880,0.015259,-0.045166,1.052368,0.244141,0.915527,-20.751953
14891,-0.003418,-0.044312,0.971924,-0.183105,1.770020,-18.554687
14901,-0.033447,0.044800,0.947876,-0.732422,2.563477,-16.113281
14911,-0.041382,0.138672,0.992432,-0.976562,3.723145,-13.427734
14921,-0.085083,0.200439,1.040039,-0.976562,4.821777,-10.864258
14931,-0.070190,0.087158,1.008179,-0.244141,5.798340,-8.728027
14941,-0.072266,-0.050049,0.947754,0.000000,6.713867,-7.263184
14950,-0.027466,0.019775,1.145874,-0.793457,7.019043,-4.760742
14960,0.042480,0.048462,0.975464,-0.915527,6.225586,-3.479004
14971,0.042969,0.015137,0.835571,-0.854492,5.981445,-2.014160
14980,0.063110,0.035645,0.860840,-0.976562,5.920410,-0.061035
14991,0.085693,-0.015381,0.898560,-1.098633,6.225586,1.586914
15000,0.116333,-0.011353,0.982910,-1.342773,6.225586,2.990723
15012,0.127930,0.049194,1.114380,-0.976562,6.042480,6.164551
15021,0.070312,-0.107178,0.917114,-1.037598,5.798340,6.958008
15031,0.103149,-0.038940,0.918091,-1.647949,5.249023,7.507324
15041,0.062866,0.020020,0.943970,-2.380371,5.004883,8.056641
15050,0.043213,0.101318,1.032837,-2.380371,4.516602,8.728027
15061,0.057495,0.080322,1.050659,-1.892090,4.089355,9.582520
15071,0.106689,0.001587,0.990112,-1.464844,3.845215,10.070801
15080,0.074585,0.012207,0.952026,-1.708984,3.540039,10.803223
15092,0.153687,0.169922,1.059204,-2.441406,3.479004,12.512207
15101,0.170654,0.121216,1.017212,-2.014160,2.868652,13.610840
15111,0.192261,0.069580,1.022339,-1.708984,2.563477,14.221191
15120,0.224609,0.071167,1.081787,-1.953125,1.647949,15.258789
15131,0.231323,0.084473,1.072144,-2.380371,0.793457,16.174316
15140,0.223877,0.139038,1.075928,-2.563477,-0.244141,16.906738
15151,0.079712,0.077759,1.152222,-2.746582,-1.892090,18.066406
15162,-0.223633,-0.157471,1.093140,-2.746582,0.427246,18.737793
15171,-0.127441,-0.049316,0.975830,-3.295898,2.136230,16.662598
15181,-0.178345,0.160767,0.852051,-2.502441,1.892090,14.160156
15190,-0.315918,0.059570,0.796631,-1.037598,0.732422,11.352539
15201,-0.322144,-0.191895,0.838257,-0.549316,0.183105,9.948730
15210,-0.311646,-0.280518,0.986328,-1.159668,0.305176,10.192871
15222,-0.161621,-0.274780,1.032593,-3.173828,3.906250,14.221191
15231,0.023926,-0.111206,0.933960,-2.624512,5.920410,17.395020
15241,-0.126221,-0.193237,0.961426,-1.586914,6.408691,19.775391
15250,-0.246094,-0.278320,0.994019,-1.220703,6.652832,22.033691
15261,-0.256836,-0.314575,1.014282,-1.831055,6.774902,23.437500
15271,-0.205078,-0.296753,1.010986,-2.380371,7.324219,24.230957
15280,-0.163086,-0.282104,0.975220,-2.014160,7.690430,23.742676
15292,-0.079224,-0.353638,0.931030,-0.976562,7.812500,23.559570
15301,-0.005005,-0.301147,0.949097,-1.647949,7.446289,24.108887
15311,0.097900,-0.264526,0.949463,-2.319336,7.324219,25.451660
15320,0.184082,-0.243652,0.960693,-2.380371,7.568359,28.259277
15331,0.168457,-0.270752,0.963135,-1.953125,8.117676,31.066895
15341,0.147705,-0.380615,0.958618,-1.586914,8.056641,33.874512
15351,0.134277,-0.384521,0.992432,-1.953125,7.873535,36.193848
15361,0.099609,-0.396729,0.995117,-2.197266,7.446289,37.658691
15372,0.067383,-0.377563,0.998535,-2.624512,5.554199,39.001465
15381,0.085083,-0.403198,0.959106,-1.831055,4.699707,38.940430
15391,0.129028,-0.453247,0.950073,-1.403809,3.906250,38.940430
15400,0.156860,-0.477417,0.941162,-1.281738,2.502441,39.245605
15411,0.177124,-0.386230,0.971802,-1.953125,1.525879,40.161133
15421,0.163696,-0.330444,0.975342,-2.136230,0.671387,41.503906
15430,0.153320,-0.355713,0.944946,-2.075195,0.183105,43.090820
15442,0.151001,-0.410767,0.996582,-1.647949,-0.488281,45.532227
15451,0.096069,-0.437622,1.015747,-1.281738,-1.892090,45.715332
15461,0.051758,-0.367188,1.012695,-1.464844,-2.746582,45.288086
15471,0.015991,-0.385620,1.015503,-1.586914,-3.540039,44.494629
15480,0.072876,-0.387085,0.991577,-1.342773,-4.760742,43.457031
15491,0.063354,-0.411011,0.954224,-0.976562,-6.042480,42.236328
15501,0.052490,-0.399048,0.944702,-0.427246,-7.202148,39.978027
15513,0.044312,-0.373413,1.048950,-0.976562,-8.666992,38.940430
15522,0.018921,-0.414429,1.011108,-1.220703,-9.521484,37.719727
15532,-0.004761,-0.382690,1.041870,-1.159668,-10.131836,36.621094
15541,-0.064453,-0.354370,1.001465,-0.976562,-10.375977,35.888672
15551,-0.043091,-0.453491,0.973755,-0.183105,-10.681152,35.827637
15561,-0.032227,-0.504150,0.919189,0.061035,-11.169434,35.705566
15573,-0.085937,-0.439697,0.894287,-0.793457,-12.207031,34.484863
15583,-0.039673,-0.303467,1.002197,-1.037598,-12.695313,33.508301
15592,0.000977,-0.283691,1.066406,-0.366211,-13.305664,31.921387
15602,-0.000977,-0.377808,0.974976,0.671387,-13.854980,30.273437
15611,-0.015381,-0.429077,0.919312,0.976562,-14.343262,29.052734
15621,-0.058960,-0.458740,0.901001,0.976562,-14.404297,28.015137
15631,-0.023804,-0.495239,0.953857,0.610352,-14.465332,26.306152
15641,-0.043213,-0.502319,0.910156,0.488281,-15.014648,23.803711
15650,-0.050537,-0.509155,0.930298,-0.122070,-16.174316,15.502930
15661,-0.069214,-0.514771,1.004883,-0.915527,-17.028809,10.681152
15671,-0.136963,-0.498047,1.025269,-1.159668,-17.456055,5.371094
15681,-0.112427,-0.413818,1.031494,-1.403809,-18.554687,0.000000
15691,-0.148926,-0.276489,0.998779,-0.915527,-19.287109,-4.699707
15700,-0.117676,-0.258667,0.982666,-0.793457,-19.409180,-8.300781
15712,-0.079224,-0.324097,0.984375,-0.854492,-18.859863,-16.479492
15722,-0.061890,-0.223999,0.976074,-0.610352,-18.554687,-20.629883
15732,-0.085815,-0.236328,1.005127,-0.671387,-18.310547,-24.841309
15741,-0.102173,-0.198486,0.923096,-0.793457,-17.639160,-28.686523
15751,-0.051758,-0.221313,1.052246,-0.671387,-17.150879,-32.714844
15761,-0.102051,-0.141235,0.908447,-0.854492,-17.089844,-36.560059
15770,-0.164429,-0.156494,0.886108,-1.159668,-15.502930,-39.428711
15782,-0.207886,-0.151733,0.862915,-2.502441,-10.131836,-42.114258
15792,-0.017334,-0.004395,1.174194,-3.112793,-8.789063,-43.273926
15802,-0.024048,-0.001343,1.209839,-2.868652,-8.789063,-45.227051
15812,-0.062500,0.016357,1.062500,-2.075195,-8.422852,-46.569824
15821,-0.056152,-0.029419,0.986084,-1.464844,-7.812500,-47.546387
15831,-0.068848,0.003296,0.988281,-1.647949,-6.286621,-48.583984
15841,-0.049683,0.119995,0.955688,-1.831055,-5.004883,-49.377441
15851,-0.045898,0.134888,1.035156,-1.464844,-3.967285,-49.804687
15861,-0.068481,0.134033,0.984253,-1.037598,-2.258301,-49.316406
15871,-0.024658,0.064697,0.943237,-1.098633,-1.281738,-48.278809
15881,-0.026855,0.083618,0.982300,-1.098633,-0.122070,-45.959473
15891,0.007568,0.159668,1.001953,-0.732422,1.770020,-42.419434
15901,0.023437,0.164795,1.020020,-0.793457,3.417969,-38.330078
15911,-0.042358,0.187988,0.964844,-0.854492,5.249023,-34.118652
15921,-0.040405,0.169067,1.000366,-0.610352,7.141113,-25.207520
15931,-0.067505,0.177490,1.009277,0.122070,10.375977,-21.606445
15942,-0.119019,0.094971,1.038086,0.305176,11.169434,-18.127441
15951,-0.121460,0.020020,1.053955,0.549316,12.268066,-14.831543
15962,-0.024414,-0.046509,1.114502,0.488281,13.000488,-11.962891
15971,0.067871,-0.047729,1.187744,0.366211,13.061523,-9.582520
15982,0.044556,0.060913,1.220337,-0.122070,11.535645,-7.019043
15991,0.012939,0.017334,1.092773,-0.244141,10.742188,0.976562
16002,0.149048,0.019409,0.930054,0.244141,13.122559,6.469727
16012,0.120605,-0.092896,0.946533,0.549316,14.587402,11.657715
16021,0.084229,-0.126099,0.950562,0.976562,15.441895,15.686035
16031,-0.025635,-0.342407,0.930054,1.403809,14.831543,18.310547
16041,-0.084351,-0.325928,0.936768,1.281738,13.183594,19.287109
16051,-0.116699,-0.303955,0.954468,1.342773,11.535645,19.165039
16061,-0.029907,-0.308472,0.981567,1.403809,10.925293,18.371582
16072,0.109375,-0.449219,0.809204,2.258301,10.192871,17.639160
16082,0.058472,-0.452515,0.769531,2.136230,9.277344,17.150879
16091,-0.028809,-0.370972,0.860596,2.136230,9.521484,16.662598
16101,-0.110718,-0.459473,0.894287,1.708984,9.643555,15.747070
16111,-0.128296,-0.480347,0.840088,1.281738,9.704590,14.221191
16121,-0.104004,-0.594116,0.737671,0.793457,9.460449,11.840820
16134,-0.190308,-0.422241,0.783936,-1.464844,8.544922,6.896973
16143,-0.265137,-0.355835,0.933350,-2.380371,9.033203,3.417969
16153,-0.293335,-0.193237,1.155518,-2.441406,10.131836,1.037598
16163,-0.185059,-0.106201,1.266846,-1.281738,11.047363,-0.854492
16173,-0.084961,-0.401733,1.087036,1.037598,11.413574,-1.953125
16182,-0.055786,-0.475342,0.934326,2.136230,10.986328,-2.197266
16192,-0.001465,-0.423584,0.872681,1.892090,10.864258,-0.671387
16201,0.003540,-0.430908,0.865723,0.000000,12.573242,5.004883
16213,0.036621,-0.357178,0.782715,-0.610352,13.793945,9.094238
16222,0.040405,-0.430420,0.887207,-0.854492,14.404297,13.671875
16232,0.104126,-0.515625,0.973389,-1.220703,14.282227,16.784668
16241,0.138550,-0.496582,1.029785,-1.892090,13.183594,18.737793
16252,0.224854,-0.439941,1.160278,-2.685547,11.108398,19.409180
16261,0.236450,-0.368774,1.133545,-2.502441,8.911133,19.287109
16271,0.200317,-0.290894,1.100952,-1.403809,6.713867,19.531250
16282,0.208252,-0.414673,1.033325,0.244141,5.187988,20.446777
16292,0.198120,-0.638550,0.917603,0.366211,4.272461,21.240234
16301,0.213257,-0.317383,1.078491,-0.488281,3.234863,21.118164
16311,0.160522,-0.466431,0.995117,-0.915527,1.708984,20.080566
16321,0.073242,-0.203491,1.073730,-0.976562,0.305176,18.188477
16331,-0.053833,-0.304565,1.107788,-0.122070,-0.366211,16.113281
16341,-0.082397,-0.239014,1.097900,0.305176,-0.305176,10.742188
16352,-0.243774,-0.205200,1.049805,0.976562,0.366211,7.873535
16362,-0.260864,0.050659,1.082275,0.549316,1.342773,5.004883
16371,-0.260498,0.207031,1.138184,-0.488281,1.708984,2.136230
16382,-0.243652,0.021484,0.951172,-1.403809,2.075195,-0.244141
16391,-0.094971,0.347778,1.111084,-2.197266,2.807617,-1.464844
16401,-0.001221,0.253784,1.076660,-3.051758,3.234863,-1.831055
16414,0.203369,0.289917,1.145020,-3.723145,3.601074,-0.366211
16423,0.278198,0.202271,1.038086,-3.601074,4.272461,2.197266
16432,0.377441,0.208618,0.788208,-3.662109,3.906250,4.699707
16442,0.390625,0.485229,1.133057,-4.516602,2.929688,6.469727
16452,0.436646,0.464600,1.200928,-3.601074,1.953125,7.690430
16461,0.383301,0.338013,1.122192,-0.732422,1.403809,9.216309
16472,0.346924,0.151123,0.954102,1.647949,0.427246,10.620117
16481,0.287109,0.024780,1.068115,3.356934,-1.098633,11.535645
16492,0.160767,-0.302856,0.731079,4.760742,-3.601074,12.878418
16502,0.259399,-0.219482,0.717163,3.540039,-4.150391,15.014648
16511,0.140381,-0.141357,0.870850,1.770020,-4.943848,17.517090
16521,0.056152,-0.076782,0.994751,0.427246,-6.042480,19.348145
16531,-0.035156,0.100220,1.016479,0.427246,-6.469727,19.897461
16541,-0.074585,-0.030273,1.072632,1.708984,-6.286621,19.714355
16553,-0.046997,-0.194824,0.983643,3.112793,-5.615234,19.042969
16563,-0.039307,-0.156128,0.997437,3.662109,-6.469727,16.479492
16572,-0.025024,-0.099365,0.935181,2.929688,-8.056641,14.892578
16581,0.024414,-0.054077,1.002441,3.051758,-9.216309,13.671875
16591,0.004639,0.065918,1.032104,3.601074,-9.277344,13.122559
16601,0.029663,-0.074951,1.072021,3.967285,-8.422852,13.366699
16611,-0.019165,0.015625,1.123657,3.295898,-7.873535,13.488770
16623,-0.184204,0.023804,1.026855,2.502441,-7.690430,12.084961
16633,-0.182739,-0.036499,1.009155,2.502441,-7.141113,10.742188
16642,-0.211182,0.014282,0.939087,2.319336,-6.591797,9.338379
16652,-0.212646,0.003174,0.947021,2.502441,-6.225586,8.056641
16661,-0.138184,-0.046509,0.955200,2.502441,-6.103516,6.713867
16671,-0.122681,-0.098267,1.026611,2.197266,-6.469727,5.371094
16682,-0.062988,-0.102051,1.050049,1.770020,-6.347656,4.394531
16691,0.001587,-0.047852,0.990479,1.525879,-6.042480,2.319336
16701,0.070679,-0.191895,0.968140,1.220703,-6.286621,0.793457
16712,0.166748,-0.168823,1.005371,0.854492,-6.286621,-1.281738
16721,0.230591,-0.256592,0.985229,0.610352,-7.202148,-3.234863
16731,0.191772,-0.298340,0.977295,0.488281,-8.117676,-5.493164
16742,0.199951,-0.225342,0.978027,-0.122070,-9.094238,-7.202148
16751,0.132324,-0.231934,0.975098,-0.183105,-9.765625,-8.911133
16761,0.142822,-0.285156,1.000122,-15.380859,-10.742188,-12.023926
16773,0.118408,-0.187012,1.021240,0.244141,-10.864258,-12.329102
16782,0.060547,-0.160400,0.933838,0.610352,-10.925293,-11.962891
16792,0.084961,-0.426025,0.907471,1.525879,-11.169434,-11.779785
16801,0.054932,-0.543213,0.800659,1.586914,-10.742188,-11.779785
16812,-0.027100,-0.353638,0.833130,-0.488281,-10.192871,-11.535645
16822,-0.046387,-0.017456,0.925781,-1.953125,-9.094238,-11.596680
16831,-0.001831,-0.202515,1.012573,-2.319336,-9.094238,-12.023926
16841,0.019531,-0.041748,1.021118,-4.028320,-8.850098,-11.474609
16851,0.032837,0.195923,0.996582,-4.821777,-8.178711,-9.704590
16861,-0.012939,-0.059692,0.952393,-3.356934,-7.507324,-7.934570
16871,-0.002319,-0.114136,0.984497,-1.831055,-6.896973,-7.080078
16882,-0.040527,-0.237183,0.924561,-1.708984,-6.652832,-6.469727
16891,-0.027710,-0.128540,1.031616,-2.258301,-6.347656,-6.103516
16901,-0.055420,-0.018921,1.063965,-2.136230,-5.554199,-4.638672
16913,-0.168701,-0.070068,1.045898,-1.464844,-4.760742,-3.540039
16923,-0.160278,-0.192627,0.928833,-1.403809,-3.784180,-2.014160
16932,-0.148193,-0.229980,0.740845,-1.647949,-2.624512,-0.610352
16942,-0.155396,-0.307617,0.632446,-2.624512,-1.892090,0.549316
16951,-0.082764,0.063965,1.170410,-5.004883,-1.098633,1.647949
16961,-0.043457,0.028442,1.208008,-4.699707,-0.549316,3.051758
16973,-0.127197,0.024658,1.276489,-1.708984,-0.854492,2.563477
16983,-0.206055,-0.335571,0.916382,-0.244141,-0.671387,1.953125
16992,-0.116821,-0.278198,0.864380,-0.610352,-0.183105,0.732422
17002,-0.097046,-0.075073,0.858276,-2.136230,-0.244141,0.976562
17012,-0.143188,-0.137695,0.866699,-2.929688,0.305176,2.441406
17022,-0.162231,-0.006958,1.015137,-3.601074,0.915527,3.906250
17031,-0.158936,-0.045898,0.998291,-3.173828,2.441406,5.554199
17043,-0.064209,-0.125488,1.026855,-2.685547,4.028320,6.408691
17052,-0.059448,-0.103516,1.059082,-3.601074,2.929688,3.784180
17062,-0.100098,-0.000488,1.064453,-3.295898,2.380371,2.563477
17072,-0.106689,-0.027588,1.002319,-2.380371,2.197266,0.976562
17082,-0.108276,-0.061890,0.963135,-1.342773,2.624512,-0.671387
17091,-0.097778,-0.048828,0.962280,-1.403809,2.807617,-1.892090
17102,0.015137,-0.170288,0.919312,-1.342773,2.807617,-2.075195
17111,0.077026,-0.068970,0.875366,-2.380371,2.319336,-1.159668
17123,0.118652,-0.120728,0.985840,-2.563477,1.770020,-1.098633
17133,0.128052,-0.006592,1.089966,-2.380371,1.586914,-1.342773
17142,0.136841,-0.109375,1.025513,-1.770020,1.586914,-1.770020
17152,0.102539,-0.219482,0.980103,-1.098633,1.037598,-3.173828
17161,0.059326,-0.162476,0.916138,-0.976562,0.244141,-5.493164
17173,0.013794,-0.177490,0.892456,-0.366211,-0.183105,-9.033203
17182,0.037720,-0.195435,0.866089,-0.549316,-0.610352,-10.864258
17192,0.014282,-0.254639,0.890015,-1.037598,-1.159668,-12.145996
17202,0.056396,-0.176025,0.882446,-2.014160,-1.708984,-13.732910
17212,0.012329,-0.093994,0.950073,-2.990723,-1.525879,-14.038086
17221,0.072266,-0.044189,0.973389,-3.723145,-0.610352,-13.305664
17232,0.117554,-0.013306,1.028442,-3.845215,0.305176,-12.023926
17242,-0.019775,-0.128784,0.962524,-3.601074,0.793457,-8.483887
17252,0.064819,-0.113403,1.021362,-4.699707,0.854492,-6.774902
17261,0.022949,-0.097534,1.011230,-5.187988,1.525879,-4.150391
17272,0.026001,0.060059,1.110718,-5.187988,1.953125,-2.746582
17282,0.017822,-0.033447,1.112061,-4.516602,1.831055,-1.464844
17292,-0.000122,0.033447,1.055054,-3.662109,1.525879,-1.586914
17302,0.043091,-0.253540,0.968262,-2.502441,1.342773,-1.647949
17311,0.068237,-0.529907,0.815796,-1.892090,0.915527,-1.159668
17324,-0.046875,0.163330,0.963135,-5.432129,0.671387,2.746582
17333,-0.162964,-0.135376,1.218872,-4.150391,1.953125,4.211426
17343,-0.190796,-0.292114,1.149048,-3.295898,2.807617,5.065918
17352,-0.159668,-0.213867,1.088013,-3.845215,3.479004,4.760742
17362,-0.132812,-0.163086,1.041626,-3.784180,2.929688,2.319336
17372,-0.165405,-0.260010,0.852905,-2.563477,2.197266,-0.366211
17381,-0.109741,-0.293457,0.910278,-2.136230,1.708984,-2.136230
17393,-0.053101,-0.261353,0.984375,-2.441406,2.258301,-2.380371
17403,-0.076416,-0.193481,0.998413,-2.807617,3.051758,-1.770020
17412,-0.034302,-0.261475,0.919678,-2.685547,4.150391,-0.671387
17422,0.062622,-0.228882,0.965088,-2.685547,4.882812,0.488281
17431,0.045654,-0.287476,0.946045,-2.685547,4.882812,0.549316
17442,0.033813,-0.172363,1.018311,-2.929688,4.211426,-0.793457
17452,0.029663,-0.139282,1.070435,-2.868652,3.662109,-2.319336
17463,0.109619,-0.239624,1.006714,-2.685547,2.136230,-7.812500
17473,0.121826,-0.209717,0.938477,-1.892090,0.366211,-11.596680
17482,0.113037,-0.170166,0.876465,-2.319336,-1.586914,-15.075684
17492,0.137695,-0.199097,0.807617,-3.051758,-1.220703,-16.113281
17502,0.166626,-0.109131,0.906738,-3.967285,-0.244141,-15.625000
17512,0.082397,-0.130615,0.977539,-4.638672,0.427246,-14.526367
17522,0.059326,0.041748,1.069702,-4.577637,1.037598,-13.977051
17533,0.031616,-0.084961,1.174316,-3.906250,1.098633,-15.930176
17543,0.033569,-0.216797,1.111084,-0.976562,0.732422,-17.578125
17552,0.107300,-0.105591,1.007935,-0.305176,0.305176,-18.798828
17562,0.132446,-0.209351,0.823730,0.000000,0.061035,-18.554687
17572,0.159668,-0.104736,0.947632,0.244141,0.183105,-17.150879
17581,0.160156,-0.310425,0.857788,0.427246,1.159668,-14.648438
17593,0.151855,-0.182251,0.883545,-0.183105,2.563477,-9.277344
17602,0.163452,-0.139282,0.991821,-0.671387,2.624512,-8.117676
17612,0.093262,-0.284790,0.923340,-0.854492,2.136230,-7.263184
17621,0.066772,-0.131714,0.982910,-0.976562,1.586914,-7.202148
17632,0.026123,-0.198608,0.908936,-0.793457,1.220703,-7.141113
17641,0.037476,-0.019775,1.006104,-0.671387,1.342773,-6.835937
17652,0.012817,-0.235718,0.935059,-0.610352,1.220703,-5.920410
17662,0.034180,-0.134155,1.054565,-0.610352,1.464844,-4.638672
17673,0.077759,0.009521,1.022217,-1.159668,2.380371,-0.488281
17683,0.010620,-0.130127,0.997803,-1.403809,2.929688,1.770020
17692,-0.030884,-0.000244,1.011230,-2.319336,2.746582,3.784180
17702,-0.076538,0.082275,1.115479,-2.868652,2.929688,5.187988
17711,-0.157104,0.062622,1.065796,-2.502441,3.662109,6.713867
17722,-0.185669,0.070801,1.112549,-1.953125,4.516602,8.117676
17731,-0.163696,0.016113,1.125000,-1.464844,5.249023,8.850098
17743,-0.175903,-0.059814,1.046265,-1.098633,5.187988,10.070801
17752,-0.148315,-0.049438,1.067749,-0.305176,6.286621,11.535645
17762,-0.179932,-0.107422,0.990601,-0.122070,7.385254,13.122559
17771,-0.176270,-0.139771,0.928711,-0.366211,8.422852,14.404297
17781,-0.111450,-0.289429,0.899780,-0.183105,9.033203,15.625000
17792,-0.047119,-0.099976,0.904053,-0.976562,9.582520,16.601562
17802,-0.004028,-0.137451,0.960693,-1.708984,9.094238,16.967773
17811,0.020020,-0.083740,0.960083,-2.441406,6.958008,16.540527
17823,0.077271,-0.015747,1.059448,-2.136230,6.286621,16.174316
17832,0.116455,-0.149292,0.967163,-1.647949,5.554199,15.380859
17842,0.091797,-0.083496,0.973267,-1.342773,5.004883,15.441895
17851,0.100708,-0.035767,1.162598,-1.464844,4.577637,15.441895
17862,0.140015,-0.062134,1.171387,-0.732422,3.845215,15.441895
17872,0.128174,0.026733,1.250488,0.000000,3.173828,15.441895
17883,0.053711,-0.090210,1.033325,0.976562,1.281738,14.282227
17893,0.075195,-0.254272,0.814941,2.746582,0.305176,13.488770
17902,0.032959,-0.301392,0.767090,2.624512,-0.305176,13.061523
17911,0.020630,-0.235229,0.679687,1.403809,-0.427246,12.634277
17922,0.008911,-0.192261,0.707153,-0.183105,-0.488281,12.084961
17932,-0.009155,-0.176270,0.694092,-2.136230,-0.244141,11.840820
17941,0.006958,-0.122070,0.850220,-3.417969,-0.305176,11.230469
17952,0.037598,-0.079590,0.989990,-3.906250,-2.319336,7.812500
17961,-0.013184,-0.062988,1.009521,-3.723145,-3.417969,5.554199
17972,0.017700,-0.200439,1.110352,-3.356934,-3.967285,3.234863
17982,0.010986,-0.211670,1.017334,-3.356934,-4.028320,1.098633
17992,0.073853,-0.033203,1.141968,-3.051758,-4.150391,-0.610352
18002,0.104980,-0.193115,1.060669,-1.647949,-4.089355,-1.647949
18012,0.128784,-0.171021,1.088745,-0.976562,-3.723145,-2.258301
18023,0.190918,-0.265869,1.043701,-0.488281,-4.577637,-3.356934
18033,0.128296,-0.331909,0.910278,-0.793457,-5.187988,-3.845215
18042,0.090332,-0.158813,0.969727,-1.342773,-5.371094,-4.333496
18052,0.142334,-0.150024,1.051147,-1.647949,-5.798340,-5.004883
18062,0.106689,-0.254639,1.037109,-1.647949,-6.591797,-5.981445
18071,0.036743,-0.097168,1.113281,-1.770020,-7.446289,-7.141113
18083,0.063599,-0.276367,1.031738,-2.319336,-7.873535,-8.483887
18093,0.043091,-0.121704,0.984131,-2.136230,-7.385254,-8.056641
18102,-0.011719,-0.129761,0.954102,-2.197266,-6.896973,-7.263184
18112,0.001099,-0.131470,0.961426,-2.014160,-6.042480,-5.981445
18121,-0.078125,-0.283936,0.829102,-1.892090,-4.760742,-3.967285
18131,-0.093384,0.011108,0.918701,-2.868652,-3.845215,-1.892090
18142,-0.111694,-0.053345,0.963867,-2.685547,-2.746582,0.122070
18152,-0.151733,0.019409,1.084717,-2.075195,-2.014160,1.647949
18163,-0.148315,-0.214233,1.066162,-0.305176,-1.586914,2.746582
18173,-0.169312,-0.157104,1.041870,0.061035,-1.342773,2.990723
18182,-0.179810,-0.212280,0.996948,0.061035,-0.793457,3.417969
18192,-0.245117,-0.188843,0.994629,-0.976562,0.366211,3.967285
18202,-0.222412,-0.002930,1.037231,-2.075195,1.708984,4.577637
18212,-0.186523,-0.014038,1.039429,-2.746582,2.685547,5.126953
18222,-0.163818,0.059692,1.030640,-2.624512,3.356934,5.249023
18233,-0.120850,0.069702,1.020630,-1.159668,3.540039,3.295898
18243,-0.108765,0.020996,0.992676,0.366211,3.356934,2.380371
18252,-0.080322,-0.106934,1.013428,1.831055,3.051758,2.014160
18262,-0.039429,-0.066040,0.944946,2.868652,3.356934,2.380371
18272,-0.059326,-0.290771,0.741699,3.601074,4.089355,3.906250
18282,-0.078247,-0.191772,0.757202,3.112793,5.065918,5.432129
18292,-0.118164,-0.239258,0.711182,1.953125,5.981445,7.141113
18303,-0.113281,-0.144653,0.843506,-0.854492,6.958008,8.666992
18313,-0.089111,-0.060181,0.959839,-1.708984,6.591797,8.422852
18323,-0.067383,-0.059204,0.996582,-2.197266,5.737305,7.507324
18332,0.004395,-0.130005,0.992065,-2.014160,5.737305,6.958008
18341,0.049194,-0.012817,1.053589,-1.586914,5.676270,6.958008
18352,0.136841,-0.208252,0.985840,-1.403809,5.310059,7.629395
18361,0.205078,-0.089600,1.025391,-1.220703,5.004883,8.300781
18373,0.016357,-0.096680,1.048462,-0.610352,4.028320,10.192871
18383,0.170288,0.011597,1.131226,0.366211,4.272461,10.437012
18392,0.106201,-0.222168,1.118652,0.854492,3.784180,10.009766
18402,0.083252,-0.058838,1.057861,0.427246,2.502441,8.544922
18412,0.047241,0.021606,1.140259,0.427246,1.586914,7.873535
18422,-0.022827,-0.026123,1.091431,0.915527,0.793457,6.469727
18431,-0.028687,0.002930,1.096680,1.586914,0.427246,5.432129
18443,-0.088989,-0.350952,0.999878,2.502441,0.671387,5.004883
18453,-0.049438,-0.110107,0.956665,1.525879,1.586914,5.859375
18462,-0.004761,-0.212036,0.843872,0.732422,2.258301,7.080078
18472,0.018188,-0.158813,0.813721,-0.183105,2.441406,7.873535
18482,0.053223,-0.238892,0.750732,-1.525879,1.770020,7.812500
18492,0.100830,-0.115479,0.805420,-3.356934,1.159668,6.896973
18502,0.105347,-0.182373,0.875122,-4.455566,-15.136719,2.746582
18512,0.051880,-0.202026,0.933594,-6.958008,-0.610352,-0.427246
18522,0.061768,0.020630,1.050049,-7.202148,-1.098633,-3.479004
18532,0.091064,-0.089844,1.054688,-6.958008,-1.831055,-6.347656
18543,0.040649,-0.249512,1.031494,-6.347656,-2.319336,-8.117676
18552,0.064087,-0.141113,1.044067,-6.225586,-2.685547,-9.460449
18562,0.071655,-0.269653,0.885498,-6.103516,-3.112793,-9.704590
18574,0.105835,-0.129395,0.930664,-6.042480,-2.075195,-7.934570
18584,0.075928,-0.142578,0.929687,-5.676270,-1.647949,-6.774902
18594,0.116699,-0.181885,0.925415,-5.737305,-1.098633,-5.798340
18603,0.089966,-0.125000,1.034668,-5.310059,-0.854492,-4.943848
18612,0.060059,-0.004272,1.134521,-4.516602,-0.732422,-4.516602
18622,-0.011108,-0.147461,1.036621,-3.723145,-0.549316,-4.699707
18632,0.040161,-0.145386,0.997925,-2.685547,-0.610352,-5.065918
18642,-0.009277,-0.165405,1.019531,-1.770020,-0.915527,-4.760742
18652,0.002563,-0.299194,0.948608,-1.831055,-0.610352,-2.807617
18662,0.030029,-0.101563,1.002075,-1.220703,-0.244141,-1.281738
18672,0.000610,-0.215820,0.946655,-0.488281,0.183105,0.305176
18682,-0.017944,-0.126221,0.989380,-0.305176,0.549316,1.525879
18692,0.010742,-0.217041,0.912842,-0.671387,0.976562,2.136230
18702,-0.021851,-0.184570,0.873657,-0.915527,1.464844,2.807617
18713,-0.001953,-0.249023,0.937744,-3.234863,0.976562,2.441406
18722,0.027100,0.021606,0.937622,-4.943848,0.488281,2.136230
18733,-0.012085,-0.125244,0.933716,-5.615234,0.244141,2.136230
18742,-0.006836,-0.029907,1.059570,-6.713867,0.366211,1.892090
18752,0.038574,0.039063,1.157959,-7.263184,0.793457,1.831055
18762,0.024902,0.020264,1.203003,-7.080078,1.159668,2.197266
18772,0.040527,-0.036621,1.096924,-6.164551,1.037598,2.502441
18783,0.035400,0.028931,1.122070,-4.455566,1.342773,4.638672
18793,0.059570,-0.004028,1.031860,-3.540039,1.586914,5.981445
18802,0.141724,-0.023682,0.996704,-2.807617,1.464844,7.202148
18813,0.046509,-0.029663,1.056519,-2.014160,1.037598,8.544922
18822,0.042969,-0.072144,1.020508,-0.854492,0.122070,8.728027
18833,0.045288,-0.137329,0.990601,0.122070,-0.366211,8.483887
18842,0.045776,-0.217773,0.927002,0.732422,-0.671387,8.483887
18852,0.026489,-0.063843,0.990723,0.610352,-0.976562,8.850098
18863,-0.070435,-0.104614,0.950195,0.671387,-0.915527,8.911133
18873,-0.073486,-0.020874,1.005127,1.037598,-0.793457,9.277344
18883,-0.065552,-0.275879,0.910400,1.892090,-0.671387,9.399414
18893,-0.082153,-0.199219,0.951538,2.075195,-0.488281,9.582520
18902,-0.048218,-0.031982,1.006470,2.441406,-0.610352,9.460449
18912,-0.010742,-0.262573,0.968262,2.807617,-0.488281,9.704590
18924,0.039185,-0.102173,1.003174,2.929688,-0.305176,9.277344
18934,0.125122,-0.291504,0.881226,2.929688,-0.793457,8.605957
18943,0.121948,-0.150269,0.941162,2.136230,-1.770020,7.446289
18953,0.107788,-0.022705,1.068237,1.342773,-2.685547,6.286621
18962,0.085327,-0.130371,0.961426,0.366211,-3.845215,5.310059
18972,0.058228,-0.076904,1.047485,-0.244141,-4.455566,4.760742
18983,0.072632,0.060669,1.101074,-0.488281,-4.699707,4.028320
18992,0.098389,-0.209229,1.059937,-0.915527,-4.638672,3.601074
19002,0.088623,-0.106445,1.076904,-0.671387,-5.249023,3.295898
19013,0.029175,-0.206421,0.950806,-0.610352,-5.676270,2.685547
19022,0.016357,-0.172363,0.904175,-0.549316,-5.859375,2.014160
19033,0.011108,-0.001831,1.008789,-0.305176,-5.493164,1.098633
19042,0.031860,-0.174683,0.998047,0.061035,-5.493164,0.183105
19053,0.043701,-0.290405,1.032349,0.610352,-5.615234,-0.854492
19062,0.053833,-0.050659,1.132935,0.854492,-7.080078,-3.051758
19072,0.052734,-0.082642,0.989258,1.464844,-7.690430,-4.089355
