timestamp,accX,accY,accZ,gyrX,gyrY,gyrZ
11,0.059814,-0.266235,0.989258,0.549316,-11.474609,1.647949
24,0.086670,-0.267212,0.979492,1.098633,-9.826660,-0.488281
34,0.090698,-0.216553,1.087769,1.281738,-10.192871,-2.014160
43,0.089478,-0.183228,1.000244,1.953125,-10.681152,-3.479004
53,0.108276,-0.280884,0.960571,2.502441,-11.169434,-5.065918
62,0.111328,-0.198975,0.911255,2.197266,-12.390137,-6.469727
71,0.114990,-0.094849,0.950073,2.136230,-12.634277,-7.019043
81,0.007324,-0.108887,0.927002,2.197266,-12.573242,-7.202148
91,0.009644,-0.167114,0.940430,2.502441,-11.962891,-7.202148
100,-0.031250,-0.181641,0.967651,2.563477,-10.864258,-6.896973
110,0.055664,-0.188110,1.028320,2.380371,-10.192871,-7.019043
122,0.021851,-0.123413,0.975342,1.892090,-10.681152,-7.263184
131,-0.012451,-0.073364,1.035645,1.281738,-10.864258,-7.019043
141,-0.012451,-0.097656,1.042358,1.403809,-10.681152,-6.774902
151,-0.029419,-0.084473,1.041748,1.403809,-9.948730,-6.591797
160,-0.026855,-0.065552,1.091675,1.342773,-9.582520,-6.408691
171,-0.046265,-0.105957,1.093140,1.770020,-8.789063,-6.530762
181,-0.043579,-0.126465,1.083374,1.953125,-8.850098,-6.774902
190,-0.012817,-0.152100,1.085327,2.441406,-9.216309,-9.094238
201,0.021240,-0.192749,0.926270,2.380371,-9.887695,-10.681152
211,-0.014648,-0.150513,1.022949,2.197266,-10.131836,-12.084961
220,-0.031006,-0.139771,0.953247,2.136230,-9.582520,-12.573242
230,-0.041870,-0.197632,0.927246,2.136230,-9.155273,-13.000488
240,-0.036865,-0.136963,0.972778,2.014160,-8.544922,-13.549805
252,-0.048950,-0.199341,0.883423,1.708984,-7.324219,-13.549805
262,-0.047607,-0.223633,0.763184,0.000000,-7.568359,-13.183594
272,-0.128052,-0.096069,0.932373,-1.403809,-7.141113,-12.939453
281,-0.123535,0.000610,1.037720,-1.403809,-5.493164,-13.183594
291,-0.125732,0.012451,1.070923,-0.976562,-3.723145,-13.549805
301,-0.077637,-0.141724,0.981079,-0.183105,-3.112793,-15.563965
310,-0.028564,-0.181885,0.811279,0.122070,-4.028320,-19.287109
322,0.002441,-0.144165,0.806885,-2.075195,-5.493164,-22.827148
332,-0.035767,0.036621,0.802368,-2.685547,-4.272461,-22.277832
341,-0.019409,-0.020142,0.895142,-2.929688,-2.563477,-20.141602
351,-0.007813,0.000488,1.025024,-3.112793,-1.220703,-18.188477
360,0.135254,-0.072266,1.051025,-3.173828,-0.610352,-16.967773
370,-0.014893,-0.012573,1.287598,-3.479004,-1.464844,-18.249512
381,-0.128662,0.015991,1.337769,-3.173828,-0.061035,-18.371582
390,-0.011597,-0.026855,1.195679,-2.502441,1.708984,-19.714355
402,0.018433,-0.066162,0.997192,-1.892090,-1.220703,-23.193359
412,0.044189,-0.014771,0.962036,-2.380371,-1.586914,-23.193359
421,0.056030,-0.009766,1.018433,-2.502441,0.000000,-20.812988
431,0.083374,-0.043457,1.106567,-2.197266,2.197266,-17.333984
440,0.008057,-0.129639,1.058594,-1.831055,2.990723,-15.014648
451,-0.056641,-0.164307,1.029785,-2.075195,3.295898,-13.305664
460,-0.096069,-0.190430,0.964722,-2.197266,3.662109,-11.840820
472,-0.146240,-0.158203,0.967773,-2.258301,3.417969,-9.765625
481,-0.149658,-0.262695,0.963379,-2.258301,4.638672,-8.544922
491,-0.087402,-0.275024,0.920288,-2.563477,5.432129,-7.446289
500,-0.136719,-0.214966,1.033936,-2.990723,5.798340,-6.225586
510,-0.102417,-0.155762,0.968384,-2.868652,6.713867,-4.455566
521,-0.091187,-0.238770,0.899780,-2.380371,7.568359,-2.685547
530,0.003052,-0.317993,0.916016,-2.136230,8.361816,-0.854492
542,-0.089966,-0.128662,0.992676,-2.502441,7.873535,1.098633
552,-0.109863,-0.204224,0.990845,-2.685547,8.178711,2.014160
561,-0.097046,-0.200806,0.972412,-2.136230,9.155273,2.563477
571,-0.024292,-0.184204,0.945068,-2.380371,9.033203,2.319336
580,-0.003296,-0.208008,0.911743,-2.807617,8.300781,1.831055
590,-0.061646,-0.076416,0.995850,-3.356934,7.995605,1.281738
600,-0.026367,-0.016968,1.096313,-3.295898,8.422852,1.708984
613,0.053101,-0.106079,0.999878,-2.258301,9.216309,2.746582
622,0.116333,-0.111206,0.971191,-2.380371,8.789063,3.845215
632,0.099365,-0.114380,0.842285,-2.746582,7.629395,4.455566
641,0.024536,0.042358,0.966919,-2.746582,7.873535,6.103516
650,-0.011963,-0.115845,1.037720,-1.770020,8.911133,7.812500
661,-0.041748,-0.377563,0.994019,-1.464844,9.277344,9.643555
670,-0.086426,-0.228516,0.992798,-2.502441,8.605957,10.131836
682,-0.105835,-0.183105,0.964844,-2.502441,7.934570,9.033203
691,0.005127,-0.284912,0.939819,-0.671387,8.483887,7.934570
701,0.060425,-0.127319,0.999634,-1.708984,7.446289,7.080078
711,0.054565,-0.120850,0.912598,-1.708984,5.493164,3.906250
720,-0.049683,-0.124146,0.961670,-0.854492,3.906250,1.708984
731,0.015015,-0.124146,1.000122,0.183105,4.699707,0.122070
740,0.133301,-0.277466,0.962769,0.732422,6.225586,-0.061035
752,-0.005859,-0.168091,0.946411,0.610352,6.042480,-1.770020
761,0.042725,-0.232788,0.886475,0.183105,4.943848,-2.075195
771,0.090210,-0.238647,0.915771,-0.244141,5.737305,-1.586914
781,0.050049,-0.169800,0.978882,-0.732422,5.249023,-1.159668
790,-0.082031,-0.135010,0.925537,-1.281738,4.577637,-1.647949
800,-0.086060,-0.104614,0.997803,-1.892090,4.272461,-1.647949
810,-0.045776,-0.072266,1.048218,-2.136230,5.859375,-1.525879
822,-0.001099,-0.078857,1.004028,-2.197266,6.469727,-0.549316
832,0.025391,-0.071045,1.006104,-2.563477,6.530762,0.061035
841,0.031616,-0.053467,1.040771,-2.563477,6.103516,0.610352
850,0.073730,-0.082764,1.080322,-2.319336,6.347656,1.037598
860,0.052979,-0.127441,1.060303,-2.380371,6.591797,1.342773
870,0.030151,-0.083496,1.038330,-2.197266,6.408691,1.220703
882,-0.020264,-0.068604,0.951782,-1.831055,6.408691,1.892090
892,0.037354,-0.133301,1.000366,-2.441406,6.591797,3.051758
901,0.036865,-0.040649,1.011597,-2.746582,6.591797,4.211426
911,0.022217,-0.036499,0.980469,-2.746582,6.347656,5.981445
920,0.026855,-0.066040,1.002441,-2.746582,6.164551,7.812500
931,0.075195,-0.127197,1.003540,-2.685547,6.469727,9.582520
940,0.087036,-0.067261,1.014648,-2.624512,7.141113,11.291504
952,0.031006,-0.008301,0.983887,-2.319336,6.347656,14.343262
961,-0.019409,-0.074829,0.992554,-2.197266,6.591797,15.502930
971,-0.006958,-0.011475,1.002930,-2.319336,6.347656,16.845703
981,-0.063110,-0.100708,0.958008,-1.953125,6.164551,17.883301
990,-0.075073,-0.078979,1.002319,-1.770020,6.408691,19.104004
1001,-0.096802,-0.105957,0.979736,-1.586914,6.835937,20.446777
1010,-0.063477,-0.090088,0.985840,-1.708984,6.713867,21.240234
1022,-0.092407,-0.048584,0.981079,-1.342773,7.263184,23.071289
1032,-0.096802,-0.135376,0.962036,-0.976562,7.385254,23.681641
1041,-0.075317,-0.167114,0.943481,-0.610352,7.629395,24.169922
1051,-0.028442,-0.210449,0.979736,-0.793457,7.324219,24.719238
1060,0.001465,-0.196045,1.025757,-0.915527,6.835937,25.024414
1071,0.049316,-0.163208,1.008423,-1.403809,6.286621,25.146484
1081,0.060669,-0.126221,1.037354,-2.014160,5.615234,25.695801
1090,0.045288,-0.049561,0.993896,-2.075195,4.943848,26.000977
1102,0.007568,-0.110474,0.995483,-1.403809,5.126953,26.672363
1111,-0.044922,-0.082642,0.968262,-0.854492,4.516602,26.733398
1121,-0.043091,-0.087036,1.015747,-0.732422,4.150391,26.550293
1130,-0.006714,-0.106812,1.011230,-0.488281,3.112793,25.756836
1141,0.012451,-0.114990,1.011597,-0.671387,2.258301,25.451660
1150,0.024780,-0.018066,1.079102,-0.671387,1.464844,25.207520
1162,0.024902,-0.074219,1.023682,-0.427246,1.464844,25.146484
1171,0.050171,-0.104492,0.999390,-0.122070,1.342773,24.658203
1182,-0.033691,-0.091309,0.981323,-0.305176,1.098633,24.108887
1191,-0.044434,-0.090088,0.954956,-1.037598,0.549316,23.254395
1200,-0.030640,-0.108276,0.906860,-1.159668,-0.061035,21.911621
1210,-0.042969,-0.120728,0.946289,-1.525879,-1.098633,20.263672
1221,-0.036987,-0.107300,0.966919,-1.220703,-1.892090,18.371582
1231,-0.007568,-0.170044,1.034424,-1.220703,-1.953125,14.648438
1240,0.036987,-0.089600,1.106323,-0.488281,-1.831055,13.122559
1250,0.151001,-0.198608,1.007324,0.000000,-2.197266,11.840820
1261,0.217896,-0.174927,1.010376,0.122070,-3.479004,10.803223
1270,0.192139,-0.187378,0.970459,0.122070,-4.760742,9.887695
1281,0.275879,-0.145630,0.978516,-0.061035,-5.859375,9.948730
1290,0.237915,-0.170044,0.964355,-0.061035,-6.774902,9.216309
1302,0.168945,-0.207031,0.974854,0.244141,-7.141113,8.117676
1311,0.153198,-0.209229,0.975220,-0.305176,-7.995605,6.835937
1322,0.141479,-0.154297,1.022339,-0.427246,-8.544922,4.394531
1331,0.085937,-0.144531,0.946411,-0.244141,-10.375977,2.319336
1341,0.088257,-0.215698,0.989380,0.061035,-11.779785,-0.183105
1351,0.096680,-0.220581,0.986938,0.122070,-12.084961,-2.319336
1360,0.025757,-0.212646,0.986328,-0.305176,-12.207031,-3.906250
1372,0.003784,-0.072754,1.042236,-0.366211,-11.230469,-5.371094
1381,-0.015381,-0.144531,1.061035,-0.305176,-10.192871,-5.981445
1391,-0.005127,-0.171631,1.019531,-0.061035,-9.765625,-6.408691
1401,0.036133,-0.161987,1.009033,0.122070,-9.582520,-7.385254
1411,0.047729,-0.198853,0.947021,0.122070,-10.009766,-8.789063
1420,0.032837,-0.265991,0.966431,-0.427246,-10.375977,-9.643555
1430,0.054565,-0.125977,0.996216,-0.732422,-9.704590,-9.948730
1442,0.020752,-0.136353,0.964478,-0.854492,-9.094238,-9.399414
1451,-0.030151,-0.258911,0.892944,-0.732422,-8.422852,-8.300781
1461,-0.003418,-0.201660,0.915161,-1.281738,-7.812500,-7.446289
1471,-0.003906,-0.026245,0.963257,-2.136230,-7.751465,-6.408691
1480,-0.048340,-0.089355,0.940796,-2.197266,-7.385254,-5.187988
1490,-0.043213,-0.031738,1.014404,-2.136230,-6.652832,-4.272461
1501,-0.071777,-0.101807,0.956665,-1.953125,-6.164551,-3.723145
1510,-0.065186,-0.010498,1.036011,-2.075195,-4.882812,-3.601074
1520,-0.092651,-0.076294,0.939453,-2.380371,-4.455566,-5.004883
1530,-0.095215,-0.111450,0.965088,-2.563477,-4.516602,-5.493164
1541,-0.028687,-0.034668,0.974976,-2.685547,-4.516602,-6.042480
1551,0.033936,0.036133,1.034058,-2.746582,-4.577637,-6.530762
1560,0.013672,-0.061279,0.962891,-2.319336,-3.723145,-6.469727
1570,0.011841,-0.053955,0.991943,-2.258301,-3.784180,-6.042480
1582,0.020996,-0.085571,0.918335,-2.441406,-3.112793,-6.469727
1591,0.055176,-0.149902,0.914062,-2.502441,-2.929688,-7.080078
1601,0.041748,-0.150391,0.909790,-2.868652,-2.929688,-7.690430
1611,0.082764,-0.129883,0.901001,-3.662109,-2.685547,-8.544922
1620,0.110229,-0.061157,1.004761,-4.211426,-3.295898,-9.521484
1630,0.104980,-0.124512,0.913208,-3.967285,-3.417969,-10.498047
1640,0.154907,-0.103271,0.991577,-3.784180,-3.173828,-11.230469
1650,0.145874,-0.121216,0.982300,-3.784180,-3.967285,-11.230469
1660,0.136963,-0.090210,1.015869,-3.723145,-3.845215,-12.390137
1671,0.024292,-0.120850,0.955078,-2.990723,-4.760742,-12.878418
1681,0.041016,-0.083008,0.989014,-2.746582,-4.272461,-13.427734
1691,0.019897,-0.081421,0.936279,-2.929688,-4.150391,-13.610840
1701,-0.026367,-0.021729,1.020874,-2.624512,-3.112793,-13.610840
1711,-0.102905,-0.100464,1.014038,-2.807617,-2.319336,-12.573242
1720,-0.139038,-0.014160,1.100342,-2.868652,-1.708984,-11.352539
1730,-0.133301,0.019531,1.038208,-2.380371,0.976562,-7.080078
1742,-0.235352,0.000854,0.872437,-2.563477,1.953125,-4.699707
1751,-0.237305,0.162109,1.022217,-3.112793,3.417969,-1.770020
1761,-0.228516,0.108032,1.026978,-2.929688,5.065918,1.037598
1770,-0.144897,0.033813,1.103027,-2.380371,5.798340,3.051758
1780,-0.065552,-0.037842,1.141357,-2.136230,6.774902,5.126953
1792,-0.001831,-0.067871,1.148315,-3.051758,6.164551,6.225586
1801,0.076538,0.022827,1.032471,-2.990723,6.896973,8.056641
1812,0.175293,-0.001099,1.015991,-3.173828,6.652832,10.192871
1821,0.155640,0.037964,1.013550,-2.746582,6.164551,12.329102
1831,0.049438,-0.025879,0.931030,-2.502441,5.432129,14.526367
1840,-0.036255,-0.089600,0.900024,-2.746582,4.028320,16.540527
1850,-0.043335,-0.060181,0.944580,-2.746582,5.493164,18.371582
1860,-0.143433,-0.135498,0.900513,-2.685547,5.371094,19.287109
1870,-0.105469,-0.174927,0.934204,-2.807617,5.187988,18.798828
1880,-0.137695,-0.146851,0.916260,-2.868652,5.126953,17.761230
1890,-0.106323,-0.231445,0.941772,-3.234863,5.126953,16.723633
1900,-0.063477,-0.203735,1.002197,-3.967285,5.676270,16.113281
1911,-0.092773,-0.163818,0.983276,-4.150391,4.760742,14.404297
1920,-0.033447,-0.140137,1.041870,-4.089355,5.493164,13.000488
1930,-0.034912,-0.149780,1.065918,-4.333496,5.004883,12.023926
1940,-0.014160,-0.183350,1.012695,-4.394531,3.906250,7.751465
1951,-0.075073,-0.022461,0.979614,-3.479004,3.540039,5.493164
1961,-0.093140,-0.046021,1.013428,-2.990723,2.868652,3.662109
1970,-0.114502,-0.014648,1.028931,-1.770020,4.516602,2.319336
1980,-0.069702,-0.028442,0.956421,-0.793457,4.394531,2.136230
1990,-0.040039,0.014893,0.965332,-0.122070,5.126953,2.868652
2000,-0.000366,-0.104492,0.904541,0.305176,4.516602,4.211426
2010,0.034668,-0.134766,0.922119,-15.380859,5.004883,9.216309
2021,0.077637,-0.065308,1.032104,-0.610352,5.920410,11.779785
2031,0.070190,0.013916,1.109375,-0.549316,5.981445,12.939453
2040,0.063599,-0.029785,1.005371,-0.305176,5.065918,13.671875
2050,0.078003,-0.068359,0.923462,0.183105,4.699707,13.977051
2061,0.109009,-0.084229,0.920288,-0.061035,2.990723,13.610840
2070,0.080200,-0.124512,0.909424,0.000000,3.417969,13.305664
2082,0.088867,-0.118042,0.951538,-0.122070,2.075195,13.671875
2092,0.130859,-0.155273,0.990479,0.061035,2.258301,13.793945
2101,0.146362,-0.173462,0.975342,0.122070,2.807617,13.244629
2111,0.153931,-0.219971,1.012939,-0.610352,1.953125,12.695313
2120,0.125977,-0.217896,1.046997,-1.464844,-0.122070,11.840820
2130,0.076050,-0.132080,1.073975,-1.586914,-0.183105,10.681152
2140,0.050415,-0.052246,1.040527,-1.525879,-1.342773,10.131836
2150,0.008301,-0.091064,1.003906,-0.671387,-2.319336,8.544922
2161,-0.032593,-0.235107,0.966309,-0.122070,-2.929688,8.117676
2171,0.013184,-0.192383,1.041504,-0.610352,-2.258301,7.568359
2181,-0.008667,-0.213623,1.016968,-1.342773,-1.953125,7.873535
2190,-0.015991,-0.108154,1.037231,-2.197266,-2.075195,8.117676
2201,-0.040771,-0.039673,1.051636,-2.014160,-1.647949,7.995605
2211,-0.042114,-0.083374,1.032959,-1.586914,-1.464844,8.178711
2220,-0.034546,-0.092407,1.056763,-0.976562,-2.441406,7.324219
2231,-0.068970,-0.171631,0.984619,-0.915527,-1.892090,6.286621
2241,-0.041870,-0.170166,1.007446,-1.342773,-1.281738,5.004883
2250,0.012451,-0.076050,1.070923,-1.403809,-2.258301,3.417969
2260,-0.001221,-0.062622,1.036621,-0.732422,-3.662109,1.342773
2271,0.035645,-0.068115,0.985474,0.244141,-3.173828,-0.183105
2280,0.024780,-0.078979,1.009399,0.488281,-3.295898,-1.281738
2290,0.015991,-0.135254,0.984131,0.427246,-2.929688,-1.220703
2300,0.030273,-0.040161,0.987427,0.061035,-2.197266,-1.098633
2310,0.046997,-0.125488,0.908203,-0.366211,-1.586914,-0.732422
2320,0.054077,-0.052368,0.942505,-0.549316,-1.647949,-0.854492
2331,0.083130,-0.096436,0.928833,-0.427246,-1.464844,-1.831055
2341,0.086548,-0.133301,1.027344,-0.549316,-2.014160,-3.417969
2350,0.094604,-0.179077,1.031494,-0.854492,-3.356934,-5.432129
2360,0.086914,-0.113403,1.091187,-1.464844,-5.004883,-8.850098
2371,0.089722,-0.021606,1.093872,-0.915527,-4.272461,-9.948730
2381,0.070557,-0.000732,1.090332,-0.061035,-3.967285,-10.253906
2391,0.057495,-0.077515,0.982422,0.549316,-3.356934,-9.826660
2400,0.013184,-0.078857,0.966187,0.244141,-3.967285,-8.605957
2411,0.037720,-0.067993,0.968140,-0.427246,-2.014160,-7.751465
2420,-0.053467,-0.078247,0.896240,-1.037598,-2.136230,-7.263184
2430,-0.066162,0.071411,0.840454,-0.488281,0.183105,-6.713867
2440,-0.014282,-0.021729,0.909424,-0.366211,-0.915527,-6.591797
2450,0.018677,-0.047485,0.964478,-0.366211,-1.037598,-6.591797
2460,-0.013916,-0.036255,0.964722,-0.671387,-0.732422,-5.981445
2470,0.025146,0.086914,1.071777,-1.098633,-0.366211,-4.699707
2481,-0.068848,-0.007080,1.036255,-0.793457,1.647949,-2.929688
2490,-0.070557,0.005615,1.083252,-0.427246,2.502441,-0.549316
2500,-0.059937,-0.079834,1.055176,-0.244141,3.784180,4.211426
2511,-0.231445,-0.057861,1.010986,-0.671387,4.577637,6.042480
2521,-0.241943,-0.012329,0.944458,-0.793457,6.103516,8.056641
2531,-0.220337,0.155762,1.001221,-0.427246,7.446289,10.070801
2540,-0.054443,0.093872,0.940186,0.244141,6.103516,12.268066
2550,0.135620,-0.047119,0.913940,0.976562,4.821777,14.648438
2562,0.161987,-0.042236,0.848511,1.281738,3.601074,19.958496
2571,0.142578,-0.301270,0.755005,0.366211,5.249023,23.681641
2582,0.070557,-0.283081,0.816895,-0.671387,6.286621,26.428223
2591,0.035889,-0.214111,0.813354,-1.037598,6.835937,27.343750
2600,0.018677,-0.410156,0.687500,-0.366211,6.042480,26.672363
2610,0.078491,-0.437256,0.665894,0.671387,4.028320,25.146484
2620,0.124512,-0.560547,0.577637,1.586914,0.000000,23.620605
2630,-0.083862,-2.232544,-1.659790,3.540039,-2.075195,22.277832
2640,0.046997,-2.659790,-1.594727,-19.165039,-0.915527,19.042969
2651,-0.100464,-2.588257,-2.087158,-44.128418,-2.197266,11.962891
2661,0.308228,0.078857,0.157837,-66.589355,-0.854492,7.690430
2671,0.447632,0.485474,1.982788,-66.406250,-2.746582,6.835937
2680,0.492676,0.015991,3.732910,-48.217773,-7.019043,5.004883
2690,0.254150,-0.058350,3.999512,-33.508301,-8.850098,6.774902
2700,0.379639,-0.022339,3.999512,-22.460937,-11.047363,8.544922
2712,0.140503,-0.694336,1.393311,-10.192871,-10.925293,9.948730
2721,-0.120605,-0.480713,1.352783,9.582520,-10.131836,8.544922
2730,-0.293945,-0.921387,1.430054,13.122559,-10.375977,5.859375
2741,-0.658569,-0.890869,1.923950,9.765625,-10.070801,2.380371
2750,-0.999146,-0.167603,2.036133,2.746582,-7.751465,-1.098633
2761,-1.438843,0.625977,1.896851,2.258301,-1.892090,-3.112793
2770,-0.963257,2.138062,3.400269,8.666992,7.446289,-1.586914
2780,-0.229736,2.542725,3.999512,39.855957,4.150391,11.291504
2791,-0.244019,3.804321,3.999512,59.387207,-0.488281,10.986328
2800,-0.256348,3.238892,3.751587,74.645996,1.831055,21.423340
2810,0.520264,3.064575,3.232056,79.956055,10.498047,31.188965
2820,0.232666,2.136108,2.007935,88.745117,14.587402,35.217285
2831,0.186035,1.562622,1.045044,96.801758,11.840820,32.348633
2840,0.276733,1.196533,0.500610,99.426270,9.094238,26.733398
2852,0.104492,0.226807,-0.524780,89.111328,7.690430,19.897461
2861,-0.054687,0.017822,-0.384155,80.444336,10.375977,18.310547
2871,-0.064453,-0.159058,-0.427246,72.509766,11.047363,15.441895
2880,0.067749,0.049438,-0.328491,64.758301,12.512207,13.122559
2891,0.130737,0.144165,-0.229004,57.800293,13.610840,12.817383
2900,0.330566,0.129272,-0.207886,51.269531,12.207031,11.047363
2910,0.440308,0.137939,-0.117310,46.081543,8.911133,7.934570
2922,0.362915,-0.160278,0.184814,40.222168,2.075195,5.554199
2931,0.282837,-0.282959,0.208618,36.743164,-1.037598,5.615234
2941,0.228271,-0.375610,0.145020,32.104492,-3.479004,4.882812
2950,0.173340,-0.360352,0.000732,26.977539,-5.676270,3.967285
2961,0.205322,-0.332031,-0.100586,22.644043,-8.117676,3.417969
2970,0.255859,-0.446533,-0.178345,19.104004,-10.681152,2.563477
2980,0.291016,-0.683472,-0.207520,15.625000,-13.122559,1.770020
2992,0.136841,-0.998779,-0.358887,5.432129,-18.981934,-3.967285
3002,0.033325,-1.047729,-0.394531,-0.732422,-20.812988,-6.713867
3011,-0.073608,-1.026367,-0.361938,-7.385254,-21.667480,-9.338379
3021,-0.091064,-0.990356,-0.322632,-13.122559,-21.728516,-12.817383
3031,-0.130493,-0.978149,-0.283325,-18.066406,-20.996094,-15.258789
3040,-0.114380,-0.982422,-0.245361,-22.949219,-19.958496,-16.723633
3050,-0.126099,-0.962036,-0.259644,-27.893066,-18.615723,-17.272949
3060,-0.177856,-0.946899,-0.248413,-37.841797,-15.502930,-16.113281
3070,-0.123413,-0.875244,-0.181641,-42.480469,-13.977051,-14.953613
3081,0.037720,-0.900391,-0.128418,-46.936035,-12.390137,-13.366699
3091,0.016968,-0.925537,-0.096802,-51.757812,-11.352539,-11.596680
3100,-0.022583,-0.886108,-0.124268,-57.006836,-10.498047,-10.498047
3110,-0.151001,-0.718384,-0.189209,-62.133789,-9.948730,-10.314941
3122,-0.194580,-0.642822,-0.280762,-70.251465,-7.263184,-9.643555
3131,-0.191284,-0.683594,-0.401001,-73.730469,-5.187988,-9.399414
3141,-0.240234,-0.802490,-0.409790,-78.430176,-3.234863,-9.094238
3151,-0.103149,-0.850098,-0.466431,-84.472656,-1.220703,-8.850098
3160,-0.108887,-0.829590,-0.558716,-91.491699,0.122070,-9.216309
3170,-0.034424,-0.678101,-0.675537,-98.999023,0.305176,-9.582520
3181,0.094360,-0.409546,-0.541382,-106.018066,0.366211,-10.375977
3190,0.090820,1.754395,3.952515,-102.966309,-0.793457,-12.939453
3202,-0.485962,-3.999512,1.565430,-63.354492,-7.873535,-5.981445
3211,0.204712,-1.900024,1.483765,-49.865723,3.234863,-14.038086
3221,0.804321,3.999512,2.110107,-80.688477,1.953125,-23.986816
3230,0.248535,2.893066,-0.243774,-51.025391,-12.512207,-22.094727
3241,-0.023804,0.753540,2.064209,-10.009766,-17.456055,-19.409180
3250,0.139526,0.206665,3.973633,-4.333496,-11.718750,-22.888184
3262,-0.033813,-1.077026,3.376587,-9.826660,-8.239746,-23.986816
3271,0.534912,1.025024,3.241821,-17.272949,-6.469727,-25.756836
3281,0.252075,0.779785,0.192993,-16.723633,-10.192871,-19.897461
3290,0.511841,1.408691,2.330933,-9.033203,-7.446289,-16.174316
3300,-0.089355,-1.114136,2.249756,13.061523,-8.422852,-12.268066
3310,-0.262451,-2.026001,2.249756,13.977051,-6.225586,-11.047363
3321,0.369873,-0.484253,2.127686,-4.943848,-0.427246,-10.192871
3330,0.206055,0.791870,0.736328,-16.601562,0.122070,-7.568359
3341,0.039429,0.096802,1.461914,-8.422852,-3.417969,-6.347656
3351,0.208618,-0.441895,2.150879,10.314941,-4.516602,-4.577637
3360,0.293091,0.110474,2.355225,6.835937,-4.150391,-5.676270
3371,0.241699,0.529541,1.581055,6.286621,-5.065918,-6.713867
3381,0.242798,0.648804,0.898560,13.183594,-7.019043,-8.239746
3390,0.218994,0.242554,0.749146,23.376465,-9.582520,-10.009766
3402,0.251465,-0.221191,1.022339,26.550293,-14.587402,-18.493652
3411,0.458862,-0.038818,1.108643,20.141602,-13.732910,-21.118164
3421,0.300171,0.221436,0.615112,15.502930,-14.099121,-22.888184
3431,0.222778,0.279663,0.118652,15.380859,-14.648438,-25.451660
3440,0.012817,0.292969,0.089111,17.578125,-14.404297,-28.320312
3451,-0.040161,0.163208,0.408081,17.883301,-14.099121,-32.287598
3460,-0.191040,0.034546,0.708008,15.808105,-14.282227,-38.024902
3472,-0.124146,0.079102,0.895508,10.986328,-13.427734,-48.400879
3481,-0.207642,-0.038940,0.683594,10.681152,-13.916016,-52.307129
3491,-0.272705,-0.121216,0.524414,10.742188,-13.183594,-56.335449
3500,-0.261475,-0.137939,0.613403,9.399414,-10.986328,-59.265137
3511,-0.188110,-0.009155,0.818848,7.568359,-7.568359,-61.340332
3520,-0.107788,0.061890,0.887573,6.164551,-4.699707,-62.927246
3531,-0.140991,0.055786,0.888184,6.408691,-2.380371,-64.331055
3540,-0.117188,-0.042114,0.806641,6.713867,-1.220703,-65.734863
3550,-0.068604,-0.005371,0.716553,6.591797,0.976562,-66.345215
3561,0.029053,0.074463,0.900757,4.882812,2.441406,-65.185547
3571,0.141968,0.105713,1.049683,3.906250,3.845215,-63.232422
3580,0.182373,0.087769,1.007568,3.723145,4.943848,-60.729980
3591,0.190796,0.133301,0.970703,3.540039,5.554199,-57.556152
3600,0.204224,0.167480,0.896729,3.417969,6.347656,-53.771973
3610,0.245361,0.202148,0.880371,3.906250,8.361816,-49.316406
3622,0.274414,0.147217,1.085815,4.394531,9.826660,-38.452148
3631,0.280396,0.072021,1.140137,5.859375,12.023926,-32.714844
3640,0.193604,-0.033447,1.060791,6.103516,12.451172,-27.099609
3650,0.107422,-0.060425,1.028442,5.859375,12.878418,-21.728516
3660,0.028809,-0.092651,0.993164,5.065918,13.549805,-17.089844
3670,-0.027100,-0.093384,0.990479,3.845215,14.831543,-12.756348
3680,-0.099609,0.006104,0.992554,2.990723,15.747070,-8.728027
3690,-0.161499,0.065308,0.978394,1.953125,17.517090,-1.586914
3701,-0.207642,-0.011597,0.952271,1.770020,18.371582,2.319336
3710,-0.208984,-0.013428,0.926636,1.464844,19.409180,5.981445
3720,-0.229492,-0.036865,0.971802,1.098633,20.568848,9.338379
3730,-0.198975,-0.060547,1.037354,0.610352,21.423340,12.817383
3741,-0.183594,-0.034546,1.109863,0.671387,21.972656,15.930176
3750,-0.154175,-0.000366,1.082520,0.549316,22.338867,18.676758
3761,-0.157349,-0.105347,0.981201,0.671387,22.216797,24.841309
3771,-0.124756,-0.108398,0.969238,0.671387,22.521973,28.015137
3780,-0.118530,-0.151978,0.945801,0.183105,22.705078,31.127930
3791,-0.130127,-0.073975,0.987183,-0.305176,22.766113,34.606934
3800,-0.102661,-0.020508,0.990845,-0.488281,23.010254,37.597656
3810,-0.169922,-0.053589,0.965454,-0.366211,23.376465,40.771484
3820,-0.146973,-0.104126,1.018677,-0.305176,23.315430,43.640137
3832,-0.185791,-0.048950,0.952271,-0.427246,23.254395,47.607422
3841,-0.167480,-0.073364,1.008301,0.000000,23.010254,49.804687
3850,-0.178589,-0.103394,1.034424,0.000000,22.827148,52.246094
3860,-0.161743,-0.025635,0.971558,0.305176,22.277832,54.138184
3870,-0.160400,-0.071289,0.980347,0.549316,22.094727,55.847168
3880,-0.119141,-0.089966,1.000244,0.549316,21.911621,57.983398
3890,-0.148071,-0.098755,0.906616,0.488281,21.423340,60.119629
3901,-0.178223,-0.089478,0.971436,0.061035,20.996094,63.293457
3911,-0.214111,-0.072388,0.916260,-0.915527,20.202637,64.392090
3920,-0.236694,-0.083496,0.885620,-1.464844,19.592285,64.270020
3931,-0.267700,-0.044678,0.989746,-1.525879,18.920898,63.781738
3940,-0.217041,-0.097656,1.006836,-1.403809,18.249512,62.805176
3951,-0.233521,-0.119629,1.011353,-1.403809,17.883301,61.462402
3960,-0.193481,-0.101196,1.017944,-1.403809,17.456055,59.814453
3970,-0.187622,-0.141846,0.978271,-1.525879,16.113281,57.373047
3981,-0.207275,-0.126831,0.962646,-1.831055,15.930176,56.274414
3991,-0.132935,-0.126465,1.027222,-2.258301,15.441895,55.236816
4000,-0.140503,-0.127930,1.067261,-2.502441,14.526367,53.710937
4010,-0.116943,-0.123657,1.081055,-2.380371,13.488770,51.696777
4020,-0.088379,-0.093994,1.103516,-1.892090,12.817383,49.560547
4030,-0.071411,-0.105835,1.057739,-1.464844,11.962891,47.607422
4042,-0.027222,-0.097290,1.054932,-1.037598,11.047363,42.724609
4051,-0.024048,-0.086060,1.061157,0.061035,9.338379,40.771484
4060,-0.018555,-0.064331,1.055176,0.305176,8.666992,39.428711
4070,-0.018921,-0.094727,1.011353,0.488281,8.605957,38.574219
4080,-0.005493,-0.053833,0.982056,0.854492,8.850098,38.024902
4090,0.027344,-0.112549,0.974976,0.732422,7.995605,37.231445
4102,0.008789,-0.126343,0.997803,0.976562,6.103516,33.508301
4111,0.025269,-0.094116,1.029785,1.037598,5.493164,31.188965
4121,0.004150,-0.085693,0.999390,1.037598,4.516602,29.174805
4130,0.005127,-0.089478,0.966431,1.159668,3.906250,27.465820
4141,0.027100,-0.069580,0.903809,0.915527,3.662109,26.611328
4150,0.054810,-0.080200,0.941406,0.244141,3.967285,27.221680
4160,0.061401,-0.031494,0.986938,-0.549316,4.028320,28.686523
4170,0.058350,-0.009033,1.002930,-1.159668,4.455566,30.029297
4182,0.061523,0.014893,1.065430,-1.586914,4.333496,32.653809
4191,0.003296,0.004639,1.063965,-1.098633,3.845215,33.081055
4200,-0.010376,0.023315,1.075928,-0.488281,3.173828,32.348633
4210,-0.057495,-0.020142,1.038818,-0.488281,2.807617,31.127930
4220,-0.034790,-0.017334,1.041626,-0.305176,2.685547,29.724121
4231,-0.019043,-0.025024,1.044922,0.061035,2.319336,27.709961
4240,-0.032959,-0.028564,1.006714,0.061035,1.892090,25.451660
4251,0.075195,-0.054321,0.972412,0.000000,1.403809,22.277832
4261,0.072266,-0.044800,0.961792,-0.122070,0.305176,21.179199
4270,0.112427,-0.058472,0.930908,-0.671387,-0.122070,20.385742
4280,0.093872,0.004639,0.973022,-1.098633,-0.061035,19.042969
4291,0.103271,0.013062,0.978882,-1.098633,0.061035,17.700195
4300,0.020630,-0.054687,1.010742,-0.671387,-0.061035,16.174316
4310,-0.004517,-0.070557,1.034668,-0.305176,-0.610352,13.610840
4322,-0.074219,-0.099121,1.029541,-0.244141,-1.037598,7.446289
4331,-0.063354,-0.045532,1.016479,-0.305176,-0.915527,4.882812
4340,-0.030151,-0.020020,1.003906,0.061035,-1.037598,2.563477
4351,-0.018188,-0.034790,0.991089,0.610352,-0.915527,0.732422
4360,0.012573,-0.068115,0.964355,1.098633,-0.427246,0.061035
4370,0.047852,-0.093994,0.952637,1.159668,0.732422,0.244141
4382,0.036987,-0.129517,0.982056,0.854492,2.014160,0.854492
4391,0.074463,-0.184448,0.990112,0.305176,2.258301,0.366211
4401,0.101074,-0.132202,1.023560,0.000000,2.502441,-0.122070
4410,0.096436,-0.145386,0.993530,0.000000,1.892090,-1.098633
4421,0.151855,-0.189331,0.894653,0.000000,1.098633,-2.075195
4430,0.112793,-0.209229,0.841431,-0.122070,0.000000,-2.075195
4441,0.174805,-0.238892,0.856567,-0.793457,-0.610352,-1.708984
4450,0.153809,-0.206421,0.904297,-1.403809,-0.122070,-0.610352
4462,0.197388,-0.187988,0.989014,-2.136230,2.075195,4.150391
4471,0.185059,-0.127075,1.017334,-2.197266,2.685547,6.225586
4480,0.180298,-0.174072,1.002563,-1.770020,3.234863,8.605957
4491,0.211426,-0.213135,0.986816,-1.342773,2.868652,10.681152
4501,0.201050,-0.150269,0.963989,-0.915527,2.136230,12.145996
4510,0.247314,-0.220947,0.823364,-0.549316,0.976562,13.793945
4522,0.512817,-0.270020,0.845093,-0.671387,-1.403809,17.883301
4531,0.432373,-0.024902,0.971191,-0.366211,-2.807617,19.592285
4541,0.234375,-0.124146,0.947144,1.220703,-3.417969,19.897461
4551,0.097900,-0.323608,1.047363,3.662109,-3.601074,20.263672
4560,0.132812,-0.368652,1.141479,3.784180,-4.089355,20.324707
4570,0.240967,-0.274658,1.111572,1.708984,-4.394531,20.263672
4581,0.329224,0.019897,1.113892,-0.549316,-5.615234,20.019531
4590,0.377930,0.175903,0.983398,-0.854492,-8.117676,19.348145
4600,0.261963,0.122070,1.040771,0.366211,-10.375977,18.920898
4611,0.213501,-0.078979,1.074463,0.671387,-10.681152,17.944336
4621,0.203125,-0.076416,1.108032,0.610352,-10.620117,16.723633
4630,0.239624,-0.016357,1.121094,0.000000,-11.047363,13.977051
4640,0.159546,-0.010376,1.021240,-0.671387,-12.939453,9.155273
4651,0.109009,0.101929,1.068970,-0.732422,-14.770508,3.112793
4660,0.109009,0.101563,1.001587,-0.305176,-16.479492,-3.295898
4672,0.135498,0.063965,0.935547,0.305176,-17.761230,-13.427734
4681,0.216187,0.086670,0.912354,-0.061035,-17.822266,-17.211914
4691,0.244507,0.089966,0.916870,-0.854492,-17.456055,-20.080566
4700,0.201660,0.162476,0.882324,-1.525879,-17.517090,-22.033691
4711,0.138184,0.208496,0.849121,-2.197266,-17.639160,-24.047852
4720,0.187988,0.177246,0.952637,-2.380371,-17.395020,-25.573730
4732,0.241699,0.216919,1.012573,-2.502441,-17.883301,-27.465820
4741,0.281372,0.147217,1.115112,-2.380371,-18.066406,-27.587891
4752,0.303833,0.057007,1.036865,-2.319336,-18.005371,-27.343750
4761,0.189331,-0.085449,0.962769,-2.502441,-17.456055,-26.489258
4770,0.072266,0.049683,1.129761,-2.990723,-15.686035,-25.878906
4781,0.221436,0.178955,0.964111,-3.356934,-13.305664,-25.451660
4790,0.287354,0.178345,0.820923,-3.051758,-13.061523,-26.306152
4801,0.137085,0.257690,0.900757,-1.708984,-18.066406,-32.226562
4811,0.030396,0.205811,1.062500,-1.831055,-18.005371,-32.165527
4821,0.037598,-0.138428,1.099121,-2.380371,-16.357422,-30.212402
4831,0.139893,-0.064087,0.953979,-2.929688,-13.671875,-26.916504
4840,0.235596,-0.006958,1.003174,-2.624512,-10.803223,-22.033691
4850,0.162598,0.043701,0.914307,-1.770020,-9.887695,-18.066406
4860,0.011841,-0.106689,0.946533,-0.915527,-10.253906,-15.869141
4872,-0.098022,-0.218262,0.945312,-0.122070,-9.033203,-13.549805
4882,-0.039673,-0.423706,0.933838,-0.549316,-8.789063,-12.695313
4891,0.039795,-0.359619,0.877686,-1.220703,-8.422852,-11.657715
4901,0.063354,-0.266479,0.919189,-1.342773,-8.361816,-9.704590
4910,0.036499,-0.186279,0.932739,-1.220703,-8.117676,-7.141113
4921,0.025024,-0.272339,0.929077,-1.098633,-7.751465,-3.417969
4930,0.023437,-0.384033,0.963623,-0.549316,-6.652832,1.220703
4942,0.019287,-0.423218,0.823120,-0.427246,-3.417969,11.901855
4951,0.035034,-0.526978,0.910278,-1.281738,-2.197266,16.479492
4961,0.011230,-0.427002,0.965088,-2.197266,-2.136230,20.507812
4970,-0.021484,-0.383911,1.021606,-2.746582,-2.441406,23.437500
4981,-0.094849,-0.462280,0.951294,-2.624512,-2.990723,25.329590
4990,-0.079834,-0.457764,0.943970,-2.502441,-3.723145,26.123047
5001,-0.123779,-0.400879,0.972900,-2.380371,-4.028320,26.977539
5010,-0.073120,-0.452148,0.964722,-1.953125,-3.784180,28.076172
5022,-0.002808,-0.247803,0.941528,-1.708984,-4.028320,31.616211
5031,0.039429,-0.421021,0.947998,-1.037598,-3.967285,34.484863
5046,0.034912,-0.397827,0.930786,-0.549316,-2.990723,39.733887
5055,0.010620,-0.472534,0.902344,-0.549316,-3.662109,41.687012
5065,-0.097412,-0.514404,0.934448,-1.220703,-3.967285,42.541504
5073,-0.097412,-0.514404,0.934448,-1.342773,-4.821777,42.480469
5083,-0.200073,-0.468384,0.949463,-1.159668,-5.493164,41.503906
5092,-0.187622,-0.531250,0.942139,-0.915527,-5.859375,40.161133
5102,-0.229736,-0.448975,1.084473,-0.610352,-5.859375,38.818359
5111,-0.275513,-0.570435,0.976318,-0.366211,-6.469727,36.865234
5120,-0.311890,-0.258545,1.067505,-0.854492,-6.713867,34.423828
5130,-0.342407,-0.475220,0.912720,-0.915527,-6.347656,31.799316
5141,-0.350098,-0.311523,0.961060,-0.976562,-6.103516,28.625488
5150,-0.311035,-0.299316,0.974854,-0.549316,-5.737305,24.902344
5162,-0.236938,-0.132324,1.029419,-0.488281,-5.920410,15.197754
5171,-0.202148,-0.452393,0.988525,-1.037598,-7.263184,10.131836
5181,-0.167236,-0.111450,1.163940,-2.136230,-7.202148,5.004883
5190,-0.117676,-0.070190,1.251099,-2.563477,-7.812500,-0.122070
5201,-0.146240,-0.093384,1.125610,-2.441406,-8.850098,-4.760742
5210,-0.069580,0.067871,1.135742,-2.075195,-8.605957,-7.751465
5222,-0.062378,0.001465,0.974854,-2.624512,-7.019043,-11.901855
5231,-0.045898,0.070435,1.013184,-3.112793,-6.164551,-13.366699
5240,-0.106323,-0.102539,0.935303,-3.356934,-5.187988,-14.343262
5250,-0.122803,0.118286,1.046387,-3.662109,-4.028320,-15.563965
5260,-0.205688,-0.015137,0.955688,-3.540039,-3.051758,-17.028809
5270,-0.260986,0.118164,1.034058,-3.662109,-2.319336,-18.981934
5281,-0.208740,0.031982,1.057983,-2.868652,-1.342773,-20.629883
5290,-0.205811,-0.011719,1.047852,-2.075195,-0.427246,-21.484375
5300,-0.169556,0.084717,1.064819,-0.549316,1.770020,-20.141602
5311,-0.171753,0.005249,0.922119,-0.305176,4.028320,-17.211914
5321,-0.138306,-0.222168,0.764648,-0.671387,6.530762,-13.366699
5331,-0.119385,-0.045044,0.930176,-1.342773,8.850098,-9.521484
5340,-0.147339,-0.108643,0.892090,-2.075195,10.314941,-6.347656
5350,-0.172485,-0.013672,0.967529,-2.380371,11.108398,-3.601074
5362,-0.181030,-0.052002,0.950195,-1.953125,12.634277,1.708984
5371,-0.114502,-0.157837,1.013550,-1.770020,13.671875,4.882812
5381,-0.101929,-0.184082,0.982666,-1.647949,14.526367,8.300781
5390,-0.086304,-0.123779,0.993286,-2.197266,15.197754,12.268066
5400,-0.046143,-0.116089,0.862305,-2.624512,16.357422,16.418457
5410,-0.062012,0.055786,0.829590,-2.746582,17.089844,20.019531
5420,-0.015381,-0.002930,0.780884,-2.319336,17.089844,23.193359
5432,-0.093262,0.060791,0.779053,-1.281738,16.479492,27.343750
5441,-0.080200,-0.148315,1.013794,-1.708984,15.686035,27.770996
5451,-0.017334,-0.138916,1.144043,-2.624512,14.770508,27.587891
5461,-0.019043,-0.127563,1.173218,-3.295898,14.221191,27.587891
5470,0.066528,-0.032471,1.135620,-3.540039,13.854980,28.015137
5481,0.105835,0.052124,1.009277,-3.173828,13.610840,28.442383
5490,0.222778,0.029907,0.975220,-2.258301,12.756348,28.991699
5501,0.246338,-0.071777,0.963013,-1.403809,9.765625,27.099609
5511,0.277344,-0.105103,0.973877,-1.892090,7.263184,24.353027
5520,0.216187,-0.165283,0.980835,-2.319336,5.004883,20.751953
5530,0.238525,-0.119507,1.053955,-2.685547,2.868652,16.845703
5540,0.242798,-0.106812,1.071533,-2.807617,1.464844,13.610840
5550,0.282227,-0.075073,1.043579,-2.319336,0.122070,11.779785
5561,0.280151,-0.032349,0.956177,-2.014160,-0.549316,10.498047
5570,0.253052,0.086426,0.936035,-1.586914,-1.098633,10.620117
5582,0.209961,0.069214,0.926147,-0.732422,-1.525879,12.145996
5591,0.134888,-0.035522,0.915527,-0.122070,-2.197266,12.695313
5601,0.113525,-0.072266,1.016113,0.061035,-2.990723,12.634277
5611,0.091553,-0.076416,1.155151,-0.122070,-3.906250,12.084961
5620,0.064941,-0.045654,1.198120,-0.610352,-5.004883,10.925293
5630,0.023071,0.005371,1.076294,-0.305176,-5.432129,10.131836
5640,0.020630,0.102539,1.108643,0.183105,-5.493164,10.070801
5651,-0.041992,0.021973,1.047241,0.976562,-6.347656,9.704590
5661,-0.055542,-0.072876,0.994629,0.549316,-6.225586,10.986328
5670,-0.060425,0.040527,1.138916,-0.183105,-5.371094,12.145996
5681,-0.071289,-0.048340,1.016479,-0.427246,-4.516602,13.488770
5690,-0.049561,0.034668,0.955811,-0.671387,-3.540039,14.953613
5701,-0.060181,0.020996,0.995728,-0.488281,-2.990723,15.686035
5710,-0.055420,-0.015015,0.847168,0.122070,-2.929688,15.136719
5722,-0.071777,0.134277,1.180298,-0.061035,-4.516602,11.169434
5731,-0.147339,-0.006470,1.169800,0.122070,-5.249023,8.056641
5741,-0.045288,-0.125244,0.853638,1.281738,-5.310059,5.981445
5750,-0.003906,-0.182251,0.875854,0.793457,-4.638672,4.821777
5761,0.016602,-0.014282,1.149048,-0.488281,-4.699707,3.662109
5770,-0.078857,-0.027466,1.241821,-0.488281,-4.516602,2.441406
5782,-0.061279,0.139404,1.264893,0.976562,-2.502441,2.624512
5791,-0.055664,-0.153809,0.901245,3.173828,-1.831055,2.868652
5800,-0.054443,-0.367676,0.769775,3.417969,-2.075195,3.417969
5810,-0.084473,-0.223389,0.813965,1.281738,-2.136230,4.394531
5821,0.012207,0.015381,0.979858,-1.098633,-2.197266,4.699707
5831,0.054443,0.063477,0.954834,-1.770020,-1.953125,5.004883
5840,0.081299,0.017212,0.824585,-1.281738,-2.441406,4.577637
5852,0.034912,-0.019409,0.847900,-0.183105,-2.563477,5.004883
5861,0.081299,-0.009399,1.055664,-0.854492,-2.563477,5.371094
5871,0.100098,-0.042358,1.051758,-1.220703,-2.380371,4.760742
5881,0.082642,-0.041870,1.059570,-0.732422,-2.807617,3.845215
5890,0.111084,-0.080933,0.999146,0.244141,-3.601074,2.258301
5900,0.074097,-0.116455,0.992676,0.976562,-4.272461,-0.061035
5910,0.070435,-0.222534,0.948120,0.915527,-5.004883,-2.563477
5922,0.114746,-0.225098,1.013428,0.000000,-5.737305,-7.019043
5931,0.154175,-0.096313,1.072510,-0.732422,-5.859375,-8.911133
5941,0.155029,-0.142090,0.961426,-0.610352,-6.347656,-10.742188
5950,0.203613,-0.102173,0.994263,-0.488281,-7.141113,-12.634277
5961,0.206177,-0.101807,0.986206,-0.427246,-7.812500,-14.221191
5971,0.205200,-0.099609,1.017822,-0.671387,-8.239746,-15.258789
5980,0.135376,-0.154907,0.927246,-0.793457,-8.300781,-16.174316
5992,0.086792,-0.123047,0.936646,-1.464844,-7.568359,-15.747070
6001,0.056519,-0.065063,0.951660,-1.342773,-6.774902,-15.014648
6011,0.010254,-0.072998,0.996582,-1.342773,-5.798340,-13.488770
6020,0.022217,-0.123047,0.981567,-1.647949,-4.943848,-11.291504
6031,-0.046997,-0.080322,1.016113,-2.014160,-4.089355,-9.094238
6040,-0.091797,-0.109985,0.974854,-2.197266,-2.868652,-7.141113
6050,-0.086060,-0.105835,0.929810,-2.136230,-1.892090,-5.310059
6062,-0.101929,0.032227,0.923340,-0.915527,-0.488281,-2.319336
6071,-0.101440,-0.311035,0.922607,-1.098633,-0.305176,-1.770020
6081,-0.119873,-0.046875,0.994385,-2.441406,-0.061035,-1.220703
6091,-0.101563,0.258667,1.053101,-2.868652,0.366211,-0.793457
6100,-0.083496,-0.327637,0.928223,-0.183105,1.403809,0.183105
6110,-0.008911,-0.717529,0.971680,-0.610352,1.953125,1.892090
6121,-0.053711,-0.333740,1.057739,-5.187988,2.380371,3.356934
6130,-0.048340,0.118530,1.048340,-8.239746,3.295898,4.699707
6142,-0.002075,0.108643,0.949585,-7.568359,3.967285,8.300781
6151,-0.053223,0.327271,0.964966,-6.164551,3.784180,9.948730
6161,-0.006226,0.332153,0.962646,-3.540039,3.723145,11.108398
6170,-0.036255,-0.013306,0.978882,-0.610352,3.784180,12.451172
6181,-0.014160,-0.310059,1.003052,0.427246,3.417969,13.793945
6190,0.064575,-0.242310,1.081665,-0.610352,3.601074,14.770508
6202,0.112793,-0.193115,1.034668,-3.479004,3.356934,17.578125
6211,0.015259,-0.027832,0.974609,-3.356934,3.479004,18.432617
6221,-0.041748,0.029419,1.017090,-2.563477,3.356934,19.165039
6230,-0.016846,-0.151001,1.062012,-1.708984,2.746582,19.714355
6241,-0.064209,-0.088989,1.143311,-1.892090,2.197266,19.470215
6250,-0.042358,-0.123291,1.048706,-2.380371,2.197266,19.470215
6260,0.002686,-0.072144,0.952515,-2.502441,2.075195,19.775391
6270,0.081909,-0.073853,0.965454,-2.197266,1.647949,19.592285
6280,0.135010,-0.103394,0.972290,-2.258301,-0.610352,16.967773
6291,0.094849,-0.101318,1.112183,-2.807617,-1.953125,15.075684
6301,0.075562,-0.098389,1.139160,-2.746582,-2.624512,13.122559
6310,0.070435,-0.032959,1.019165,-2.868652,-3.173828,11.474609
6320,0.076416,-0.092651,0.937378,-2.685547,-3.845215,10.131836
6331,0.099243,-0.035889,0.955444,-2.380371,-4.455566,8.666992
6340,0.100952,-0.014160,0.987061,-2.197266,-5.249023,7.019043
6350,0.076538,0.082031,1.007446,-1.892090,-5.981445,3.479004
6361,0.052979,-0.043701,1.071655,-1.525879,-6.164551,2.075195
6371,0.031738,-0.048462,1.007813,-1.403809,-6.164551,1.403809
6380,0.014526,-0.032837,1.018555,-1.892090,-6.347656,1.403809
6391,0.067627,0.016602,1.064209,-2.319336,-6.103516,1.525879
6400,0.023926,-0.076172,0.973755,-2.685547,-6.225586,1.098633
6413,-0.045532,0.126221,0.866333,-2.624512,-5.798340,1.220703
6423,-0.094604,0.150635,0.946899,-2.136230,-4.943848,2.136230
6432,-0.109619,0.054687,0.978882,-0.976562,-4.028320,2.685547
6442,-0.133301,-0.000854,0.978271,-0.610352,-3.112793,4.028320
6451,-0.098511,-0.010864,0.939819,-0.549316,-2.563477,5.432129
6461,-0.059570,-0.076904,0.912354,-0.915527,-2.807617,6.042480
6470,-0.091431,-0.061890,0.914551,-1.586914,-2.929688,6.713867
6482,-0.061035,-0.017578,0.915771,-1.403809,-2.624512,9.338379
6492,0.044556,-0.043335,0.958740,-0.915527,-2.380371,10.925293
6501,0.112915,-0.169312,0.942139,-0.366211,-2.807617,12.145996
6511,0.156982,-0.159790,0.958130,-0.305176,-4.150391,13.244629
6520,0.160889,-0.129761,0.822021,-0.183105,-5.737305,13.488770
6530,-0.004395,-0.168457,0.630249,0.488281,-5.981445,13.366699
6541,-0.056763,-0.061890,0.663574,1.037598,-4.333496,13.916016
6551,0.063477,-0.138428,0.702515,1.403809,-4.272461,12.817383
6560,0.055298,-0.227051,0.743530,1.525879,-6.530762,10.742188
6571,-0.071899,-0.471558,0.977173,0.915527,-7.385254,9.216309
6581,-0.009888,-0.611206,0.762085,0.061035,-7.263184,8.239746
6590,-0.021484,-2.119629,-1.730225,-0.427246,-7.324219,7.080078
6600,0.103149,-1.866821,-1.068359,-6.713867,-7.507324,4.272461
6610,-0.110596,-2.196899,-1.365845,-26.550293,-8.544922,-1.586914
6623,0.088379,0.582153,0.319214,-67.016602,-9.094238,-13.916016
6633,0.209473,0.616699,2.314697,-63.293457,-9.460449,-17.517090
6642,0.316162,0.357544,3.971313,-48.461914,-12.207031,-20.935059
6652,0.363647,0.409180,3.999512,-35.156250,-14.099121,-22.827148
6661,0.349854,0.655640,3.999512,-21.423340,-15.136719,-23.132324
6671,0.297119,-0.492065,2.246460,-5.310059,-14.343262,-21.545410
6680,0.341431,-0.634766,1.645264,7.446289,-13.854980,-19.714355
6693,0.178833,-1.923218,0.670898,6.835937,-17.761230,-16.601562
6702,0.204224,-1.174927,1.373291,-2.929688,-17.822266,-16.662598
6712,-0.020508,-0.785645,1.654419,-6.347656,-18.737793,-16.967773
6721,-0.094971,-0.959839,1.672729,-1.159668,-19.042969,-18.676758
6731,-0.045166,-1.430420,1.410156,5.310059,-15.197754,-19.165039
6741,0.034546,-1.402954,1.230103,6.652832,-10.192871,-19.287109
6750,0.195801,-0.671265,1.649536,4.943848,-8.056641,-21.728516
6762,0.431274,1.241699,3.815918,15.380859,-16.235352,-33.325195
6771,-1.399048,2.556274,3.999512,33.569336,-20.690918,-47.912598
6781,-2.072144,3.934204,3.999512,53.771973,-11.535645,-57.678223
6790,-1.472534,3.999512,3.999512,73.120117,1.647949,-44.189453
6800,0.801147,3.999512,3.999512,85.388184,12.756348,-22.888184
6810,1.573242,3.565063,2.960327,101.440430,19.042969,-2.807617
6821,0.712524,2.333984,1.912354,120.056152,20.202637,9.765625
6830,-0.475098,1.925659,1.339233,129.821777,14.587402,15.136719
6842,-0.894897,1.774658,0.131714,126.342773,24.475098,24.169922
6851,-0.515259,1.134155,-0.475464,124.633789,35.278320,29.602051
6861,0.053711,0.672729,-0.217529,123.046875,46.691895,35.705566
6870,0.048340,0.045654,0.069702,119.628906,54.870605,47.119141
6880,0.220947,-0.453857,0.006836,111.938477,55.725098,55.175781
6890,0.360352,-0.552612,-0.376099,101.013184,49.926758,53.405762
6903,0.823242,-0.038452,-0.947266,84.045410,30.639648,35.583496
6912,0.801636,-0.185547,-0.706055,80.444336,24.475098,32.409668
6922,0.809448,-0.641724,-0.537354,76.293945,18.981934,30.517578
6931,0.549683,-0.980591,-0.501953,69.824219,12.512207,25.451660
6941,0.344360,-1.084961,-0.635254,60.424805,5.371094,17.578125
6950,0.233032,-1.104126,-0.768921,50.903320,-0.976562,10.681152
6960,0.351807,-1.156982,-0.793091,42.663574,-6.225586,5.798340
6970,0.471069,-1.214966,-0.673584,34.973145,-10.253906,0.061035
6982,0.264160,-1.180542,-0.652710,17.700195,-19.470215,-17.639160
6992,0.018066,-1.051758,-0.634399,8.605957,-21.423340,-25.207520
7001,-0.207031,-0.785767,-0.529541,1.220703,-20.874023,-29.663086
7011,-0.296875,-0.669312,-0.413940,-3.723145,-17.639160,-32.104492
7021,-0.317139,-0.703857,-0.270386,-7.263184,-13.732910,-31.860352
7031,-0.270630,-0.759644,-0.176514,-11.352539,-9.338379,-28.381348
7041,-0.196167,-0.746948,-0.111816,-21.728516,-1.037598,-14.465332
7051,-0.155762,-0.643921,0.004150,-26.489258,2.075195,-7.751465
7060,-0.205566,-0.649170,0.054321,-30.395508,5.310059,-0.793457
7071,-0.192139,-0.640381,0.106323,-33.691406,8.056641,5.493164
7081,-0.222534,-0.672974,0.094360,-36.560059,10.559082,9.948730
7090,-0.220703,-0.700317,0.055420,-40.344238,12.817383,12.878418
7100,-0.161499,-0.674316,0.031006,-44.494629,14.709473,15.075684
7111,-0.084473,-0.640137,-0.020142,-52.673340,15.625000,16.296387
7121,0.033936,-0.510254,-0.195190,-56.701660,15.136719,15.808105
7130,0.086792,-0.462646,-0.251343,-61.645508,13.488770,15.197754
7140,0.133545,-0.548340,-0.330322,-67.016602,11.352539,14.038086
7150,0.172363,-0.587036,-0.415894,-73.242187,8.605957,12.023926
7160,0.229126,-0.600708,-0.471558,-80.322266,5.615234,10.253906
7170,0.185059,-0.547119,-0.481934,-87.524414,2.319336,7.873535
7180,0.216797,-0.417969,-0.509644,-94.726562,-0.793457,4.882812
7191,0.099365,-0.093384,-0.619263,-101.928711,-3.417969,0.793457
7201,0.077515,0.009766,-0.705322,-114.379883,-7.080078,-1.037598
7210,0.073975,-0.043335,-0.836182,-120.178223,-7.934570,-2.685547
7220,0.062500,-0.049927,-0.887451,-125.732422,-8.483887,-4.028320
7231,0.107544,-0.206421,-0.931030,-131.652832,-9.338379,-5.310059
7240,0.162720,1.112061,0.370361,-139.343262,-10.070801,-7.080078
7250,-0.414551,3.692017,3.999512,-127.685547,-9.033203,-9.643555
7261,-1.564941,-3.999512,0.001831,-68.603516,-8.361816,16.784668
7271,0.213745,0.741089,0.582397,-79.223633,9.582520,-1.159668
7280,1.000244,3.999512,2.422729,-106.445312,7.385254,-18.371582
7291,-0.241821,3.597534,1.735718,-37.841797,-6.652832,-4.699707
7300,0.070312,-3.937500,0.125488,20.263672,-17.211914,3.356934
7310,-0.364136,0.234619,3.999512,-3.051758,-10.559082,-14.099121
7320,-1.039795,0.032959,3.999512,-20.935059,-5.310059,-7.263184
7331,-0.466675,1.483398,0.518799,-18.066406,6.652832,-0.366211
7341,0.056030,0.546265,0.056641,17.639160,6.958008,2.075195
7350,1.003052,-2.011841,0.649902,30.944824,7.080078,6.835937
7361,0.202759,-2.082397,1.247192,16.845703,-3.356934,2.380371
7370,-0.196899,-0.521362,1.400391,-9.460449,-6.591797,0.427246
7380,0.173950,1.100586,1.383545,-21.057129,5.065918,8.850098
7390,-0.153564,0.967529,1.325195,-8.178711,10.498047,15.869141
7401,0.014771,-0.375366,2.291626,12.695313,5.737305,12.451172
7411,0.203369,-0.556885,1.844849,20.019531,3.723145,11.352539
7420,-0.045288,-0.057007,0.905518,15.869141,-0.915527,6.286621
7430,0.052002,0.398438,0.517456,16.662598,-2.929688,3.479004
7440,0.197388,0.075684,0.547241,22.949219,-2.014160,4.943848
7451,0.275269,-0.350586,0.672607,26.855469,-1.953125,6.103516
7460,0.267822,-0.234131,0.893311,23.742676,-1.464844,5.432129
7472,0.255371,0.199707,0.409790,15.136719,-0.244141,7.446289
7482,0.088135,0.146362,0.220459,15.686035,-1.525879,7.019043
7491,0.078003,-0.066895,0.322510,16.967773,-2.075195,6.530762
7500,0.083740,-0.308838,0.702026,15.686035,-2.258301,5.371094
7511,0.027954,-0.247192,1.057251,11.596680,-3.723145,2.197266
7520,-0.028564,-0.065186,1.019897,7.141113,-5.126953,-1.281738
7532,-0.075806,0.051514,0.713623,4.699707,-4.516602,-1.586914
7541,0.009155,0.088623,0.633911,5.737305,-3.295898,-0.244141
7551,-0.007935,-0.074219,0.788208,6.347656,-2.563477,1.464844
7560,0.027222,-0.222900,0.845337,5.371094,-3.173828,2.624512
7571,0.006592,-0.170532,0.825439,3.601074,-3.662109,2.685547
7580,-0.024414,-0.223755,0.624390,1.647949,-3.479004,3.784180
7591,0.029541,-0.168701,0.529053,0.061035,-2.685547,5.249023
7600,0.047852,-0.084229,0.560913,-1.281738,-1.708984,6.347656
7610,-0.003906,-0.137573,0.674805,-3.173828,-1.586914,6.958008
7621,-0.025269,-0.028320,1.185303,-4.272461,-1.586914,7.080078
7631,-0.079346,-0.002075,1.169312,-4.455566,-1.647949,7.202148
7640,-0.071411,-0.017578,1.120361,-3.601074,-1.586914,7.080078
7650,-0.096313,-0.124390,0.980713,-2.441406,-1.342773,7.080078
7660,-0.036499,-0.177368,0.972290,-1.281738,-1.403809,6.347656
7673,0.016357,-0.130737,1.119385,-1.953125,-2.807617,4.333496
7682,0.015747,-0.180176,1.046387,-2.197266,-3.295898,3.051758
7692,0.033325,-0.144409,1.037109,-2.197266,-3.234863,2.258301
7701,0.001953,-0.110352,1.027832,-2.380371,-3.112793,1.525879
7711,0.009888,-0.036865,1.034180,-2.563477,-2.624512,1.159668
7720,-0.013672,0.010132,1.051514,-2.380371,-2.258301,1.464844
7730,-0.006958,-0.078491,1.044800,-1.892090,-2.136230,1.708984
7740,-0.003906,-0.071533,1.064209,-1.464844,-1.953125,2.014160
7751,0.083496,-0.204956,0.979858,-1.464844,-1.770020,1.220703
7761,0.131226,-0.152344,0.956665,-2.075195,-2.502441,-0.488281
7771,0.105713,-0.129761,0.895386,-2.319336,-3.845215,-3.356934
7780,0.048950,-0.130249,0.873901,-2.441406,-4.516602,-5.981445
7790,0.042114,-0.083618,0.972046,-2.746582,-4.638672,-7.690430
7801,0.030396,-0.052856,0.974731,-2.929688,-4.333496,-8.911133
7810,0.030151,-0.095947,0.931519,-3.295898,-3.662109,-9.338379
7822,0.065674,-0.004395,0.932983,-3.906250,-2.441406,-8.972168
7832,0.065552,0.005859,0.977295,-4.028320,-2.197266,-8.850098
7841,0.071777,0.048706,1.017822,-3.540039,-2.685547,-9.033203
7851,0.061768,-0.026733,1.010742,-3.112793,-2.990723,-9.155273
7860,0.100220,-0.058838,1.044678,-3.051758,-3.112793,-9.277344
7870,0.088745,-0.008179,1.034180,-3.295898,-3.295898,-9.094238
7881,0.098267,0.016113,1.006958,-3.662109,-3.356934,-8.056641
7891,0.052124,0.029297,0.965210,-3.295898,-2.807617,-7.141113
7901,0.007324,-0.007690,0.936523,-2.929688,-2.197266,-5.798340
7910,0.005493,-0.022461,0.933472,-2.929688,-1.770020,-4.211426
7920,-0.036011,-0.006348,0.975830,-3.112793,-1.037598,-2.624512
7930,-0.065674,0.007202,1.017944,-3.173828,-0.244141,-1.037598
7940,-0.072266,0.005493,1.013672,-3.234863,-0.183105,-0.183105
7952,-0.107788,0.055298,1.058105,-2.075195,0.366211,-0.366211
7961,-0.093018,-0.110474,1.018555,-1.342773,0.854492,-1.159668
7971,-0.038696,-0.198486,1.009277,-0.793457,0.793457,-2.136230
7980,-0.039795,-0.171509,0.978394,-1.159668,0.549316,-2.990723
7991,-0.003418,-0.135864,0.979370,-1.403809,0.732422,-3.356934
8000,-0.013916,-0.107178,0.968506,-1.403809,1.220703,-2.929688
8011,-0.032715,-0.078369,0.926636,-1.525879,1.708984,-1.831055
8020,-0.038452,-0.109131,0.927856,-1.831055,2.929688,1.220703
8032,-0.032837,-0.086914,0.972778,-2.197266,3.784180,2.563477
8041,-0.015015,-0.039429,0.998169,-2.380371,3.784180,3.662109
8051,-0.034546,-0.072632,1.015015,-2.075195,4.089355,3.967285
8060,-0.040527,-0.121582,1.019653,-2.014160,3.967285,4.089355
8071,-0.054321,-0.061523,1.074829,-2.075195,3.784180,4.455566
8080,-0.069214,-0.081787,1.006470,-2.380371,4.211426,5.920410
8093,-0.067261,-0.004639,0.972656,-2.685547,6.164551,10.803223
8102,-0.057373,0.002563,0.931885,-2.319336,6.835937,13.854980
8111,-0.085205,-0.002686,0.957886,-2.136230,7.751465,16.662598
8121,-0.070557,-0.076294,0.991211,-1.892090,8.056641,19.348145
8130,-0.103027,-0.109375,0.971802,-1.953125,8.239746,20.996094
8141,-0.097900,-0.121826,1.005249,-1.953125,8.056641,22.216797
8150,-0.108398,-0.120483,0.991333,-2.197266,7.385254,22.766113
8163,-0.039185,-0.065918,1.024170,-2.319336,7.263184,22.888184
8173,-0.032837,-0.116455,0.989380,-2.319336,6.713867,23.010254
8182,-0.022705,-0.085449,0.993774,-2.258301,6.713867,22.949219
8192,0.021606,-0.064697,1.018066,-2.197266,6.469727,23.132324
8201,-0.003174,-0.130371,0.998535,-1.953125,6.408691,23.559570
8211,0.025879,-0.101685,0.991211,-1.586914,6.225586,23.376465
8220,-0.020386,-0.116333,0.986572,-1.464844,5.737305,23.620605
8233,-0.024902,-0.129639,0.946533,-1.098633,5.920410,24.597168
8242,-0.062500,-0.163574,0.977905,-1.281738,5.615234,25.329590
8252,-0.045410,-0.151978,0.972778,-1.464844,4.943848,25.817871
8261,-0.021240,-0.110229,1.036987,-1.770020,4.577637,26.123047
8271,0.008545,-0.091431,1.041992,-1.953125,4.211426,25.756836
8280,0.029297,-0.022461,1.005737,-1.647949,3.540039,25.451660
8291,0.065552,-0.093506,1.021240,-1.159668,2.929688,24.963379
8300,0.030396,-0.103394,1.022217,-0.915527,2.258301,24.169922
8312,0.045898,-0.139404,1.009155,-0.793457,0.976562,21.179199
8321,0.088257,-0.130249,0.994141,-1.037598,0.183105,19.531250
8331,0.050903,-0.143555,0.958374,-1.220703,-0.793457,17.150879
8340,0.090576,-0.053467,1.006470,-1.281738,-1.525879,14.465332
8351,0.079102,-0.066406,1.065430,-0.915527,-2.136230,12.084961
8360,0.116699,-0.090820,1.084595,-0.183105,-2.685547,10.314941
8373,0.035156,-0.162231,0.998169,0.549316,-3.540039,8.056641
8382,0.020020,-0.115723,1.047607,0.244141,-3.479004,7.812500
8392,0.025269,-0.100098,1.048096,-0.061035,-3.295898,7.568359
8401,0.004150,-0.022827,1.061890,-0.366211,-3.723145,6.896973
8411,0.020264,-0.005005,1.027954,-0.122070,-4.333496,6.164551
8420,0.040405,-0.124878,0.934937,0.488281,-4.394531,5.371094
8431,0.041870,-0.127319,0.956543,0.366211,-4.272461,4.211426
8441,0.040283,-0.163574,0.973511,-0.366211,-4.760742,2.075195
8450,0.036865,-0.133179,0.962280,-0.671387,-5.004883,0.793457
8461,0.049805,-0.114868,0.964722,-0.854492,-4.943848,-0.305176
8470,0.051025,-0.116943,0.972900,-1.098633,-4.821777,-1.831055
8480,0.036255,-0.054810,1.020630,-1.586914,-5.310059,-3.784180
8490,0.048950,-0.065918,0.989746,-1.464844,-5.737305,-5.187988
8501,0.040161,-0.016846,1.052979,-1.281738,-5.859375,-6.225586
8511,0.023926,-0.014038,1.046021,-1.098633,-5.554199,-7.019043
8520,0.010742,0.024048,1.058472,0.305176,-5.187988,-6.591797
8531,0.024780,-0.061646,0.983276,0.671387,-4.455566,-5.981445
8540,0.007568,-0.073853,1.008911,1.037598,-4.028320,-5.004883
8551,0.004761,-0.094727,0.974976,1.037598,-3.540039,-4.333496
8561,-0.008667,-0.075806,0.975220,0.671387,-3.051758,-2.746582
8570,0.032593,-0.030518,0.961670,0.793457,-2.197266,-1.403809
8580,0.019775,-0.027222,0.942627,0.854492,-2.197266,-0.366211
8592,0.005249,-0.070068,1.024780,1.037598,-1.342773,2.990723
8601,-0.011597,-0.070068,0.995850,1.525879,-1.159668,4.089355
8611,-0.017212,-0.066040,1.004028,1.770020,-0.854492,5.737305
8620,-0.034180,-0.117432,0.979614,1.831055,-0.122070,7.446289
8630,0.005127,-0.186279,0.908569,1.647949,-0.183105,8.728027
8641,-0.021240,-0.180176,0.894409,0.854492,-0.305176,9.948730
8650,0.026733,-0.202881,0.931519,0.000000,0.061035,11.718750
8662,0.052612,-0.059814,1.014648,-1.342773,-0.671387,12.084961
8671,0.037720,-0.104370,0.903442,-1.464844,-0.671387,12.512207
8681,0.025757,-0.147217,0.870117,-1.525879,-1.159668,12.512207
8690,-0.006348,-0.140991,0.923096,-1.892090,-1.464844,12.207031
8700,-0.016479,-0.155518,0.944092,-2.197266,-1.525879,12.207031
8711,-0.029053,-0.144043,0.963989,-2.502441,-1.708984,12.084961
8720,-0.027466,-0.081787,1.079102,-2.990723,-1.831055,11.291504
8732,-0.011108,-0.097046,1.015747,-1.953125,-1.647949,10.314941
8741,-0.033813,-0.212036,0.982056,-1.525879,-1.708984,9.338379
8751,-0.024902,-0.143188,1.045776,-2.075195,-2.075195,7.873535
8760,-0.028320,-0.122925,1.018433,-2.380371,-2.258301,6.286621
8770,-0.018921,-0.096313,0.970947,-2.563477,-2.380371,4.699707
8781,-0.005493,-0.097900,0.967285,-2.258301,-2.441406,3.112793
8790,0.024414,-0.104858,0.961914,-1.892090,-2.868652,1.586914
8801,0.023682,-0.131470,1.008789,-2.014160,-3.662109,-2.197266
8811,0.031982,-0.071899,1.004150,-2.807617,-3.723145,-3.540039
8820,0.045898,-0.013916,0.994873,-2.502441,-3.845215,-4.821777
8831,0.031860,-0.062988,0.981201,-2.014160,-3.723145,-5.676270
8840,0.025146,-0.090454,1.033325,-1.159668,-3.540039,-6.103516
8850,0.020264,-0.083496,1.023560,-1.037598,-3.234863,-6.347656
8862,0.010010,-0.115112,0.983154,-1.831055,-2.258301,-5.859375
8871,0.043945,-0.034302,0.984863,-1.892090,-1.953125,-5.615234
8881,0.027832,-0.062256,0.891846,-1.770020,-1.953125,-5.187988
8890,0.040527,-0.112671,0.920288,-2.075195,-2.014160,-4.333496
8901,0.015991,-0.107056,0.971680,-2.685547,-1.953125,-3.234863
8910,0.045898,-0.060913,1.005249,-3.051758,-1.647949,-2.136230
8921,0.012329,0.022217,1.084351,-3.845215,-1.098633,-0.610352
8930,0.033691,0.056885,1.082153,-3.784180,0.305176,3.234863
8942,-0.022095,-0.005005,1.020508,-2.929688,0.671387,5.432129
8951,-0.019165,0.007080,1.048950,-2.563477,0.915527,7.507324
8961,-0.044189,0.032471,1.063843,-2.563477,0.671387,9.277344
8970,-0.023560,-0.000610,1.029419,-2.624512,0.793457,10.864258
8981,-0.018311,0.041016,1.019531,-2.258301,0.976562,12.145996
8990,-0.007202,0.016357,0.967407,-2.075195,1.037598,12.878418
9003,0.011841,-0.005127,0.956299,-1.220703,0.793457,13.610840
9012,-0.008423,-0.060181,0.990845,-1.220703,0.671387,13.977051
9022,-0.024048,-0.054932,0.978882,-1.586914,0.244141,14.221191
9031,-0.041260,-0.052979,0.956665,-1.464844,0.122070,14.221191
9041,-0.037476,-0.036255,0.983276,-1.403809,0.244141,14.465332
9051,-0.037231,0.020996,0.931641,-1.342773,0.061035,14.526367
9061,-0.065430,0.008301,0.960693,-0.854492,-0.061035,14.404297
9070,-0.041626,-0.062256,1.007446,-0.305176,-0.122070,13.610840
9082,-0.058472,-0.100464,0.961548,-0.366211,-0.061035,12.817383
9092,-0.042114,-0.107544,0.997803,-0.427246,-0.305176,12.084961
9101,-0.042847,-0.092651,0.979492,-0.183105,-0.305176,10.986328
9111,-0.033447,-0.083496,1.002808,-0.488281,-0.244141,9.460449
9121,-0.023926,-0.076538,1.043579,-0.671387,-0.610352,8.056641
9130,-0.004883,-0.042725,1.018799,-0.671387,-1.098633,6.347656
9143,-0.012817,-0.145874,1.013672,0.305176,-1.220703,3.784180
9152,0.008423,-0.178711,1.012695,0.183105,-1.220703,2.563477
9162,-0.016113,-0.125488,1.027710,-0.244141,-1.464844,1.770020
9171,-0.004639,-0.092529,0.998535,-0.610352,-1.525879,1.037598
9181,0.009155,-0.095703,0.984131,-0.305176,-1.037598,0.610352
9190,0.020386,-0.122681,0.957153,-0.061035,-0.915527,0.854492
9201,0.053223,-0.187744,0.973999,-0.122070,-0.976562,0.976562
9210,0.076660,-0.220947,1.014771,-0.549316,-1.159668,0.183105
9222,0.058838,-0.145264,0.967651,-1.159668,-1.098633,0.000000
9231,0.091919,-0.148437,0.998291,-1.525879,-1.647949,-0.427246
9241,0.079590,-0.063843,1.068115,-1.159668,-1.770020,-0.366211
9250,0.061768,-0.139526,1.031006,-0.671387,-2.014160,-0.244141
9261,0.090942,-0.081177,1.129517,-0.488281,-1.892090,0.000000
9270,0.048950,-0.051514,1.090088,-0.122070,-2.136230,0.549316
9283,0.058838,-0.079102,1.056519,1.159668,-1.892090,2.136230
9292,0.069092,-0.162720,0.998901,1.831055,-1.892090,2.990723
9302,0.058228,-0.218750,0.997314,1.892090,-1.647949,3.356934
9311,0.036743,-0.194580,0.971069,1.098633,-2.075195,3.540039
9321,0.015015,-0.197388,0.924927,0.366211,-2.258301,3.601074
9330,0.005737,-0.165527,0.914917,-0.488281,-2.502441,3.417969
9341,-0.005493,-0.065796,0.946777,-0.915527,-2.380371,3.173828
9350,-0.031860,-0.097290,0.967773,-0.732422,-2.441406,2.441406
9362,-0.041016,-0.122803,0.937622,-0.854492,-2.380371,1.892090
9372,-0.011230,-0.157959,0.961914,-1.037598,-2.441406,1.098633
9382,-0.020264,-0.090210,0.960449,-1.281738,-2.624512,0.183105
9391,0.005493,-0.087158,0.919800,-1.281738,-2.502441,-0.366211
9401,0.000977,-0.130371,0.920776,-1.159668,-2.380371,-0.793457
9410,0.014404,-0.142944,0.951782,-1.403809,-2.136230,-1.159668
9423,-0.023560,-0.051392,1.011230,-2.136230,-1.342773,-0.122070
9433,-0.020386,-0.007202,1.031128,-2.075195,-0.915527,0.854492
9442,-0.021484,-0.003174,1.036133,-1.586914,-0.610352,2.075195
9452,-0.008423,-0.047241,0.989502,-0.976562,-0.305176,2.990723
9461,-0.021118,-0.053589,1.018555,-0.671387,-0.488281,3.601074
9471,-0.021973,-0.088257,1.006836,-0.915527,-0.244141,4.394531
9480,-0.006348,-0.093994,1.005981,-1.098633,-0.305176,5.187988
9493,-0.024414,-0.075806,0.947998,-1.220703,-0.427246,5.981445
9503,0.022705,-0.059082,0.959351,-1.098633,0.000000,6.469727
9512,0.040405,-0.106323,0.994141,-1.098633,0.183105,6.958008
9521,0.038208,-0.139282,0.983887,-1.220703,-0.183105,6.835937
9531,0.032959,-0.045410,1.035278,-1.464844,-0.427246,6.835937
9540,0.031738,-0.047363,1.044434,-1.586914,-0.854492,6.713867
9551,0.034546,-0.037109,1.067139,-1.525879,-1.159668,5.920410
9560,0.018799,0.035767,1.091675,-0.976562,-1.403809,5.004883
9572,-0.005249,-0.068604,1.052490,-0.061035,-1.403809,4.455566
9582,0.000244,-0.062622,1.056885,-0.061035,-1.159668,4.272461
9591,-0.009277,-0.088379,0.969727,0.000000,-1.159668,4.211426
9601,0.007568,-0.082642,0.935059,-0.366211,-1.281738,3.784180
9610,0.004395,-0.089722,0.916992,-0.488281,-1.342773,3.173828
9621,0.006348,-0.122314,0.918091,-1.037598,-1.770020,2.624512
9631,0.005615,-0.132324,0.945190,-2.197266,-2.136230,0.915527
9640,-0.021606,-0.106567,0.987305,-2.624512,-2.136230,0.305176
9650,-0.019775,-0.075073,0.952393,-2.868652,-1.953125,-0.305176
9660,0.006348,-0.103027,0.977539,-2.868652,-1.953125,-1.159668
9671,0.003662,-0.043091,1.018677,-2.929688,-2.197266,-2.136230
9681,0.015381,-0.084717,1.003052,-3.112793,-2.075195,-3.112793
9690,-0.012085,-0.106445,0.992676,-2.990723,-2.197266,-4.089355
9703,0.018677,-0.038086,1.009766,-3.356934,-1.770020,-5.371094
9713,0.029663,-0.024292,1.009521,-3.051758,-1.586914,-5.859375
9722,-0.005005,-0.015015,1.017578,-2.746582,-1.403809,-6.164551
9732,0.030029,-0.025024,0.971313,-2.685547,-1.159668,-6.164551
9742,0.010620,-0.035278,1.008301,-2.380371,-0.915527,-6.286621
9751,0.001953,0.019165,1.044678,-2.075195,-1.159668,-6.164551
9761,-0.001099,0.004883,0.976562,-1.647949,-0.976562,-5.737305
9771,0.026978,-0.048218,0.999634,-1.525879,-0.610352,-3.906250
9780,0.020630,-0.000854,1.009888,-1.220703,-0.244141,-2.014160
9791,0.016479,-0.062622,0.978394,-0.915527,0.427246,0.061035
9801,0.009888,-0.064209,0.984741,-0.793457,1.220703,2.441406
9811,0.003784,-0.072998,0.995361,-1.098633,1.464844,4.699707
9820,0.008789,-0.103638,1.044800,-1.220703,1.708984,6.347656
9830,0.007324,-0.063599,1.000366,-1.159668,1.647949,7.141113
9841,-0.013184,-0.093018,0.982300,-1.342773,1.281738,7.934570
9851,-0.000977,-0.009766,1.030640,-1.525879,0.976562,7.629395
9861,0.010864,-0.058838,1.026733,-1.464844,0.671387,7.202148
9870,-0.030396,-0.122070,1.037842,-1.403809,0.671387,6.958008
9881,-0.003174,-0.020386,1.003662,-1.403809,0.610352,6.896973
9891,-0.030151,-0.071777,1.004272,-1.159668,0.915527,6.835937
9900,-0.009521,-0.139038,0.973389,-1.098633,1.220703,6.713867
9913,0.007813,-0.031982,1.040161,-1.770020,0.488281,6.103516
9922,-0.008423,-0.117188,0.989014,-1.586914,0.183105,5.554199
9932,-0.015015,-0.113647,1.042358,-1.525879,0.366211,5.126953
9941,-0.025635,-0.089355,1.054565,-1.708984,0.793457,4.699707
9951,-0.043945,-0.131958,1.005493,-2.258301,0.549316,4.333496
9960,-0.037109,-0.068481,1.023926,-2.563477,0.427246,4.272461
9971,-0.030884,0.031738,1.056030,-2.746582,0.793457,4.455566
9980,-0.034302,-0.029297,0.973755,-2.258301,1.220703,4.394531
9992,-0.026123,-0.059937,1.005981,-1.342773,0.854492,4.028320
10002,-0.047485,-0.083740,0.945312,-1.281738,0.915527,3.601074
10011,-0.005981,-0.095093,0.948364,-1.525879,0.671387,2.807617
10021,-0.012573,-0.080322,0.888062,-1.464844,0.610352,2.319336
10030,0.026733,-0.113159,0.955078,-1.586914,0.732422,1.892090
10041,0.012573,-0.101318,0.938232,-1.831055,0.610352,1.037598
10050,0.039673,-0.052979,0.998779,-2.197266,0.610352,0.183105
10062,0.031494,-0.023315,1.026733,-2.014160,0.854492,0.061035
10075,-0.005737,-0.015625,0.990356,-1.464844,0.915527,0.122070
10085,-0.002441,0.003296,1.011963,-0.915527,1.159668,1.159668
10095,-0.004028,0.004272,1.049072,-0.549316,1.220703,2.014160
10104,0.008179,-0.080322,0.994751,-0.427246,1.220703,2.685547
10114,0.030029,-0.050415,0.983643,-0.671387,1.525879,3.540039
10123,0.017334,-0.057495,0.968872,-1.037598,1.708984,4.943848
10133,0.042480,-0.066284,0.970703,-1.342773,2.075195,6.408691
10142,0.011719,-0.023315,0.958130,-1.464844,1.831055,7.751465
10152,0.011719,-0.023315,0.996338,-1.403809,1.708984,8.850098
10161,-0.004517,-0.103882,1.015503,-1.342773,2.014160,9.704590
10171,-0.016235,-0.066528,1.062012,-1.464844,2.075195,9.887695
10181,0.006958,-0.019287,1.129150,-1.708984,1.892090,9.826660
10193,0.028687,-0.050903,0.959839,-0.854492,1.403809,9.704590
10203,0.059814,-0.056641,0.928589,-0.915527,1.037598,9.399414
10212,0.103149,-0.130005,1.019897,-0.854492,0.610352,8.972168
10222,0.057373,-0.181152,0.989502,-1.098633,-0.061035,8.605957
10231,0.063721,-0.185791,1.009277,-1.770020,-0.305176,7.690430
10241,0.056885,-0.076172,1.072998,-2.380371,-0.671387,6.713867
10250,0.017212,-0.062256,0.980347,-2.380371,-1.037598,5.981445
10263,-0.010742,-0.059082,1.014526,-2.075195,-1.647949,3.784180
10273,-0.001465,-0.081665,1.026367,-2.014160,-1.770020,3.173828
10282,0.008423,-0.099243,0.939087,-1.831055,-1.770020,2.136230
10292,0.003174,-0.084106,0.977417,-1.647949,-2.136230,1.159668
10301,0.018433,-0.003296,1.051636,-0.976562,-2.197266,0.183105
10311,0.041016,-0.089355,0.996704,-0.305176,-2.258301,-0.061035
10320,0.049561,-0.194824,0.999023,0.244141,-2.136230,-0.488281
10332,-0.008423,-0.232422,0.995361,0.305176,-1.892090,-1.037598
10342,-0.109741,-0.209595,0.968384,-1.159668,-1.037598,-0.854492
10352,-0.073242,-0.225342,1.012451,-1.586914,-0.549316,-0.610352
10361,-0.073486,-0.138672,1.028198,-2.075195,-0.244141,-0.610352
10371,-0.098145,-0.160278,1.015259,-2.075195,-0.122070,-0.122070
10380,-0.026245,-0.150635,1.042358,-2.197266,-0.183105,0.000000
10391,-0.027344,-0.104736,1.025269,-2.075195,-0.061035,-0.244141
10401,0.013672,-0.152588,1.026001,-1.953125,-0.305176,-1.647949
10410,0.040161,-0.177368,0.986938,-2.197266,-0.183105,-2.319336
10421,0.073975,-0.107544,1.010132,-2.197266,-0.244141,-2.929688
10431,0.067749,-0.074707,0.984863,-2.380371,-0.122070,-3.173828
10441,0.086426,-0.147461,1.058960,-2.441406,-0.305176,-2.868652
10451,0.043335,-0.120117,1.022095,-2.380371,0.000000,-2.746582
10461,0.049805,-0.053833,1.061279,-2.136230,0.244141,-2.441406
10471,0.046265,-0.013306,1.034668,-1.892090,0.061035,-2.746582
10480,0.057007,-0.046509,0.977661,-1.892090,-0.488281,-3.173828
10491,0.063965,0.047607,0.930298,-1.953125,-1.098633,-3.662109
10500,0.078857,0.037598,0.937622,-1.831055,-1.586914,-4.272461
10511,0.036377,0.032593,0.953613,-2.136230,-1.525879,-4.272461
10521,0.053345,0.086426,0.976074,-2.380371,-1.464844,-3.723145
10530,0.010254,0.035156,0.983032,-2.685547,-0.549316,-2.563477
10543,0.067139,0.084351,0.970459,-3.173828,0.000000,-0.244141
10552,0.039063,0.052979,0.981812,-3.112793,-0.427246,0.488281
10562,0.053711,0.049805,1.042969,-2.502441,-1.098633,1.037598
10571,-0.077026,0.026367,0.958374,-1.708984,-0.732422,1.647949
10581,-0.117676,-0.060791,0.967529,-1.708984,0.671387,3.173828
10590,-0.161865,0.006714,0.999878,-2.014160,2.990723,5.981445
10601,-0.164307,0.024292,1.011963,-1.708984,5.371094,8.789063
10610,-0.199951,-0.071777,0.860352,-1.159668,6.347656,13.061523
10622,-0.139404,-0.042114,0.892334,0.244141,5.432129,13.916016
10631,-0.127197,-0.062256,0.892578,0.610352,3.845215,14.160156
10641,-0.116699,-0.192505,0.881226,0.366211,3.479004,15.380859
10650,-0.059204,-0.220093,0.938599,-0.061035,3.845215,17.028809
10661,-0.075317,-0.193970,0.818359,-0.061035,5.493164,19.287109
10671,-0.071045,-0.078003,0.730957,0.061035,7.629395,22.583008
10682,-0.121826,-0.242920,0.850830,0.793457,8.666992,27.282715
10692,-0.088257,-0.362915,0.797241,1.953125,8.544922,28.198242
10701,0.069580,-0.549683,0.837036,0.915527,7.446289,28.564453
10711,0.072021,-0.747314,0.311523,-0.854492,3.967285,27.954102
10721,-0.214722,-2.292847,-2.261597,-1.464844,0.488281,26.672363
10731,-0.092651,-1.452393,-0.934326,-11.779785,1.953125,24.902344
10741,-0.147095,-2.259399,-2.064819,-28.686523,3.173828,22.399902
10750,0.118042,-1.058716,-1.497559,-49.560547,5.004883,19.470215
10762,0.473511,-0.057251,2.666382,-54.504395,2.624512,18.859863
10772,0.399902,0.036499,3.999512,-44.616699,2.807617,19.104004
10781,0.502441,0.656250,3.999512,-34.484863,2.929688,19.287109
10791,0.247803,0.586304,3.999512,-18.981934,1.342773,16.906738
10801,0.182861,-0.790283,2.470581,0.366211,-1.037598,13.916016
10811,0.036011,-1.475098,1.527954,11.840820,-4.028320,5.920410
10822,-0.622437,-1.633179,0.803711,12.695313,-9.643555,-12.878418
10832,-0.578979,-0.671997,1.362305,-3.234863,-9.338379,-17.944336
10842,-0.412109,-0.377808,1.858154,-1.586914,-4.516602,-18.371582
10852,-0.305298,-0.707153,1.920898,4.638672,1.342773,-13.977051
10861,-0.149780,-0.588257,1.783447,7.751465,6.286621,-8.117676
10871,-0.050293,0.688965,2.964966,7.690430,10.742188,-2.990723
10880,-0.000854,2.249023,3.999512,10.375977,10.314941,2.258301
10893,-0.440186,3.999512,3.999512,53.100586,-0.366211,-8.239746
10902,-0.829346,3.999512,3.999512,78.552246,-1.464844,-10.681152
10912,0.969971,3.999512,3.999512,91.430664,1.098633,-5.615234
10921,1.374390,3.285156,3.172485,102.722168,12.634277,7.385254
10931,0.460449,2.140869,1.495972,116.760254,13.061523,12.329102
10941,0.142944,2.073975,0.813110,126.525879,5.554199,7.751465
10951,-0.488159,1.912598,0.429077,129.455566,4.577637,9.460449
10962,-0.267090,0.150635,-0.894043,126.098633,10.498047,26.428223
10971,0.037476,-0.069580,-0.900879,111.694336,19.897461,28.503418
10981,-0.068970,-0.342407,-0.806763,103.027344,21.972656,32.348633
10990,0.018433,-0.621948,-0.782837,93.688965,21.972656,37.414551
11001,0.206909,-0.751953,-0.727905,82.580566,19.348145,38.513184
11010,0.336670,-0.656372,-0.772705,71.350098,13.305664,32.958984
11021,0.367310,-0.348999,-0.631226,62.255859,7.812500,24.353027
11032,0.462524,-0.659790,-0.059448,57.250977,3.967285,17.211914
11042,0.419922,-0.871338,0.047241,50.476074,-4.272461,10.925293
11051,0.335083,-0.929077,-0.020142,45.959473,-8.911133,1.892090
11060,0.317139,-0.801514,-0.059082,40.588379,-12.756348,-6.042480
11071,0.276489,-0.713867,-0.135620,35.888672,-16.052246,-12.084961
11080,0.315796,-0.729736,-0.170776,33.142090,-18.981934,-17.883301
11091,0.129761,-0.828125,-0.175903,30.700684,-21.240234,-22.766113
11101,0.010986,-0.900146,-0.187134,22.460937,-21.850586,-29.357910
11110,-0.119019,-0.931519,-0.218872,17.028809,-20.263672,-29.113770
11121,-0.219727,-0.842163,-0.198608,11.596680,-17.700195,-27.832031
11131,-0.256836,-0.830566,-0.192139,7.202148,-15.014648,-25.878906
11141,-0.177246,-0.832520,-0.189941,2.685547,-12.084961,-22.827148
11150,-0.210571,-0.843628,-0.216187,-1.953125,-9.582520,-18.676758
11160,-0.101929,-0.801636,-0.239868,-6.713867,-7.690430,-14.343262
11170,-0.138550,-0.831909,-0.243286,-11.840820,-4.882812,-7.141113
11180,-0.095581,-0.945923,-0.234131,-22.094727,-3.417969,-3.784180
11190,-0.156494,-0.916992,-0.251953,-27.893066,-1.892090,-0.183105
11201,-0.115601,-0.882812,-0.263306,-33.874512,-0.061035,2.441406
11211,-0.106567,-0.830078,-0.324219,-39.611816,1.647949,4.516602
11221,-0.003296,-0.801636,-0.370483,-46.081543,2.319336,5.676270
11230,0.039307,-0.731445,-0.377075,-51.940918,2.502441,6.774902
11240,0.096313,-0.683105,-0.352051,-58.166504,1.892090,6.835937
11252,0.154053,-0.506348,-0.365845,-70.861816,-0.244141,6.530762
11261,0.216187,-0.342529,-0.408936,-76.904297,-1.831055,6.408691
11271,0.215454,-0.182495,-0.413696,-82.763672,-2.746582,6.591797
11280,0.229004,-0.081055,-0.393921,-88.134766,-4.516602,6.958008
11291,0.214600,-0.069824,-0.385498,-93.444824,-5.432129,7.934570
11301,0.208740,-0.016235,-0.398804,-99.060059,-6.225586,9.094238
11310,0.221191,-0.034302,-0.404663,-120.300293,-7.385254,12.207031
11320,0.230225,0.048584,-0.507690,-117.126465,-8.056641,13.732910
11331,0.085083,0.203491,-0.588501,-123.413086,-8.422852,14.892578
11341,-0.022827,0.373657,-0.639404,-129.455566,-8.117676,16.174316
11350,-0.065552,2.489014,1.484741,-136.413574,-6.591797,17.211914
11361,-0.451172,3.852783,3.999512,-118.713379,-1.464844,17.944336
11370,0.764893,0.271362,3.999512,-55.847168,5.065918,25.329590
11383,-0.002197,0.040161,0.018433,-82.214355,17.517090,24.230957
11392,0.672974,3.999512,3.999512,-117.187500,15.075684,5.798340
11402,0.100830,3.980957,3.731201,-47.790527,-4.394531,2.197266
11411,-0.629761,-3.795776,-1.427246,13.854980,-19.531250,-1.525879
11421,0.025269,0.782959,3.999512,-7.934570,-9.094238,-11.657715
11431,-0.354980,0.710693,3.999512,-19.348145,-3.967285,-7.629395
11440,0.141602,-1.099487,1.057373,-8.422852,0.427246,-1.281738
11453,0.140503,0.718750,0.874756,4.638672,5.859375,3.356934
11462,0.504761,-1.167236,0.993164,13.061523,0.488281,0.244141
11471,-0.151978,-1.345093,1.223999,6.835937,-9.094238,-9.948730
11481,-0.512451,-0.368286,1.296387,-9.155273,-9.582520,-15.930176
11491,-0.021118,0.550781,1.453369,-15.625000,2.502441,-9.277344
11500,-0.047852,0.642822,1.373779,-7.202148,9.643555,-3.051758
11510,-0.042358,0.201660,1.728760,7.507324,6.958008,-1.770020
11523,0.177490,-0.143066,1.794800,14.160156,5.981445,4.455566
11532,0.001221,0.055054,1.271240,14.465332,3.356934,3.479004
11541,-0.129150,0.203003,0.886108,18.737793,1.586914,2.441406
11550,-0.155029,-0.043579,0.694336,24.475098,2.868652,5.065918
11561,-0.079590,-0.235718,0.808960,26.062012,6.347656,9.887695
11571,0.005127,-0.324219,0.766968,22.827148,8.911133,14.038086
11580,0.131226,-0.145752,0.664795,18.249512,9.887695,17.333984
11591,0.038940,-0.007813,0.454956,14.770508,7.751465,25.024414
11600,-0.008545,-0.049683,0.340820,15.014648,7.568359,28.808594
11611,0.066772,-0.162231,0.558350,14.465332,7.995605,31.982422
11620,-0.036621,-0.248657,0.742432,12.512207,6.958008,32.592773
11630,-0.052734,-0.253662,0.777710,9.643555,5.126953,32.043457
11641,-0.071167,-0.263916,0.743896,7.263184,4.699707,32.653809
11650,0.025146,-0.232666,0.728760,5.554199,4.821777,33.752441
11663,0.104614,-0.150146,0.761719,4.333496,4.455566,34.667969
11672,0.168091,-0.167969,0.809814,3.967285,2.807617,34.851074
11682,0.190430,-0.206055,0.796631,3.173828,1.159668,34.484863
11691,0.179199,-0.247070,0.785156,2.197266,0.549316,33.752441
11700,0.172729,-0.248657,0.737793,1.647949,0.244141,33.752441
11711,0.151245,-0.313477,0.768921,0.915527,-0.732422,32.775879
11720,0.097656,-0.296509,0.757324,-0.122070,-1.892090,30.273437
11731,0.069214,-0.253418,0.840454,-1.708984,-5.432129,23.498535
11741,-0.025391,-0.040894,1.081299,-1.647949,-6.469727,19.287109
11750,0.008789,-0.164673,1.094360,-0.915527,-7.751465,14.953613
11760,-0.006104,-0.221436,1.014893,-0.366211,-8.728027,11.535645
11771,0.048950,-0.184448,1.056396,-0.183105,-9.460449,8.605957
11780,0.020142,-0.085449,1.026855,-0.244141,-9.948730,6.713867
11791,-0.029907,-0.017212,1.025391,-0.366211,-9.277344,5.615234
11800,-0.007202,-0.035400,1.064697,-0.366211,-7.507324,5.065918
11810,-0.055786,-0.119385,1.018677,-0.610352,-7.446289,3.967285
11820,-0.036011,0.002319,1.076538,-0.915527,-7.995605,2.014160
11830,-0.013062,0.040283,1.050781,-0.671387,-8.850098,-0.244141
11840,0.024658,-0.020996,1.026367,-0.549316,-10.009766,-2.929688
11851,0.014893,0.006348,1.033203,-0.305176,-10.314941,-4.455566
11860,0.009399,0.061401,1.064453,-0.610352,-9.765625,-4.333496
11871,0.014648,0.071411,0.975464,-1.342773,-6.835937,-0.549316
11881,-0.038452,0.006958,0.951782,-1.708984,-5.065918,2.075195
11890,-0.092529,0.008179,1.007202,-2.014160,-4.455566,3.601074
11900,-0.091064,0.037231,1.133057,-2.258301,-4.394531,3.784180
11911,-0.104126,0.054932,1.079956,-2.380371,-4.821777,2.380371
11920,-0.104126,0.103760,1.077881,-2.685547,-5.493164,0.000000
11931,-0.067749,0.104492,1.094482,-2.441406,-5.493164,-1.892090
11940,-0.036133,0.067139,0.997681,-1.892090,-5.065918,-4.150391
11950,0.023315,0.055176,1.052246,-1.464844,-4.943848,-4.882812
11961,-0.004761,0.089111,1.005127,-1.647949,-4.516602,-4.943848
11970,0.000366,0.088257,1.053223,-2.197266,-4.028320,-4.943848
11980,-0.060303,0.096924,1.025024,-2.441406,-3.479004,-4.516602
11991,-0.125488,0.123291,1.050415,-2.624512,-2.807617,-4.333496
12000,-0.205933,0.147339,1.038818,-2.990723,-1.953125,-3.845215
12010,-0.300781,0.154785,1.004395,-3.356934,-0.610352,-3.540039
12022,-0.387085,0.195068,0.977173,-3.845215,3.051758,-3.295898
12031,-0.429199,0.086914,0.936646,-3.784180,4.882812,-3.601074
12040,-0.414673,0.077759,0.911865,-3.417969,6.835937,-3.845215
12050,-0.436035,0.096436,0.953613,-3.356934,8.544922,-4.211426
12061,-0.399658,0.146606,0.958252,-3.234863,9.948730,-5.249023
12070,-0.096436,0.026733,0.943481,-3.051758,10.925293,-6.530762
12080,0.357910,-0.523926,0.965210,-3.173828,11.352539,-6.835937
12092,-0.013916,0.072876,0.442627,-2.746582,3.295898,-6.835937
12101,-0.076416,-0.197144,0.595581,0.305176,2.685547,-6.958008
12111,0.243896,-0.476074,1.001587,2.624512,6.835937,-2.624512
12120,0.591064,-0.761353,1.404053,1.892090,11.657715,3.784180
12131,0.312500,-0.811279,1.413452,-0.549316,11.596680,7.507324
12140,0.037109,-0.612305,1.052124,-2.868652,8.666992,7.629395
12152,0.014526,-0.450073,0.731445,-1.586914,9.826660,11.413574
12162,0.156006,-0.536743,0.940918,-0.061035,9.704590,11.962891
12171,0.113281,-0.630859,0.871460,0.854492,8.483887,12.023926
12181,-0.031616,-0.659790,0.806763,0.183105,6.774902,12.023926
12190,0.021973,-0.591919,0.848022,-1.586914,6.835937,12.207031
12200,0.138306,-0.394775,0.978638,-2.929688,8.300781,13.977051
12210,0.137329,-0.359375,1.047363,-2.746582,8.239746,14.099121
12223,-0.079834,-0.314331,1.100952,-2.441406,5.310059,9.643555
12232,-0.104858,-0.308105,1.118896,-2.502441,4.211426,6.103516
12241,-0.159790,-0.272949,1.018799,-1.770020,3.417969,1.831055
12251,-0.146973,-0.267090,0.954346,-1.220703,2.685547,-2.502441
12260,-0.124146,-0.392456,0.944824,-1.159668,2.136230,-6.286621
12270,0.013428,-0.376099,0.959595,-1.831055,1.831055,-8.972168
12280,0.123779,-0.216187,0.969360,-2.868652,1.464844,-11.474609
12291,0.189941,-0.139160,0.928711,-2.868652,1.647949,-13.793945
12301,0.314209,-0.142456,1.026978,-1.953125,1.220703,-14.038086
12310,0.333496,-0.234375,1.039307,-1.464844,0.244141,-14.648438
12320,0.350708,-0.168335,1.166626,-1.586914,-0.732422,-15.319824
12329,0.314453,-0.075928,1.122314,-1.953125,-1.525879,-15.380859
12340,0.364746,-0.008179,1.074951,-1.953125,-2.319336,-15.197754
12350,0.396729,0.007324,1.046753,-1.586914,-3.234863,-15.197754
12360,0.363770,0.017334,1.020508,-1.098633,-4.638672,-15.380859
12371,0.384277,0.134521,1.087036,-0.793457,-5.249023,-15.502930
12380,0.373779,0.112793,1.067261,-2.075195,-4.943848,-14.892578
12390,0.414917,0.158203,1.014038,-2.380371,-4.760742,-13.793945
12399,0.341064,0.234863,0.977661,-2.685547,-5.249023,-12.634277
12410,0.359375,0.189575,1.041626,-2.929688,-5.920410,-11.901855
12420,0.325684,0.217041,1.083496,-2.990723,-6.469727,-11.413574
12431,0.353394,0.239990,1.156982,-2.685547,-8.850098,-12.023926
12440,0.280884,0.109619,1.031616,-2.502441,-9.826660,-12.084961
12451,0.215088,0.101563,0.961060,-2.136230,-10.742188,-12.695313
12460,0.158936,0.060669,0.994507,-1.525879,-11.352539,-13.549805
12470,0.067383,0.094604,0.926758,-1.281738,-11.352539,-13.916016
12479,0.065063,0.125122,0.913696,-1.586914,-10.925293,-14.038086
12490,0.032104,0.055908,0.938477,-1.831055,-10.925293,-14.587402
12501,-0.023926,0.035889,0.905640,-1.831055,-9.582520,-15.625000
12511,-0.136841,-0.011719,0.969238,-2.136230,-8.972168,-16.662598
12520,-0.182739,0.057861,0.944092,-2.258301,-7.934570,-17.883301
12530,-0.119385,0.028564,0.953613,-2.502441,-7.019043,-19.348145
12539,-0.119385,0.010620,0.971191,-2.563477,-6.225586,-20.690918
12550,-0.083984,0.010742,0.909912,-2.380371,-5.676270,-21.850586
12560,-0.017334,-0.073975,0.937866,-2.136230,-5.187988,-22.766113
12569,0.050293,-0.102173,0.924194,-1.708984,-4.821777,-23.071289
12581,0.059082,-0.061523,0.991699,-1.403809,-4.272461,-22.094727
12591,0.031250,-0.147827,0.958496,-0.732422,-2.990723,-20.690918
12600,0.036499,-0.267822,0.959106,-0.366211,-2.197266,-18.737793
12610,0.089111,-0.176392,0.924561,-0.122070,-1.464844,-16.296387
12620,0.093262,-0.244141,0.968628,-0.183105,-1.159668,-13.183594
12630,0.116699,-0.257813,1.019409,0.061035,-0.854492,-10.253906
12639,0.066895,-0.239990,0.901367,-0.122070,-0.915527,-7.446289
12651,0.122192,-0.366455,0.854492,-0.610352,0.122070,-1.464844
12661,0.171875,-0.361450,0.876831,-1.220703,0.366211,2.197266
12670,0.113770,-0.346558,0.987427,-1.342773,0.732422,6.164551
12679,0.125732,-0.330444,0.981201,-1.586914,0.976562,10.803223
12690,0.081055,-0.334717,1.076050,-1.586914,1.159668,15.930176
12700,0.092773,-0.270508,1.116943,-1.647949,1.159668,21.057129
12709,0.028076,-0.299683,0.999023,-1.464844,1.220703,25.634766
12721,-0.002075,-0.345093,0.983154,-0.915527,1.220703,33.142090
12731,0.067749,-0.411987,0.934448,-0.976562,1.342773,36.193848
12740,0.059570,-0.430176,0.959961,-1.464844,0.305176,38.085937
12749,0.063965,-0.367798,0.976685,-1.892090,-1.037598,39.062500
12760,0.029297,-0.393555,0.997070,-2.197266,-2.807617,39.733887
12770,0.012939,-0.302612,1.102783,-2.441406,-3.967285,39.733887
12779,0.019287,-0.370972,1.080078,-2.685547,-4.943848,38.879395
12789,0.000854,-0.346436,0.993896,-2.441406,-7.568359,34.240723
12800,-0.016479,-0.342041,0.978271,-2.502441,-9.216309,30.944824
12810,0.043457,-0.343994,1.004517,-2.685547,-11.047363,26.977539
12819,0.002686,-0.374756,0.889526,-2.624512,-12.756348,23.437500
12830,-0.044922,-0.356445,0.909424,-2.380371,-14.160156,19.531250
12840,-0.108276,-0.427856,0.920288,-2.258301,-14.343262,16.052246
12849,-0.103760,-0.338501,1.031982,-1.892090,-14.038086,13.244629
12861,-0.157349,-0.426880,0.899048,-1.464844,-13.793945,8.850098
12871,-0.223877,-0.424561,0.941406,-2.380371,-13.793945,7.751465
12880,-0.152954,-0.383911,1.034424,-2.746582,-13.122559,7.629395
12890,-0.178223,-0.240112,1.053223,-2.746582,-12.329102,7.873535
12900,-0.155640,-0.364746,0.943726,-2.075195,-11.474609,8.911133
12909,-0.195190,-0.212769,0.996948,-1.586914,-10.437012,10.375977
12920,-0.224365,-0.380859,0.965820,-0.976562,-9.094238,11.413574
12929,-0.260498,-0.280762,0.981201,0.061035,-6.591797,12.329102
12941,-0.327515,-0.437134,0.772583,0.488281,-6.225586,11.535645
12950,-0.281250,-0.151245,0.870117,0.244141,-5.432129,9.704590
12960,-0.329956,-0.398682,0.856812,-0.183105,-4.882812,7.995605
12969,-0.336914,-0.158691,0.973511,-1.037598,-4.028320,5.676270
12979,-0.334717,-0.065674,1.118652,-1.403809,-3.723145,3.295898
12990,-0.290894,-0.168457,0.983521,-1.159668,-3.112793,1.037598
13000,-0.212158,0.054443,1.060425,0.183105,-2.136230,-3.051758
13009,-0.130859,-0.084961,1.103027,0.366211,-1.586914,-4.760742
13020,-0.120239,-0.045044,1.097046,0.061035,-0.854492,-5.920410
13030,-0.158081,0.002197,1.065186,-0.366211,-0.305176,-6.652832
13039,-0.192627,0.057617,0.968994,-0.976562,0.183105,-7.263184
13049,-0.113525,-0.010742,0.928711,-1.525879,1.098633,-7.812500
13059,-0.091675,0.023926,0.902222,-2.258301,1.525879,-8.483887
13072,-0.139038,0.046631,1.137695,-3.479004,0.488281,-12.207031
13081,-0.086548,0.124268,1.128662,-3.295898,1.464844,-13.488770
13091,-0.080444,0.186157,1.195801,-2.807617,1.770020,-14.709473
13100,-0.137817,0.108398,1.074829,-1.647949,1.892090,-15.625000
13110,-0.120361,-0.013062,0.995850,-1.159668,3.173828,-15.991211
13119,-0.151367,-0.014893,0.929687,-0.976562,4.699707,-15.930176
13129,-0.126099,-0.180542,0.784912,-0.976562,5.920410,-16.113281
13142,-0.184448,-0.121338,0.718872,-2.746582,8.605957,-15.869141
13151,-0.176025,-0.107178,0.796997,-3.417969,9.948730,-15.441895
13161,-0.069458,-0.204224,0.857910,-4.028320,11.230469,-14.404297
13171,0.002197,-0.088501,1.054688,-4.455566,11.230469,-12.756348
13180,0.066650,-0.084595,1.168701,-4.394531,10.314941,-10.864258
13190,0.012085,0.045410,1.108276,-3.601074,10.009766,-7.995605
13200,0.077026,0.009888,1.020142,-2.380371,10.803223,11.779785
13209,0.057129,-0.154419,0.916504,-1.281738,14.221191,7.141113
13221,-0.029663,-0.290161,0.964478,-1.647949,15.502930,11.901855
13230,-0.139893,-0.288086,0.939453,-2.685547,16.174316,14.709473
13240,-0.239624,-0.212036,1.060791,-3.906250,16.235352,15.991211
13250,-0.245239,-0.183838,1.035767,-4.638672,15.563965,16.479492
13259,-0.155640,-0.084473,1.016479,-4.699707,14.831543,16.052246
13269,-0.007080,0.011230,1.054199,-3.845215,14.099121,15.991211
13281,-0.001709,-0.032959,0.863403,-0.854492,11.840820,15.625000
13291,-0.092041,-0.135742,0.740479,0.366211,11.718750,15.441895
13301,-0.106079,-0.242187,0.865845,1.098633,13.061523,15.991211
13310,-0.067139,-0.521118,0.942749,0.366211,14.587402,15.625000
13320,-0.103882,-0.305664,1.107544,-2.319336,15.319824,12.878418
13329,-0.063110,-0.212769,1.141357,-5.126953,14.282227,8.117676
13341,-0.106445,0.055420,1.047363,-4.943848,10.253906,-2.380371
13350,-0.070190,0.253540,0.909912,-1.708984,9.399414,-5.920410
13360,-0.088379,0.062744,0.847778,1.342773,9.643555,-7.446289
13369,-0.029053,-0.209839,0.977051,2.319336,10.925293,-7.507324
13379,-0.003418,-0.327881,1.101318,0.915527,12.695313,-7.141113
13390,-0.020020,-0.178345,1.167480,-1.770020,14.343262,-6.469727
13400,-0.015625,0.052612,1.126221,-3.845215,15.686035,-5.981445
13409,0.058472,0.103760,1.017578,-4.150391,16.479492,-5.187988
13421,0.213501,0.025146,0.750610,-3.295898,14.221191,-2.502441
13430,0.201050,0.058716,0.712036,-0.610352,12.207031,-1.831055
13440,0.249023,-0.190430,0.852051,0.366211,11.352539,-0.122070
13449,0.306763,-0.347900,1.075928,-0.549316,12.451172,2.807617
13460,0.251709,-0.499390,1.055420,-2.197266,13.427734,5.920410
13469,0.145386,-0.197876,0.992676,-3.723145,13.793945,7.751465
13481,0.099854,-0.061279,0.979736,-1.403809,13.488770,10.742188
13490,0.193359,-0.050903,0.964844,0.793457,11.840820,10.864258
13501,0.196045,-0.469360,0.960449,2.624512,9.338379,10.009766
13511,0.186890,-0.429321,1.042480,2.441406,6.713867,8.178711
13520,0.230347,-0.231323,1.159546,1.159668,5.737305,6.896973
13529,0.193359,-0.276611,1.030762,-0.244141,5.493164,7.324219
13539,0.241211,0.003540,1.036255,-1.098633,5.310059,8.666992
13550,0.254272,0.077515,1.057495,-0.427246,5.065918,10.620117
13559,0.254761,-0.044556,0.981812,0.305176,2.807617,14.160156
13571,0.172974,0.015869,0.963013,1.037598,2.319336,15.625000
13580,0.133301,0.050293,1.103149,0.732422,2.319336,17.089844
13589,0.120361,0.022949,1.152100,0.305176,2.197266,18.371582
13599,0.102661,-0.000244,1.159180,0.183105,2.258301,19.531250
13610,0.174805,0.177734,1.220581,0.305176,1.831055,20.263672
13619,0.200439,-0.036377,1.114868,0.976562,0.488281,20.141602
13632,0.288452,0.124756,1.153442,1.831055,-2.807617,18.676758
13641,0.364380,-0.095215,1.013428,2.075195,-4.638672,18.310547
13650,0.245972,0.030640,1.044678,1.892090,-5.432129,18.676758
13660,0.271729,0.019653,1.044922,1.831055,-5.371094,20.446777
13669,0.233154,-0.026245,1.024536,1.586914,-5.493164,22.216797
13679,0.243286,0.007202,0.969116,1.403809,-5.798340,23.803711
13690,0.178467,0.142944,1.015381,1.159668,-6.713867,25.207520
13699,0.180664,-0.051270,1.009521,0.244141,-8.850098,26.794434
13711,0.188599,0.000854,1.028931,0.488281,-10.314941,27.343750
13720,0.129639,0.064331,1.050293,0.732422,-11.352539,26.855469
13729,0.175781,0.033325,1.104248,1.281738,-12.634277,26.245117
13740,0.093750,-0.078857,0.977051,1.647949,-14.221191,25.268555
13749,0.122070,-0.011108,1.039063,1.647949,-15.258789,23.254395
13759,0.017334,-0.135132,0.961060,2.136230,-16.052246,20.568848
13772,-0.025879,-0.142456,0.889526,2.258301,-18.127441,11.779785
13781,-0.024658,-0.259399,0.710815,2.380371,-18.798828,6.042480
13791,-0.026978,-0.425415,0.707153,2.014160,-19.714355,0.000000
13800,-0.071289,-0.366943,0.780273,0.915527,-20.568848,-5.981445
13810,0.004395,-0.008057,1.360840,-0.305176,-20.568848,-10.314941
13820,0.046997,-0.030151,1.464355,0.366211,-21.057129,-13.488770
13829,0.040771,-0.203857,1.061157,2.746582,-21.484375,-15.686035
13839,0.034058,-0.471802,0.917603,3.540039,-20.019531,-19.958496
13849,0.016357,-0.736938,0.193115,0.671387,-18.554687,-21.606445
13860,0.026978,-0.473022,0.408325,-4.882812,-16.662598,-22.460937
13870,0.051270,-0.067505,0.715820,-8.789063,-16.235352,-22.766113
13879,0.141357,0.040894,0.985840,-8.422852,-16.418457,-22.033691
13889,0.160767,-0.114746,1.117310,-5.554199,-16.235352,-19.653320
13899,0.113159,-0.418335,1.054810,-3.234863,-16.235352,-17.333984
13909,0.040283,-0.499512,0.993164,-6.042480,-15.136719,-13.122559
13919,0.069458,-0.366577,0.954102,-7.629395,-14.709473,-10.314941
13929,0.022217,-0.172241,0.916626,-7.385254,-14.282227,-7.812500
13940,0.038208,-0.178223,0.997559,-5.798340,-13.305664,-4.577637
13949,0.034424,-0.393921,0.957031,-4.577637,-11.779785,-0.427246
13959,0.018555,-0.241089,1.029053,-4.699707,-11.352539,2.807617
13969,-0.018188,-0.224243,1.056763,-4.699707,-11.596680,5.432129
13979,-0.145142,-0.450073,0.936768,-3.356934,-10.681152,10.070801
13989,-0.281250,-0.326416,0.939575,-3.051758,-9.460449,12.695313
13999,-0.264648,-0.440796,0.909546,-3.356934,-8.056641,15.625000
14009,-0.228760,-0.353760,1.039917,-4.089355,-6.774902,18.066406
14020,-0.077271,-0.244751,1.062622,-4.211426,-6.164551,20.385742
14029,-0.046265,-0.351074,0.997192,-3.723145,-6.164551,21.728516
14039,-0.082275,-0.363770,1.012817,-3.112793,-6.591797,22.583008
14049,-0.108765,-0.287354,1.084717,-3.784180,-7.202148,21.423340
14059,-0.240845,-0.272217,1.114014,-3.784180,-7.385254,19.104004
14069,-0.200928,-0.172607,1.080444,-3.479004,-7.446289,15.930176
14080,-0.185669,0.003296,0.965576,-2.319336,-7.629395,11.962891
14089,-0.141602,0.058228,0.996460,-0.549316,-7.690430,7.568359
14099,-0.092529,-0.048340,1.067749,0.427246,-8.300781,3.295898
14109,-0.091797,-0.280640,1.095459,0.305176,-9.765625,-0.549316
14121,-0.234863,0.244507,1.154297,-1.953125,-11.169434,-6.347656
14131,-0.277954,0.443604,1.147217,-5.676270,-9.338379,-7.629395
14140,-0.233643,0.249756,1.028931,-4.455566,-7.568359,-8.972168
14150,-0.124268,0.484253,0.911743,-3.112793,-6.713867,-11.169434
14160,-0.195923,0.451416,0.877563,-0.915527,-6.347656,-13.305664
14170,-0.142822,0.285767,0.774780,2.258301,-5.371094,-14.465332
14180,-0.108276,-0.043213,0.824341,4.211426,-3.723145,-16.174316
14190,-0.146240,-0.428223,0.806641,0.854492,-3.906250,-16.662598
14199,-0.338989,0.172241,1.171265,-1.708984,-1.892090,-15.686035
14209,-0.347900,0.042847,1.053589,-2.197266,0.732422,-15.136719
14219,-0.339111,0.132202,0.965576,-1.159668,2.136230,-15.808105
14230,-0.239258,0.331421,1.088379,0.305176,2.990723,-17.150879
14239,-0.180542,-0.015869,1.085938,1.770020,3.967285,-17.700195
14250,-0.226074,-0.207886,0.981201,2.258301,5.187988,-17.761230
14259,-0.264771,-0.063843,0.949463,0.610352,8.728027,-16.784668
14269,-0.202393,-0.008423,0.909912,0.061035,10.192871,-16.235352
14279,-0.191284,-0.068848,0.854980,-0.915527,10.986328,-16.052246
14289,-0.191162,0.024902,0.925415,-1.159668,11.840820,-15.991211
14300,-0.111694,0.014160,1.018677,-0.305176,12.695313,-16.174316
14309,-0.169312,-0.210571,0.961304,0.671387,12.695313,-16.662598
14320,-0.159912,-0.183472,1.005493,1.464844,13.305664,-17.272949
14329,-0.125854,-0.388428,1.072754,0.427246,15.502930,-17.883301
14339,-0.108643,-0.536743,0.933594,-1.586914,16.357422,-17.883301
14349,-0.095947,-0.311157,0.919800,-3.051758,17.333984,-17.333984
14359,-0.035034,-0.247437,0.777954,-3.784180,18.676758,-15.502930
14370,0.018433,0.057373,1.033813,-3.479004,20.263672,-12.512207
14379,0.035522,-0.145508,1.026733,-2.014160,20.996094,-9.521484
14390,-0.024292,-0.122314,0.979980,0.000000,21.667480,-7.324219
14399,-0.066284,-0.131958,1.020874,3.234863,24.047852,-3.173828
14411,-0.012939,-0.562744,1.019531,2.807617,25.146484,-1.708984
14420,0.027466,-0.604370,1.005249,0.915527,25.207520,-1.220703
14430,0.062988,-0.415894,0.995361,-1.037598,24.291992,-1.281738
14439,0.106567,-0.193604,0.922974,-2.075195,23.132324,-1.403809
14449,0.096069,-0.252686,0.703735,-1.586914,21.789551,-0.671387
14459,0.154419,-0.185303,0.730591,-0.610352,21.301270,0.915527
14472,0.052979,-0.313843,0.922974,2.197266,21.118164,5.126953
14481,0.077759,-0.298340,1.033447,2.685547,21.789551,7.263184
14491,0.078125,-0.428833,1.101074,3.234863,22.583008,9.338379
14500,0.117432,-0.440674,0.987915,2.746582,22.399902,10.131836
14509,0.142578,-0.290405,0.917969,1.647949,21.240234,10.375977
14520,0.212158,-0.266724,1.011353,0.671387,19.897461,10.498047
14529,0.233032,-0.215454,1.016235,0.427246,18.249512,10.620117
14541,0.214844,-0.067383,0.960327,0.732422,15.075684,11.047363
14551,0.207153,-0.062256,0.990845,1.037598,14.770508,12.756348
14560,0.157227,-0.030640,0.948975,0.793457,14.648438,15.319824
14569,0.187622,-0.097656,0.895630,1.037598,14.404297,17.333984
14579,0.162842,-0.135376,1.001465,1.281738,13.732910,18.798828
14589,0.152954,-0.147461,1.058594,1.037598,12.695313,20.019531
14599,0.100098,-0.104004,1.029907,0.366211,11.352539,20.385742
14609,0.192139,-0.037476,1.081665,-0.244141,8.728027,20.202637
14619,0.173340,-0.021973,1.111572,-1.098633,7.141113,19.958496
14628,0.325195,-0.025269,0.964966,-0.793457,5.615234,19.592285
14639,0.339111,-0.105957,0.914917,-0.427246,3.234863,19.470215
14649,0.351196,-0.093628,0.960083,-0.366211,1.708984,19.470215
14659,0.312012,-0.058838,1.030762,-1.037598,0.610352,20.324707
14670,0.346436,0.034912,1.122925,-2.014160,0.061035,21.728516
14679,0.287476,0.121216,1.180786,-2.319336,-0.732422,24.902344
14690,0.321777,0.147949,1.156616,-2.258301,-2.746582,26.184082
14700,0.304932,0.127319,1.134521,-2.075195,-4.760742,27.160645
14709,0.236572,0.063721,1.027222,-1.770020,-6.530762,27.465820
14719,0.244019,0.068115,0.946411,-1.708984,-7.873535,27.648926
14729,0.157593,0.206787,0.951538,-2.014160,-8.911133,27.648926
14738,0.175781,0.205933,0.964844,-2.136230,-10.314941,26.794434
14751,0.065063,0.055664,0.979614,-3.234863,-12.145996,23.254395
14761,0.014526,0.199219,1.077637,-3.173828,-12.817383,20.690918
14770,0.035400,0.046631,1.136841,-2.807617,-13.549805,18.310547
14780,0.047607,0.022949,1.021484,-2.441406,-14.648438,15.686035
14789,0.053711,0.066040,0.981689,-2.380371,-16.357422,12.573242
14798,-0.010742,-0.106079,0.918945,-2.014160,-17.333984,9.887695
14809,0.004028,-0.118530,0.838623,-2.258301,-18.310547,7.507324
14818,-0.036621,-0.075562,0.935791,-2.441406,-18.066406,5.187988
14830,-0.059326,-0.212891,0.861938,-3.234863,-17.333984,1.098633
14840,0.017456,-0.060669,0.998413,-3.479004,-16.662598,-0.061035
14849,0.036499,-0.193970,0.900146,-3.234863,-16.845703,-1.281738
14859,-0.025269,-0.305786,0.775269,-2.014160,-17.150879,-2.441406
14869,-0.001099,-0.257690,0.883911,-1.708984,-17.089844,-3.540039
14879,0.043335,-0.361206,1.003784,-2.380371,-17.028809,-3.845215
14889,0.055420,-0.396484,0.945557,-3.112793,-17.333984,-3.479004
14900,0.147705,-0.176147,1.003662,-2.807617,-17.272949,-2.197266
14910,0.119263,-0.265869,0.947998,-2.075195,-16.967773,-0.427246
14920,0.069702,-0.489380,0.899170,-1.647949,-16.723633,1.281738
14929,0.044678,-0.472168,1.019287,-1.953125,-15.747070,3.112793
14939,0.031006,-0.336426,1.059448,-3.051758,-15.441895,4.882812
14949,-0.018921,-0.253418,0.938843,-3.540039,-15.197754,6.042480
14959,-0.049683,-0.297119,0.830200,-3.051758,-14.709473,7.019043
14968,0.008423,-0.354614,0.808228,-2.075195,-14.648438,6.774902
14978,-0.053711,-0.379883,1.105591,-1.525879,-15.136719,6.103516
14989,-0.095337,-0.385376,1.161865,-1.220703,-15.502930,5.615234
14999,-0.070435,-0.304321,1.089722,-1.403809,-15.625000,5.065918
15009,-0.197754,-0.281250,1.001587,-1.037598,-15.258789,4.272461
15019,-0.212402,-0.338867,0.907104,-0.183105,-14.282227,3.295898
15028,-0.222412,-0.311890,0.813354,0.793457,-12.695313,1.953125
15040,-0.299316,-0.362305,0.811157,1.220703,-10.925293,-3.173828
15050,-0.269287,-0.345093,0.947388,0.000000,-9.338379,-5.249023
15059,-0.331909,-0.258667,1.009155,-1.708984,-8.483887,-7.385254
15069,-0.287964,-0.137573,1.109497,-2.746582,-7.629395,-9.765625
15079,-0.231812,-0.046997,1.142578,-2.624512,-6.896973,-12.268066
15088,-0.175171,-0.055786,1.101440,-2.014160,-6.164551,-14.892578
15103,-0.140869,-0.015137,1.110229,-0.915527,-4.455566,-19.165039
15113,-0.127563,-0.017456,1.098267,-0.244141,-2.441406,-20.385742
15123,-0.163086,0.022583,1.103271,-0.305176,-3.112793,-21.423340
15132,-0.113159,0.049927,1.090820,-0.183105,-1.647949,-21.728516
15142,-0.128662,0.079102,1.069580,0.000000,-0.671387,-22.033691
15152,-0.199951,0.048706,1.009521,1.770020,2.136230,-22.583008
15161,-0.236450,-0.015259,0.998779,1.770020,3.784180,-22.705078
15171,-0.329956,-0.109131,0.852417,1.281738,5.371094,-23.132324
15180,-0.354004,-0.067261,0.824463,0.549316,7.263184,-23.376465
15190,-0.283936,-0.072632,0.846069,0.000000,9.887695,-22.705078
15200,-0.213867,-0.118530,0.835327,-0.488281,11.535645,-22.094727
15209,-0.253052,-0.173584,0.859985,-0.976562,13.122559,-20.874023
15219,-0.178833,-0.191040,0.891846,-2.014160,15.258789,-18.676758
15229,-0.195679,-0.099731,0.952393,-2.990723,17.089844,-16.113281
15238,-0.157715,0.021851,1.000732,-3.295898,18.920898,-13.183594
15250,-0.171387,-0.000977,0.900513,-2.258301,21.972656,-6.958008
15260,-0.184570,-0.001221,0.929810,-1.953125,23.376465,-4.028320
15269,-0.141846,0.004150,1.031616,-2.685547,24.536133,-0.427246
15279,-0.050293,0.045044,1.199463,-3.356934,25.390625,2.990723
15289,-0.009155,0.107300,1.257324,-3.479004,26.062012,6.286621
15298,0.042236,0.076172,1.199097,-2.868652,26.062012,9.765625
15310,0.080688,0.044922,1.149170,-1.098633,26.000977,16.845703
15319,0.088501,0.109497,1.115601,-0.122070,26.062012,20.202637
15329,0.199463,0.039673,1.020752,0.976562,26.184082,23.498535
15339,0.254028,-0.070190,0.964478,1.708984,25.329590,25.634766
15349,0.188599,-0.153809,0.957031,1.892090,23.742676,26.733398
15358,0.145386,-0.180420,0.998901,1.159668,21.911621,27.038574
15369,0.126587,-0.161621,1.018433,0.244141,20.141602,26.489258
15378,0.112671,-0.185303,0.979614,-0.244141,19.042969,25.939941
15390,0.120605,-0.169189,0.977051,-1.525879,15.747070,23.559570
15399,0.089600,-0.061279,1.002686,-1.953125,14.770508,23.193359
15409,0.081421,-0.045044,0.955322,-1.708984,14.221191,23.742676
15418,0.108154,-0.031982,0.909180,-1.464844,13.854980,24.597168
15429,0.119873,-0.042725,0.896606,-1.281738,13.366699,25.146484
15438,0.140015,-0.050049,0.920044,-0.915527,12.268066,25.634766
15451,0.072998,-0.072632,1.103516,-0.183105,9.460449,24.475098
15460,0.058105,-0.068604,1.178101,0.793457,8.422852,23.925781
15470,-0.008057,-0.060669,1.195923,1.647949,7.385254,23.437500
15479,-0.037476,-0.031616,1.203003,2.441406,6.896973,23.315430
15488,-0.063232,-0.022705,1.123779,3.479004,7.080078,23.681641
15499,-0.040649,-0.049561,1.053955,4.272461,7.080078,25.085449
15508,-0.009888,-0.123779,0.909058,4.394531,7.263184,26.428223
15521,0.060791,-0.197998,0.813354,3.051758,5.310059,27.343750
15530,0.101685,-0.236816,0.807861,2.258301,4.150391,27.282715
15540,0.086426,-0.262573,0.855835,1.342773,3.051758,26.794434
15549,0.073242,-0.253418,0.960327,0.122070,2.075195,26.245117
15559,0.015259,-0.215454,0.996582,-1.037598,1.464844,25.817871
15569,-0.025269,-0.136597,1.016479,-1.831055,0.793457,25.634766
15579,-0.053101,-0.141724,1.017212,-1.953125,0.610352,25.939941
15588,-0.052856,-0.143921,1.013184,-2.319336,0.732422,26.733398
15600,-0.067749,-0.070557,1.152222,-2.868652,-0.061035,26.672363
15609,-0.059448,0.064209,1.125122,-2.868652,-0.671387,26.550293
15619,-0.003906,0.065796,1.060181,-2.014160,-0.915527,26.306152
15628,0.011353,0.020020,1.082153,-0.671387,-1.403809,26.306152
15639,-0.002808,-0.042603,1.125122,-0.183105,-2.258301,25.451660
15648,-0.007813,-0.038330,1.128296,0.122070,-2.685547,24.719238
15660,-0.002686,-0.069214,1.083374,0.427246,-3.295898,23.254395
15669,0.028931,-0.149902,0.931763,0.854492,-3.845215,22.460937
15679,0.059570,-0.083984,0.963623,0.427246,-4.333496,20.996094
15688,0.078125,-0.099487,0.975586,-0.122070,-5.310059,18.676758
15699,0.097900,-0.069092,0.951050,-0.549316,-6.286621,15.686035
15708,0.099976,-0.108398,0.972046,-0.976562,-7.385254,12.207031
15719,0.097290,-0.197998,0.907104,-1.037598,-8.666992,8.605957
15729,0.099243,-0.184326,0.940674,-1.953125,-9.887695,1.525879
15740,0.115234,-0.043823,0.983521,-4.150391,-11.413574,-1.342773
15750,0.113403,-0.005981,1.029541,-4.821777,-11.596680,-3.356934
15759,0.094727,0.008789,0.992065,-5.065918,-11.413574,-4.516602
15769,0.080933,0.101318,1.009399,-5.126953,-11.047363,-4.760742
15778,0.107300,0.160767,1.011719,-4.821777,-10.620117,-4.516602
15789,0.123901,0.228271,1.055298,-4.211426,-9.948730,-3.845215
15798,0.096680,0.237671,1.007568,-3.356934,-9.582520,-2.746582
15808,0.059448,0.187134,1.073730,-1.525879,-9.033203,-2.258301
15819,0.092041,-0.018433,1.118042,-0.793457,-9.216309,-1.831055
15828,0.090088,-0.059326,1.103271,-1.037598,-9.155273,-1.770020
15838,0.077026,0.010986,0.978271,-1.037598,-9.277344,-1.892090
15849,0.124756,0.088135,0.982178,-0.793457,-9.277344,-2.075195
15858,0.084229,0.123657,0.975464,0.122070,-8.972168,-1.770020
15870,0.070679,0.029175,0.997192,1.586914,-8.117676,-0.488281
15879,0.035278,-0.143311,0.987183,0.976562,-7.690430,0.610352
15889,0.025391,-0.092407,0.942139,0.061035,-6.835937,1.464844
15898,0.016724,-0.025513,0.946655,-0.976562,-6.774902,2.014160
15909,-0.041138,-0.018799,0.907959,-1.342773,-6.835937,2.624512
15918,-0.001343,-0.075195,0.923096,-1.037598,-7.019043,2.563477
15928,-0.063965,-0.104248,0.995850,-1.037598,-7.385254,2.319336
15940,-0.113159,-0.086060,1.026978,-2.136230,-6.958008,0.915527
15949,-0.109863,-0.063354,1.021362,-1.953125,-6.225586,1.037598
15959,-0.043457,-0.089233,0.978638,-0.976562,-5.737305,1.098633
15968,-0.027100,-0.104736,1.017212,0.000000,-5.310059,0.915527
15978,-0.010498,-0.100098,1.040039,0.549316,-5.004883,1.220703
15989,0.039795,-0.089233,1.031616,0.305176,-4.699707,0.427246
15998,0.021240,-0.041504,0.954834,0.000000,-4.699707,-0.671387
16008,0.064819,-0.062012,0.900635,0.305176,-4.577637,-1.770020
16018,0.051636,-0.130005,0.946533,1.281738,-4.821777,-3.784180
16029,0.072388,-0.225830,1.026245,0.793457,-4.699707,-4.638672
16038,-0.014771,-0.211304,0.948120,0.305176,-4.516602,-5.310059
16048,-0.013184,-0.108154,0.873047,-0.183105,-4.089355,-5.615234
16059,0.035889,-0.059326,0.892212,-0.854492,-3.540039,-5.249023
16069,0.067871,-0.063354,0.964355,-0.610352,-3.356934,-4.882812
16078,0.039551,-0.023071,1.047241,-0.305176,-3.540039,-4.821777
16090,0.050781,-0.134521,1.009155,0.244141,-2.929688,-3.356934
16099,0.067383,-0.114990,0.988159,0.122070,-2.502441,-2.380371
16109,0.009644,-0.165527,1.000122,0.061035,-1.831055,-0.915527
16118,0.053711,-0.229126,1.001099,-0.305176,-1.708984,0.305176
16128,0.022705,-0.221558,1.054932,-0.793457,-1.159668,1.708984
16139,0.045654,-0.265991,1.113525,-1.586914,-0.915527,2.807617
16148,0.018311,-0.146606,1.140747,-2.014160,-0.976562,2.990723
16158,-0.042358,-0.054932,1.186401,-0.549316,-1.586914,3.112793
16169,0.006348,-0.091309,1.121094,0.610352,-1.770020,2.929688
16178,0.063721,-0.153076,1.071655,1.281738,-1.892090,2.380371
16189,0.012573,-0.115601,1.071045,1.342773,-2.075195,1.831055
16198,0.045654,-0.104248,1.031616,1.342773,-2.197266,1.464844
16209,0.026123,-0.061646,0.975098,1.281738,-2.075195,1.098633
16218,0.046387,-0.081543,0.905396,1.037598,-1.831055,0.427246
16230,0.068359,-0.104492,0.873291,0.793457,-1.647949,-0.305176
16239,0.023071,0.027100,0.930664,-0.549316,-2.136230,-0.610352
16249,0.038696,0.028442,0.898682,-0.732422,-2.319336,-0.732422
16258,0.012817,-0.101318,0.806152,-0.976562,-2.075195,0.000000
16269,-0.023560,-0.011597,0.797485,-1.586914,-1.953125,0.854492
16279,-0.012939,0.103638,0.846436,-2.014160,-1.281738,2.075195
16288,-0.036865,0.137939,0.897461,-2.502441,-0.366211,3.112793
16300,-0.087158,0.118164,0.979492,-2.563477,1.037598,5.126953
16309,-0.120972,0.072754,1.018799,-1.647949,1.708984,6.286621
16319,-0.144897,0.067627,1.035400,-0.915527,2.197266,7.385254
16328,-0.097656,0.053711,1.026245,-0.915527,2.441406,8.728027
16339,-0.105347,-0.012939,0.980713,-1.647949,2.563477,10.131836
16349,-0.097778,0.004395,0.913818,-2.563477,2.441406,11.352539
16358,-0.043091,0.054199,0.859741,-2.319336,2.319336,13.000488
16368,-0.121582,0.170654,0.865356,-1.220703,3.051758,16.906738
16379,-0.067139,0.015137,0.987915,-1.159668,3.845215,18.920898
16388,-0.098633,-0.112915,0.985718,-1.220703,4.272461,20.507812
16398,-0.140625,-0.110840,1.018677,-1.586914,4.638672,22.033691
16409,-0.219849,-0.166138,0.900391,-1.586914,4.699707,23.254395
16418,-0.404297,-0.348389,0.707886,-1.831055,5.126953,23.803711
16428,-0.376465,-0.402710,0.525879,-2.258301,6.103516,24.841309
16440,-0.485229,-0.706665,0.166504,-2.868652,7.568359,24.047852
16449,-0.398315,-1.019165,0.080688,-3.967285,9.399414,23.315430
16458,-0.367432,-3.530762,-2.943848,-2.319336,10.314941,22.460937
16468,0.050171,-2.488037,-0.473145,-13.244629,10.925293,18.676758
16479,-0.094849,-3.241943,-1.815796,-35.705566,5.554199,12.268066
16488,0.348999,-1.315308,-1.388184,-63.049316,1.831055,6.164551
16498,0.377197,1.032349,1.261230,-75.805664,3.540039,7.385254
16510,0.149658,0.913696,3.999512,-46.508789,5.310059,20.019531
16519,0.191895,0.674561,3.999512,-19.287109,5.615234,24.414062
16528,0.230103,-0.806030,3.855835,3.173828,5.798340,25.451660
16539,0.514038,-1.841431,1.521729,19.165039,1.831055,22.766113
16548,0.530762,-1.619507,0.127075,16.113281,-7.080078,16.052246
16559,0.376831,-1.352539,-0.294067,6.713867,-15.136719,12.145996
16569,0.332275,-0.863892,0.894287,0.549316,-14.770508,23.803711
16580,0.310913,-0.378540,2.252686,-0.732422,-7.141113,28.015137
16590,0.257080,0.048584,1.913330,0.610352,-5.920410,29.907227
16599,0.815918,2.099731,3.941528,3.479004,-8.422852,27.404785
16608,1.030762,2.424194,3.843506,15.686035,-18.310547,22.033691
16618,0.274170,3.614990,3.999512,36.743164,-32.165527,12.145996
16628,-2.222046,3.999512,3.999512,61.279297,-33.020020,-3.112793
16638,-2.740234,3.999512,3.999512,80.993652,-14.038086,-8.911133
16650,0.425903,2.433105,1.845581,88.012695,22.949219,3.540039
16659,0.825928,1.823120,0.682251,109.008789,22.033691,6.225586
16668,1.482788,1.813110,0.807983,116.516113,12.573242,0.366211
16679,0.941650,0.952881,0.247925,115.844727,-1.342773,-7.629395
16688,0.532837,0.032593,-0.650879,108.398437,-14.160156,-15.808105
16699,0.531128,-0.109741,-0.760986,96.801758,-21.850586,-27.526855
16708,0.062988,-0.027588,-0.478149,86.059570,-26.855469,-35.949707
16718,-0.247681,0.248291,-0.058105,70.373535,-26.000977,-39.306641
16729,-0.602539,0.387207,0.133545,63.842773,-24.230957,-39.855957
16738,-0.713135,0.620850,0.151611,58.959961,-20.874023,-42.358398
16748,-0.778564,0.612305,0.160034,58.288574,-16.784668,-41.320801
16759,-0.390503,0.317749,0.203125,59.936523,-11.108398,-34.729004
16769,-0.244019,-0.219727,0.140747,60.668945,-5.493164,-23.315430
16778,-0.058472,-0.512939,0.094849,58.288574,-1.464844,-12.939453
16788,-0.193726,-0.594116,-0.060791,47.241211,3.784180,3.173828
16799,-0.334595,-0.681396,-0.474976,42.724609,8.117676,11.596680
16809,-0.231567,-0.877441,-0.460327,39.123535,10.986328,17.944336
16818,-0.061523,-1.117188,-0.371826,35.034180,12.207031,20.202637
16828,0.018066,-1.123047,-0.339233,29.113770,12.695313,20.263672
16838,0.079102,-1.082153,-0.343506,22.216797,12.878418,19.042969
16850,0.074219,-1.036987,-0.374756,10.131836,11.474609,12.268066
16859,0.038818,-0.962891,-0.325317,5.737305,10.070801,7.019043
16869,0.069092,-0.982544,-0.245483,1.647949,9.216309,2.380371
16878,0.133667,-0.989380,-0.217773,-2.868652,8.056641,-1.159668
16889,0.206543,-1.031006,-0.276489,-7.995605,6.896973,-4.455566
16898,0.279175,-1.047852,-0.321533,-13.671875,5.249023,-6.347656
16908,0.299805,-1.027466,-0.314941,-18.920898,3.479004,-6.835937
16918,0.313354,-1.113525,-0.309326,-23.803711,1.342773,-6.530762
16929,0.249756,-1.171143,-0.316895,-29.907227,-0.488281,-6.591797
16939,0.221558,-1.026001,-0.343018,-44.372559,-4.150391,-7.080078
16949,0.216309,-0.939941,-0.399292,-51.330566,-6.347656,-7.263184
16959,0.143799,-0.855713,-0.408569,-57.556152,-7.995605,-7.263184
16968,0.143799,-0.844482,-0.410400,-63.476562,-9.582520,-7.202148
16978,0.106934,-0.744385,-0.460937,-69.885254,-11.108398,-6.958008
16988,0.035522,-0.609253,-0.493408,-76.354980,-12.573242,-6.652832
17000,-0.007080,-0.430786,-0.716919,-88.134766,-14.465332,-5.371094
17010,-0.010620,-0.437012,-0.817017,-93.566895,-15.197754,-4.821777
17020,-0.004028,-0.503906,-0.901611,-99.609375,-15.258789,-4.028320
17030,0.004883,-0.585449,-1.008667,-107.177734,-15.136719,-3.601074
17039,0.041992,-0.660156,-1.067505,-115.661621,-15.319824,-4.272461
17049,0.077515,-0.556030,-1.137451,-124.206543,-16.418457,-5.432129
17059,0.105347,-0.425659,-1.140991,-141.174316,-19.165039,-10.192871
17069,0.067017,-0.276367,3.999512,-141.601562,-18.920898,-15.380859
17079,0.286011,2.625854,3.999512,-88.378906,-18.493652,-10.192871
17089,0.053833,-3.999512,0.144897,-24.353027,-20.385742,4.333496
17098,0.327148,-2.467773,0.675049,-62.927246,-3.356934,-14.831543
17109,0.088623,3.999512,3.891724,-114.685059,1.770020,-35.156250
17118,0.467285,3.999512,3.531128,-62.011719,-8.544922,-30.517578
17130,-0.036255,-3.979858,-1.754883,4.821777,-14.099121,-46.325684
17139,0.460937,0.112305,3.999512,-11.840820,-14.099121,-45.349121
17149,0.685059,-2.070313,0.219971,-10.803223,-20.324707,-48.339844
17159,0.274414,1.661011,1.647461,-7.873535,-22.033691,-52.673340
17168,-0.093628,0.643799,1.161499,13.549805,-22.277832,-45.227051
17178,-0.272339,-1.845337,0.161255,30.395508,-15.625000,-41.442871
17188,-0.251465,-1.876465,0.423462,18.188477,-3.234863,-37.231445
17198,-0.041748,-0.450806,1.033936,-7.446289,3.784180,-30.517578
17208,0.278198,0.872681,1.367188,-9.155273,-0.793457,-26.489258
17219,-0.185181,0.287231,2.139282,7.446289,-3.173828,-28.442383
17228,-0.017944,-0.185547,2.463501,15.625000,-1.220703,-28.198242
17238,0.262329,0.164551,2.000488,14.953613,1.953125,-26.672363
17249,0.125366,0.606445,1.248657,15.380859,2.075195,-24.597168
17258,0.084473,0.646240,0.829468,21.972656,1.464844,-22.094727
17269,0.066528,0.155518,0.780396,33.569336,6.774902,-9.704590
17279,0.439331,-0.075317,0.986816,28.930664,8.789063,-4.333496
17289,0.482910,0.326538,0.777466,22.644043,7.873535,0.122070
17298,0.284302,0.421387,0.458008,19.958496,6.408691,4.821777
17308,0.078247,0.227417,0.268188,20.690918,5.310059,9.704590
17318,-0.043579,0.001709,0.380615,20.996094,4.333496,13.122559
17328,-0.094849,-0.035156,0.726440,18.249512,3.601074,13.854980
17338,-0.143066,0.032593,0.989502,14.038086,2.685547,12.329102
17349,-0.285034,0.170654,0.699951,10.742188,2.014160,7.751465
17359,-0.326782,0.141968,0.512085,9.094238,0.793457,6.103516
17369,-0.305542,0.010864,0.456421,9.033203,0.793457,4.028320
17378,-0.334717,-0.094360,0.544556,8.361816,1.159668,2.136230
17389,-0.361206,-0.110229,0.647583,7.263184,2.258301,0.427246
17398,-0.367065,-0.122559,0.679932,5.920410,4.150391,-0.366211
17408,-0.380737,-0.140991,0.644897,4.638672,6.164551,-0.488281
17418,-0.408203,-0.177979,0.605835,1.403809,8.789063,-2.807617
17429,-0.439697,-0.058350,0.853394,0.122070,9.948730,-5.126953
17439,-0.392212,0.058105,1.007935,-0.305176,10.864258,-7.751465
17449,-0.380127,0.046875,1.090576,0.427246,11.291504,-10.742188
17458,-0.263428,-0.078247,1.129761,1.342773,11.657715,-13.916016
17468,-0.206909,-0.196045,1.067993,2.258301,12.268066,-16.357422
17479,-0.158936,-0.143921,0.948364,1.464844,13.000488,-17.456055
17489,-0.037109,0.118896,0.935303,1.037598,15.197754,-15.747070
17499,0.002075,0.161743,1.016357,1.586914,16.845703,-13.244629
17508,-0.006470,0.102905,1.115845,2.929688,18.188477,-10.498047
17518,-0.030884,-0.190308,1.119263,4.150391,20.019531,-7.751465
17528,-0.050293,-0.309570,1.014404,4.333496,21.484375,-5.065918
17538,-0.009155,-0.187378,1.009277,3.295898,23.132324,-2.258301
17548,-0.051270,-0.040771,0.963379,2.197266,23.925781,-0.366211
17559,-0.065308,-0.029907,0.976929,1.647949,23.986816,1.098633
17569,-0.010620,-0.121338,0.952881,1.586914,23.681641,1.525879
17579,0.010254,-0.130737,0.952271,1.159668,23.193359,2.258301
17588,0.116821,0.020386,1.052124,0.061035,22.338867,3.173828
17598,0.141968,0.162109,1.139648,-0.305176,22.094727,4.272461
17608,0.158081,0.095337,1.101807,0.366211,22.033691,6.469727
17618,0.141968,-0.012085,1.042236,1.098633,22.460937,8.911133
17629,0.126221,-0.167969,1.045654,1.403809,22.888184,12.023926
17638,0.029907,-0.005981,1.033569,0.244141,22.216797,18.127441
17648,-0.008911,0.102661,1.037231,-0.061035,22.216797,21.057129
17658,-0.061523,0.042847,0.949097,0.305176,22.521973,24.536133
17668,-0.012939,-0.048828,0.804199,0.854492,23.010254,28.808594
17678,-0.015869,-0.043213,0.788208,0.427246,22.827148,33.447266
17688,0.012207,-0.205078,0.672363,-0.915527,21.850586,37.780762
17700,0.040039,0.080444,0.939697,-3.173828,20.996094,47.302246
17710,-0.020142,-0.188354,0.893555,-3.479004,20.141602,51.025391
17719,0.023560,-0.026367,1.044678,-3.784180,18.920898,52.978516
17729,0.032593,0.109497,1.177856,-3.173828,17.822266,54.077148
17738,0.030029,-0.044678,1.148193,-2.075195,16.418457,53.588867
17748,0.049316,-0.286377,1.017456,-1.464844,14.648438,52.124023
17758,0.014404,-0.267578,0.911987,-1.647949,12.451172,50.048828
17770,-0.041382,-0.165161,0.901367,-2.441406,9.643555,46.447754
17779,0.000854,0.045288,1.033936,-3.479004,8.422852,44.311523
17788,-0.022461,0.080444,1.075806,-2.685547,7.568359,41.992187
17798,-0.011597,-0.234741,1.017456,-1.281738,6.591797,39.550781
17808,-0.047119,-0.287354,1.019653,-1.159668,4.882812,36.010742
17818,-0.023560,-0.094971,1.198608,-2.014160,3.845215,32.897949
17828,-0.012207,-0.147339,1.219116,-2.502441,2.502441,30.151367
17839,-0.018311,-0.009033,1.019775,-2.075195,1.708984,26.184082
17849,-0.043213,-0.123535,0.999878,-0.732422,0.793457,24.963379
17858,-0.042358,-0.330078,1.006958,-0.732422,0.793457,23.925781
17868,-0.057251,-0.231201,1.071411,-1.708984,0.488281,23.132324
17878,-0.082520,-0.016846,1.128906,-2.075195,0.549316,22.888184
17888,-0.075195,0.027466,1.098389,-2.014160,0.671387,23.254395
17900,-0.036255,-0.104980,1.047363,-1.098633,0.488281,22.949219
17909,-0.055664,-0.113403,0.907715,-1.342773,0.366211,22.583008
17919,-0.007568,0.003052,1.028320,-1.708984,0.427246,22.460937
17929,0.014771,-0.091553,1.080688,-1.586914,0.061035,22.094727
17938,0.003540,-0.183228,0.974243,-1.953125,-0.244141,21.301270
17948,0.006714,-0.112793,0.934570,-2.197266,-0.488281,20.874023
17958,0.039551,-0.020752,0.959595,-2.502441,-0.732422,20.568848
17968,-0.013428,0.015137,0.929443,-2.563477,-1.098633,19.226074
17979,0.036133,0.182983,1.053833,-2.441406,-1.403809,17.822266
17989,0.066040,0.036987,1.012695,0.671387,-1.953125,17.517090
17998,0.046021,-0.114258,0.927368,2.258301,-2.014160,17.089844
18007,0.028931,-0.265747,0.874390,2.441406,-2.380371,16.235352
18018,0.014648,-0.313843,0.909790,1.464844,-2.746582,15.319824
18028,0.024780,-0.153809,0.986572,0.122070,-2.746582,14.892578
18037,0.101074,0.010864,1.037476,-0.427246,-2.685547,15.502930
18050,0.049561,-0.050415,0.942383,0.183105,-3.051758,16.662598
18059,0.021484,-0.095459,0.956665,0.854492,-3.540039,16.845703
18069,0.098022,-0.116089,0.981201,1.464844,-3.601074,16.845703
18078,0.023071,-0.160522,0.931152,1.464844,-3.845215,16.601562
18087,0.112915,-0.243408,0.948242,1.098633,-4.455566,15.991211
18098,0.104980,-0.193848,1.033325,0.061035,-4.943848,15.930176
18109,0.139038,-0.028442,1.057495,-0.366211,-6.530762,14.526367
18119,0.100952,0.029785,1.078491,0.061035,-7.141113,14.038086
18129,0.109985,-0.178711,0.988892,0.427246,-7.263184,13.549805
18139,0.097290,-0.146606,0.993530,-0.122070,-7.690430,13.061523
18148,0.081909,-0.006470,1.053589,-0.549316,-8.239746,12.390137
18158,0.046143,-0.052124,1.076172,-0.671387,-8.544922,11.474609
18167,0.071289,-0.183716,1.010010,-0.671387,-8.666992,11.169434
18179,0.064819,-0.198486,0.981934,-0.671387,-8.605957,10.620117
18189,0.111084,-0.099243,1.148682,-0.976562,-8.850098,10.803223
18199,0.103271,-0.191162,1.085205,-1.403809,-9.521484,10.681152
18208,0.053955,-0.076538,0.992310,-0.915527,-10.437012,10.070801
18218,0.004639,0.080933,0.987549,-0.183105,-10.681152,9.948730
18227,0.051147,-0.085815,0.946533,0.427246,-10.620117,9.643555
18238,0.042480,-0.238770,0.875610,0.610352,-10.620117,8.911133
18247,0.045654,-0.137939,0.942017,0.366211,-10.681152,8.117676
18260,0.062988,-0.215698,0.875000,-0.854492,-11.169434,4.943848
18270,0.055664,-0.172119,0.850220,-1.281738,-11.413574,3.417969
18279,0.087524,-0.097900,0.893677,-2.014160,-11.779785,1.342773
18289,0.028931,0.057373,0.990356,-2.624512,-11.962891,-0.366211
18299,0.069336,0.054443,1.018799,-2.563477,-12.207031,-1.525879
18309,0.060791,0.050781,0.997437,-2.014160,-12.573242,-2.441406
18318,0.010254,0.062866,0.995483,-1.098633,-12.329102,-2.929688
18328,0.025513,0.040283,1.007813,-0.732422,-11.291504,-2.746582
18338,0.028198,0.011108,0.960449,-0.366211,-11.169434,-3.295898
18348,0.026611,0.004761,0.982178,0.122070,-11.108398,-3.967285
18358,0.002563,-0.096924,0.889526,0.366211,-11.291504,-5.310059
18368,0.005615,-0.219482,0.885742,-0.183105,-11.413574,-7.202148
18378,0.029297,-0.145508,0.962280,-1.098633,-11.291504,-8.789063
18389,0.042480,-0.099976,0.973511,-2.136230,-11.230469,-11.779785
18399,0.084595,0.003540,0.994263,-2.014160,-10.742188,-12.329102
18409,0.087769,-0.199585,0.925049,-1.708984,-10.375977,-12.268066
18418,0.053833,-0.155273,0.955200,-2.014160,-9.643555,-12.145996
18428,0.054321,0.001831,1.066284,-2.258301,-9.094238,-11.962891
18437,0.060547,-0.140625,1.039673,-2.624512,-8.789063,-11.840820
18448,0.012573,-0.168335,0.977173,-2.380371,-8.728027,-11.718750
18458,0.015991,-0.035522,1.060669,-1.953125,-8.300781,-11.718750
18469,0.011841,-0.404663,0.890137,-1.953125,-7.751465,-10.131836
18479,0.100952,-0.142944,1.024048,-3.540039,-6.652832,-9.521484
18489,0.099365,-0.187500,0.992798,-4.699707,-6.591797,-9.094238
18498,0.115112,-0.265625,0.873901,-5.126953,-6.347656,-8.544922
18508,0.127075,0.097656,1.007446,-5.310059,-6.164551,-8.239746
18518,0.094849,-0.050415,1.002808,-4.333496,-6.286621,-8.483887
18527,0.035522,-0.313721,0.917725,-3.540039,-6.408691,-8.972168
18540,0.067139,-0.003052,1.093262,-2.990723,-5.920410,-9.460449
18550,0.040039,-0.243774,0.995972,-2.563477,-5.737305,-9.582520
18559,0.044434,-0.197998,0.965576,-2.380371,-5.310059,-9.277344
18569,0.057983,-0.028320,1.022461,-2.258301,-4.760742,-8.422852
18579,0.061035,-0.015381,1.043579,-2.502441,-4.455566,-7.873535
18588,0.050049,-0.113647,1.008301,-2.014160,-3.967285,-7.263184
18598,0.032959,-0.016846,0.991455,-1.281738,-3.906250,-6.469727
18607,0.020020,0.049316,1.031860,0.793457,-3.173828,-3.784180
18617,-0.011963,-0.166016,0.961060,0.427246,-2.624512,-2.929688
18628,-0.038940,-0.178955,0.942505,-0.976562,-2.197266,-2.075195
18638,-0.035522,-0.029907,0.989624,-2.441406,-1.708984,-1.586914
18647,-0.051392,0.146851,1.013062,-2.868652,-1.403809,-1.220703
18658,-0.019897,0.108521,0.989258,-2.014160,-1.342773,-0.854492
18668,-0.063477,0.055542,1.038452,-0.854492,-1.342773,-0.427246
18677,-0.043335,0.071533,1.074951,0.061035,-1.525879,0.427246
18689,-0.066772,-0.132446,0.937500,0.976562,-0.732422,0.854492
18698,-0.064819,-0.014893,0.926147,1.098633,-0.427246,1.159668
18708,-0.069458,-0.014038,0.954468,0.732422,0.122070,1.220703
18717,-0.077759,-0.150635,0.903320,0.305176,0.915527,1.708984
18728,-0.059082,-0.039795,1.010498,-0.122070,1.037598,1.647949
18737,-0.016357,-0.011475,1.053345,-0.427246,0.915527,1.403809
18750,0.020630,-0.054565,1.008301,-0.793457,0.793457,0.305176
18759,0.050659,0.091064,1.108643,-0.610352,0.488281,0.061035
18768,0.045410,-0.062744,1.090942,-0.549316,0.488281,-0.122070
18778,0.040649,-0.172485,1.058105,-0.488281,0.976562,-0.427246
18788,-0.004028,0.009521,1.013916,0.000000,0.793457,-0.427246
18798,0.023804,-0.002441,1.048462,0.305176,0.610352,-0.183105
18808,0.056885,-0.276611,0.911377,0.610352,0.915527,0.000000
18820,0.097656,0.003296,1.039673,0.000000,0.183105,-0.122070
18829,0.059814,-0.278442,0.875977,-0.061035,-0.122070,-0.183105
18839,0.073120,-0.199097,0.924438,-0.427246,0.061035,-0.366211
18848,0.086670,-0.036621,1.061890,-0.793457,-0.183105,-0.793457
18858,0.081787,-0.265503,1.036865,-0.915527,0.061035,-0.976562
18867,0.027954,-0.294434,0.993042,-1.098633,-0.427246,-1.342773
18878,0.024902,-0.075562,1.064209,-1.403809,-0.549316,-1.892090
18888,0.000610,-0.176636,0.995728,-1.220703,0.122070,-1.342773
18897,0.015259,-0.268921,0.893433,-1.586914,-0.061035,-1.403809
18908,0.048218,-0.117065,0.990479,-2.258301,-0.244141,-0.976562
18917,0.016113,-0.119995,0.988403,-2.746582,-0.427246,-0.732422
18928,0.004028,-0.062378,1.015015,-2.258301,-0.366211,-0.427246
18937,-0.021118,-0.111938,1.046387,-1.586914,0.061035,-0.061035
