timestamp,accX,accY,accZ,gyrX,gyrY,gyrZ
10,-0.043701,-0.078613,0.935791,-0.305176,2.746582,-8.422852
20,-0.083252,-0.015625,0.982666,-0.732422,4.089355,-6.713867
30,-0.087769,-0.017212,0.910645,-1.464844,4.699707,-5.676270
40,-0.086182,-0.007080,0.994751,-1.770020,5.187988,-5.004883
50,-0.105469,-0.078003,0.964355,-1.770020,5.310059,-4.638672
61,-0.096680,0.022705,1.026245,-1.953125,5.371094,-4.821777
70,-0.127808,0.077026,0.987793,-1.892090,6.042480,-4.577637
81,-0.118896,-0.033081,0.965088,-1.892090,6.408691,-4.760742
91,-0.111084,0.042969,1.040894,-1.586914,7.568359,-5.065918
101,-0.108887,-0.086426,0.952026,-1.831055,7.629395,-5.432129
111,-0.111206,-0.022827,1.026367,-2.014160,7.568359,-5.737305
120,-0.069946,-0.009155,0.976807,-2.197266,8.056641,-5.859375
130,-0.083252,-0.030518,0.964722,-2.380371,8.544922,-5.737305
141,-0.125610,0.005737,1.049561,-2.258301,8.972168,-5.615234
150,-0.113037,-0.029419,1.033936,-2.197266,9.704590,-5.432129
160,-0.088867,-0.014160,1.065063,-2.075195,10.498047,-5.126953
172,0.237549,-0.048950,1.044434,-1.403809,11.596680,-5.249023
181,0.677124,-0.687866,0.979736,-1.525879,11.108398,-3.540039
191,0.201416,-0.792847,0.979370,-3.051758,6.652832,0.061035
200,-0.426270,-0.342041,1.522705,-2.929688,3.540039,2.136230
210,-0.467773,-0.161377,1.036743,-0.610352,6.896973,5.798340
220,-0.060669,-0.121338,0.485840,2.380371,12.756348,9.887695
233,0.056152,-0.494629,1.013184,-0.366211,13.854980,15.319824
242,-0.182739,-0.121094,1.313477,-4.150391,10.131836,14.465332
252,-0.311523,0.034058,1.304932,-4.638672,10.009766,13.366699
261,-0.135742,0.017822,1.094482,-1.464844,11.718750,11.718750
271,0.018188,-0.326660,1.016968,1.953125,11.352539,8.666992
280,0.172363,-0.353027,0.968384,2.075195,9.582520,6.042480
290,0.064087,-0.041016,1.192017,0.061035,8.178711,5.004883
300,0.083374,0.112549,1.115723,-1.281738,8.605957,5.126953
312,-0.026245,-0.031982,0.809937,0.305176,9.460449,4.150391
321,-0.039063,-0.032104,0.872803,1.281738,7.751465,1.403809
330,0.030640,-0.004150,0.875000,1.220703,6.530762,-0.549316
340,0.122070,0.015259,1.061279,0.427246,6.958008,-0.549316
350,0.164551,0.073730,1.038940,-0.488281,7.446289,0.793457
360,0.132568,-0.009521,0.932983,-0.488281,8.056641,2.136230
371,0.149170,0.008667,0.977539,1.281738,6.164551,0.915527
381,0.108154,-0.158081,1.056396,1.525879,5.493164,0.061035
391,0.019287,-0.132080,1.098022,1.586914,4.699707,-0.854492
401,-0.081177,-0.097778,1.061523,1.586914,4.821777,-1.525879
410,-0.088745,-0.077759,0.981934,2.136230,5.187988,-2.319336
420,-0.034058,-0.176636,0.897339,3.356934,5.737305,-3.356934
430,-0.014648,-0.194092,0.896851,3.906250,5.737305,-4.333496
440,-0.035645,-0.220093,0.864014,3.723145,5.615234,-4.577637
451,-0.072632,-0.085937,0.942871,2.258301,7.202148,-3.662109
461,-0.131348,-0.098511,1.043701,2.319336,8.056641,-2.685547
471,-0.220703,-0.152710,1.065552,2.807617,9.277344,-2.014160
481,-0.234253,-0.236450,1.055054,2.868652,10.314941,-1.708984
490,-0.189453,-0.281860,1.011353,2.319336,11.230469,-1.647949
501,-0.156250,-0.174805,0.931152,1.342773,11.718750,-1.770020
510,-0.151978,-0.006958,0.934326,0.732422,13.977051,0.305176
520,-0.106445,-0.030640,0.927490,2.319336,14.709473,1.892090
530,0.153198,-0.226318,0.996094,2.197266,14.526367,3.723145
540,0.182007,-0.218262,0.898804,1.342773,13.916016,7.446289
551,0.157471,0.062866,1.033447,0.061035,14.648438,12.573242
560,0.244507,0.079102,1.080566,-0.183105,15.136719,18.615723
570,0.199097,0.097168,0.989624,0.244141,15.380859,23.498535
580,0.060181,0.077881,0.945190,0.976562,14.770508,26.000977
591,0.089233,-0.049194,0.954834,1.281738,13.671875,25.329590
600,0.121338,0.020264,1.018677,0.000000,10.437012,22.949219
611,0.197266,0.150757,1.057617,-0.244141,8.911133,21.911621
620,0.249390,0.089111,1.027832,-0.061035,7.690430,21.362305
630,0.241699,0.033203,1.012817,-0.427246,6.652832,21.728516
640,0.200928,0.082275,1.005005,-1.403809,5.249023,23.376465
651,0.133789,0.101074,1.029175,-2.197266,4.821777,27.954102
661,0.058105,0.122925,1.046143,-2.319336,5.126953,30.761719
671,-0.031250,0.140869,1.021729,-2.563477,5.004883,32.470703
681,-0.019409,0.115845,1.039795,-2.685547,4.638672,33.508301
690,-0.024536,0.114136,1.103760,-2.807617,4.333496,34.301758
701,0.056519,0.193359,1.112793,-2.685547,3.723145,34.729004
710,0.117065,0.081787,1.073242,-2.014160,2.929688,35.217285
721,0.111694,-0.026001,1.009521,-0.915527,0.915527,36.560059
731,0.047852,-0.085205,0.938477,-1.464844,-0.122070,36.987305
740,0.048340,-0.121948,0.895020,-1.647949,-0.549316,37.353516
750,0.031494,-0.150391,0.925659,-1.647949,-1.403809,36.682129
760,0.035400,-0.206421,0.848389,-2.014160,-2.380371,35.461426
769,0.019653,-0.180908,0.918457,-2.807617,-3.295898,34.301758
780,0.093506,-0.123657,0.957886,-3.051758,-4.028320,31.982422
789,0.082275,-0.136108,0.995850,-3.173828,-5.126953,29.418945
801,0.122314,-0.121704,1.043335,-3.234863,-6.530762,24.719238
811,0.075684,-0.118164,1.076538,-3.295898,-7.629395,22.949219
820,0.023560,-0.115845,1.105103,-3.112793,-7.934570,21.484375
830,-0.015015,-0.103882,1.082520,-3.051758,-8.239746,19.714355
840,-0.100464,-0.099976,1.083984,-2.868652,-8.300781,17.883301
850,-0.048096,-0.119751,1.094360,-2.319336,-8.300781,16.479492
860,-0.019531,-0.149048,0.986938,-1.281738,-9.643555,13.916016
870,-0.035278,-0.148926,1.016602,-0.732422,-9.826660,12.329102
880,-0.040894,-0.229126,0.951416,-0.183105,-10.131836,10.620117
890,-0.059204,-0.261719,0.993164,-0.122070,-10.620117,8.483887
901,-0.039917,-0.234619,1.032104,0.061035,-10.498047,6.286621
910,-0.020142,-0.261475,0.956177,0.427246,-10.375977,4.089355
920,0.014404,-0.288574,0.952148,0.488281,-10.375977,1.831055
930,0.034790,-0.279419,0.933838,0.122070,-10.375977,-0.122070
940,0.059692,-0.268921,0.909668,-1.403809,-10.192871,-3.784180
950,0.114990,-0.276611,0.931519,-2.319336,-10.192871,-5.554199
961,0.154175,-0.217407,0.934326,-3.051758,-10.620117,-7.019043
970,0.181396,-0.162231,0.878540,-3.356934,-11.291504,-8.422852
980,0.193237,-0.221802,0.939575,-3.356934,-12.023926,-9.216309
990,0.211670,-0.226929,0.997925,-3.723145,-12.512207,-9.338379
1000,0.134277,-0.216675,0.975220,-3.601074,-12.817383,-10.070801
1012,0.088623,-0.207764,1.044922,-3.967285,-12.451172,-10.559082
1022,0.088135,-0.144043,1.035034,-4.089355,-12.390137,-11.047363
1032,0.080078,-0.109253,1.011597,-3.723145,-12.756348,-12.512207
1042,0.041870,-0.195557,0.943237,-2.746582,-13.000488,-13.732910
1051,0.072754,-0.250732,0.965088,-2.075195,-12.939453,-15.075684
1061,0.069214,-0.205322,0.989990,-2.197266,-12.817383,-16.906738
1070,0.069336,-0.241943,0.967163,-2.502441,-12.451172,-20.385742
1080,0.058716,-0.210693,0.987427,-2.441406,-12.023926,-21.850586
1090,0.063354,-0.153198,0.994263,-2.990723,-11.413574,-23.132324
1100,0.037476,-0.104126,1.041504,-3.417969,-11.047363,-24.536133
1110,0.021240,-0.048218,0.996338,-3.173828,-10.925293,-25.817871
1120,0.007935,0.025146,1.031006,-2.685547,-10.620117,-26.306152
1130,-0.025879,-0.027954,0.976685,-2.380371,-9.948730,-26.062012
1140,-0.003662,0.024414,1.056641,-1.586914,-9.277344,-24.108887
1150,-0.046753,-0.046997,0.974121,-0.122070,-7.446289,-22.460937
1160,-0.050049,-0.034302,1.030884,0.244141,-6.164551,-20.446777
1170,-0.019775,0.036865,1.088501,0.732422,-4.394531,-18.310547
1180,0.006348,0.068970,1.108276,1.220703,-3.784180,-16.601562
1190,-0.004150,-0.064209,1.067261,2.136230,-3.417969,-14.831543
1199,0.008545,-0.105225,0.978882,2.441406,-2.929688,-13.244629
1211,-0.001099,-0.156982,0.912354,0.854492,-1.831055,-10.009766
1221,0.064453,-0.144653,0.898682,-0.671387,-1.342773,-8.544922
1231,0.022827,-0.146973,0.830444,-1.953125,-1.159668,-7.568359
1241,0.061279,-0.044800,0.921875,-3.356934,-0.976562,-7.385254
1250,0.019287,0.032959,1.005859,-3.967285,-0.549316,-7.324219
1259,-0.015869,-0.049438,1.012695,-3.540039,-0.854492,-7.324219
1270,-0.026855,0.026978,1.091309,-2.807617,-0.976562,-7.629395
1280,-0.029419,-0.074219,1.044189,-2.075195,-0.854492,-7.995605
1290,0.000366,-0.057373,1.047485,-1.708984,-0.732422,-7.873535
1300,0.003906,-0.035034,0.926514,-1.159668,-0.244141,-7.263184
1310,-0.000366,-0.086060,0.905396,-1.220703,0.488281,-6.164551
1320,0.015991,-0.025757,0.897583,-0.915527,1.159668,-4.028320
1329,-0.009888,-0.022827,0.913940,-1.159668,1.892090,-2.075195
1340,-0.032471,-0.078735,0.903076,-1.281738,2.136230,-0.854492
1350,-0.067993,-0.033203,0.935303,-1.159668,2.502441,0.122070
1360,-0.086426,-0.038696,0.953003,-1.037598,2.929688,0.610352
1369,-0.116821,-0.067017,1.014160,-0.610352,2.685547,0.549316
1380,-0.124268,-0.050415,0.960693,-0.122070,2.746582,1.037598
1390,-0.060791,-0.062378,0.977661,-0.427246,2.746582,1.586914
1400,-0.036621,-0.111084,0.976929,-0.549316,3.417969,2.380371
1409,-0.040894,-0.034180,1.026489,-0.549316,3.784180,3.356934
1421,-0.014038,-0.059692,1.024658,0.305176,4.760742,5.859375
1431,-0.008789,-0.062744,1.015869,0.488281,4.760742,6.530762
1440,-0.036377,-0.208618,0.954102,0.732422,4.638672,6.591797
1450,-0.030640,-0.195679,1.037109,0.427246,4.089355,6.042480
1460,-0.042969,-0.103760,1.053833,-0.183105,3.601074,5.249023
1470,-0.029297,-0.176636,0.980713,-0.488281,3.784180,4.638672
1479,-0.030396,-0.112671,1.018555,-0.671387,3.784180,4.882812
1491,-0.026489,-0.142334,1.035889,-1.037598,4.272461,8.178711
1500,-0.039063,-0.146606,1.071289,-1.342773,5.004883,11.230469
1510,-0.056641,-0.194092,1.091675,-1.831055,5.920410,14.160156
1520,-0.041992,-0.127441,1.125122,-1.953125,6.774902,16.723633
1530,-0.049927,-0.111938,1.012695,-1.831055,6.958008,18.432617
1539,-0.044556,-0.189453,0.943115,-2.258301,6.591797,19.470215
1550,-0.053467,-0.248535,0.932617,-2.990723,5.798340,19.531250
1560,-0.017578,-0.309448,0.798828,-3.967285,4.882812,19.165039
1571,-0.009644,0.160278,1.149048,-6.042480,3.356934,18.859863
1581,-0.031860,0.080322,1.035889,-6.103516,3.051758,19.287109
1590,-0.020142,0.255005,1.217773,-5.310059,2.685547,19.836426
1599,0.034058,0.170532,1.199463,-3.356934,2.868652,20.935059
1610,-0.050903,-0.098755,1.008423,-0.427246,2.258301,21.606445
1620,0.008911,-0.176147,0.918457,0.244141,1.953125,21.850586
1631,0.011841,-0.052979,0.971436,-1.586914,1.770020,21.850586
1641,0.024902,-0.083740,0.791626,-1.586914,1.220703,20.324707
1651,-0.000854,-0.136353,0.670776,-1.464844,0.305176,18.615723
1660,0.021729,-0.156860,0.760742,-2.075195,-0.122070,16.296387
1670,0.031372,-0.055054,0.954346,-2.746582,-0.915527,13.671875
1680,-0.009033,0.035156,1.081055,-2.807617,-1.770020,10.864258
1689,-0.034790,0.073120,1.076538,-2.502441,-2.014160,8.483887
1701,-0.037476,-0.001709,1.026367,0.244141,-1.708984,6.835937
1711,0.080322,-0.197998,0.864014,0.610352,-2.624512,6.652832
1721,0.089722,-0.243286,0.808838,-0.488281,-4.089355,6.286621
1730,0.115723,-0.160645,0.897827,-1.831055,-5.065918,6.591797
1740,0.099487,-0.134644,0.865601,-2.624512,-5.310059,6.958008
1749,0.076172,-0.196411,0.800537,-2.807617,-4.821777,7.629395
1760,0.055664,-0.186035,0.841675,-2.502441,-4.333496,8.422852
1769,0.051147,-0.201172,0.827148,-2.075195,-4.943848,7.934570
1782,-0.153809,-0.252075,0.757202,-1.953125,-5.432129,4.272461
1791,-0.194824,-0.499390,0.682007,-1.953125,-4.943848,3.051758
1801,-0.082764,-0.650513,0.495972,-2.624512,-4.821777,2.319336
1811,-0.240967,-3.395996,-3.253784,-2.136230,-5.859375,3.356934
1820,0.119019,-2.441528,-0.863159,-12.695313,-4.333496,5.187988
1830,-0.143555,-3.085815,-2.013428,-34.118652,-5.859375,4.333496
1840,0.041016,-1.533691,-1.487061,-60.485840,-6.164551,0.122070
1849,0.051147,0.567627,1.029785,-74.340820,-5.004883,-0.122070
1861,-0.022583,-0.093140,3.999512,-41.259766,-6.774902,-0.854492
1870,0.015625,-0.040405,3.999512,-26.977539,-8.056641,-0.549316
1880,0.194336,0.256836,3.999512,-13.366699,-8.422852,-2.502441
1889,0.274536,-1.076660,1.959717,2.319336,-9.155273,-2.990723
1900,0.483154,-1.007202,1.407715,12.023926,-12.268066,-2.685547
1909,0.807983,-1.365234,0.810181,13.366699,-17.883301,-1.770020
1919,0.897583,-1.371826,1.185791,8.239746,-23.620605,8.056641
1931,1.216431,-0.432739,1.706909,-1.037598,-23.437500,14.648438
1940,1.209839,-0.233276,2.011353,4.882812,-23.864746,17.333984
1949,0.900513,1.260864,3.586304,11.596680,-26.611328,11.779785
1960,0.053223,2.213379,3.999512,23.193359,-31.250000,-0.976562
1970,-1.828003,3.196777,3.999512,40.344238,-29.785156,-16.967773
1979,-2.399902,3.741455,3.999512,60.302734,-20.874023,-35.095215
1989,-3.188477,3.666138,3.930542,83.862305,3.845215,-31.982422
2001,0.600952,2.903320,2.321045,92.102051,26.245117,-10.253906
2011,0.035522,1.770386,1.134155,98.999023,35.705566,8.239746
2020,0.323364,1.691040,0.670898,101.684570,29.296875,5.554199
2029,0.025146,1.347900,0.144897,101.318359,21.301270,-2.014160
2039,0.206421,0.954834,-0.038574,98.022461,16.784668,-7.202148
2049,0.140137,-0.049316,-0.367432,92.529297,13.549805,-13.000488
2061,0.013062,-0.061401,-0.219849,73.547363,6.408691,-32.165527
2071,-0.004150,0.067871,-0.155640,64.208984,3.906250,-39.855957
2081,0.221680,0.350220,0.078003,57.495117,0.671387,-50.354004
2090,0.311646,0.602783,0.307739,54.077148,-4.577637,-61.950684
2099,0.534180,0.467896,0.528564,53.588867,-9.033203,-70.129395
2110,0.388550,0.410278,0.606079,52.673340,-11.047363,-72.265625
2119,0.115845,0.212280,0.527466,51.513672,-11.230469,-69.763184
2132,-0.343994,-0.171509,0.171753,46.936035,-8.972168,-62.622070
2141,-0.503906,-0.343262,-0.037354,43.762207,-6.408691,-57.250977
2151,-0.420898,-0.622437,-0.254150,40.222168,-2.929688,-50.476074
2161,-0.274292,-0.764160,-0.339355,35.278320,0.610352,-43.823242
2170,-0.172485,-0.857788,-0.349854,29.846191,2.990723,-37.963867
2179,-0.182129,-0.873779,-0.399414,23.498535,4.150391,-33.142090
2189,-0.213379,-0.861328,-0.462769,17.578125,5.615234,-27.221680
2199,-0.306274,-0.865845,-0.463135,11.962891,11.596680,-13.183594
2210,-0.370728,-0.856079,-0.378052,0.915527,15.380859,-7.141113
2220,-0.302979,-0.879028,-0.298218,-4.821777,19.104004,-1.403809
2230,-0.218140,-0.810669,-0.243164,-10.192871,22.277832,3.723145
2240,-0.061523,-0.815186,-0.158813,-15.380859,24.780273,8.056641
2250,0.065308,-0.759033,-0.153687,-20.141602,25.634766,10.803223
2260,0.124268,-0.809448,-0.141357,-24.169922,24.963379,12.084961
2269,0.162720,-0.818237,-0.146362,-33.325195,21.850586,11.718750
2279,0.125854,-0.866089,-0.175171,-38.269043,20.324707,9.765625
2290,0.082642,-0.846924,-0.203247,-44.128418,18.798828,7.019043
2299,0.102051,-0.792603,-0.247070,-49.682617,16.967773,4.272461
2309,0.136475,-0.730835,-0.292969,-55.419922,14.892578,1.464844
2320,0.213867,-0.688232,-0.364136,-61.035156,12.817383,-0.915527
2330,0.312012,-0.669189,-0.405273,-66.894531,10.131836,-3.173828
2339,0.347168,-0.670776,-0.452393,-79.833984,2.807617,-6.103516
2349,0.377808,-0.668091,-0.544312,-86.791992,-0.732422,-7.080078
2360,0.316650,-0.585449,-0.584473,-94.238281,-4.272461,-7.873535
2370,0.265015,-0.531982,-0.666992,-101.379395,-7.385254,-8.728027
2379,0.226807,-0.455078,-0.772827,-108.947754,-10.070801,-9.460449
2390,0.198608,-0.372314,-0.874390,-115.905762,-12.084961,-9.521484
2400,0.142334,-0.296753,-0.976074,-122.802734,-13.305664,-9.948730
2409,-0.270142,3.089844,3.754761,-80.993652,-9.643555,-5.249023
2419,0.083618,-3.999512,3.055176,-33.081055,-7.141113,3.173828
2430,-0.522705,-3.283447,1.225342,-48.522949,8.850098,4.455566
2439,0.360352,3.999512,2.284424,-90.698242,17.700195,1.831055
2449,0.084229,3.999512,0.106812,-64.147949,-1.220703,-10.131836
2460,-0.502319,0.530884,0.553101,-7.446289,-15.380859,-15.930176
2469,-0.565674,-0.283081,3.999512,7.812500,-6.225586,-10.253906
2479,0.287842,0.265259,3.999512,-14.892578,0.671387,-14.648438
2491,0.319214,0.878418,1.550293,-11.169434,3.051758,-18.371582
2500,-0.194702,1.227905,0.568237,3.906250,-0.854492,-13.305664
2510,0.120117,-0.688110,0.709595,15.686035,2.990723,-8.239746
2519,-0.302734,-1.255005,1.403931,17.578125,7.751465,-4.821777
2529,-0.104126,-1.061890,1.647583,1.464844,12.451172,-3.479004
2541,-0.179932,0.539551,1.578735,-9.521484,12.207031,0.610352
2550,-0.256592,0.335571,1.200439,5.981445,9.704590,-0.915527
2561,-0.240601,-0.129028,1.726440,15.563965,9.582520,-2.380371
2571,0.133423,-0.466187,1.764404,16.113281,11.474609,-2.929688
2580,0.024902,-0.064941,1.284424,12.695313,12.023926,-1.525879
2590,-0.113403,0.301880,0.675659,11.596680,10.864258,1.831055
2599,-0.026001,0.304199,0.670166,15.808105,11.535645,7.385254
2610,0.128052,0.030273,0.998657,19.592285,13.671875,14.099121
2619,0.274658,-0.278198,1.172363,18.371582,15.258789,25.146484
2630,0.192993,0.399292,0.593506,9.765625,13.244629,30.090332
2640,0.159302,0.502563,0.390015,10.437012,11.169434,34.545898
2649,0.123657,0.095703,0.485474,12.939453,10.192871,39.123535
2659,0.134277,-0.160278,0.791748,12.451172,9.338379,42.236328
2670,0.123535,-0.111084,1.065674,7.995605,7.263184,43.395996
2679,-0.008301,0.086426,1.056519,3.784180,5.554199,43.334961
2692,-0.085693,0.129028,0.793701,3.112793,4.455566,44.128418
2701,-0.085327,0.095947,0.861938,4.882812,3.967285,44.311523
2710,-0.057739,-0.025635,0.938965,5.737305,2.563477,43.029785
2719,-0.126465,-0.078491,0.998291,5.310059,1.159668,40.893555
2729,-0.111450,-0.080200,0.934814,4.821777,0.305176,38.879395
2739,-0.105469,-0.072510,0.819214,4.516602,-0.122070,36.865234
2749,-0.074585,-0.124023,0.809448,4.943848,-0.610352,34.240723
2761,-0.086060,-0.258301,0.820679,4.394531,-3.601074,23.986816
2771,-0.117676,-0.266113,0.809326,2.807617,-4.882812,18.066406
2780,-0.084717,-0.276489,0.755371,1.403809,-5.310059,12.207031
2790,-0.073120,-0.226562,0.699341,0.061035,-5.676270,6.408691
2799,-0.037354,-0.217407,0.714111,-0.793457,-6.530762,1.403809
2809,-0.070190,-0.230713,0.800903,-1.586914,-6.958008,-3.112793
2821,-0.073120,-0.158936,0.927734,-3.173828,-6.042480,-8.911133
2831,-0.067139,-0.038574,1.055420,-3.479004,-5.065918,-10.559082
2840,-0.101196,-0.005981,0.994019,-2.746582,-4.150391,-11.840820
2850,-0.113892,-0.079712,1.021118,-1.953125,-3.967285,-12.756348
2859,-0.143555,-0.113403,0.979858,-1.342773,-4.028320,-13.305664
2869,-0.157837,-0.123779,0.973267,-1.342773,-3.112793,-13.244629
2879,-0.132202,-0.086426,1.007935,-1.831055,-2.197266,-12.268066
2890,-0.105225,-0.034302,0.968262,-2.014160,-1.281738,-10.620117
2900,-0.096191,-0.037231,0.909424,-2.258301,1.525879,-6.713867
2909,-0.110474,-0.051880,0.988770,-2.624512,2.807617,-4.516602
2920,-0.123535,-0.048950,0.997559,-2.929688,4.150391,-1.586914
2930,-0.098999,0.010742,1.048950,-3.479004,4.943848,1.403809
2939,-0.057251,0.002930,1.032104,-3.601074,5.371094,3.845215
2949,-0.020020,-0.011963,0.974731,-3.234863,4.882812,5.737305
2961,0.022583,-0.031250,0.986328,-2.807617,4.516602,8.483887
2970,0.042114,0.017700,1.008911,-2.624512,4.455566,9.277344
2981,0.046143,-0.044556,0.966064,-2.563477,4.394531,9.704590
2990,0.094971,-0.100220,0.967651,-2.624512,4.150391,9.643555
3000,0.085449,0.004517,0.964233,-3.173828,3.784180,9.155273
3009,0.106567,-0.010132,0.995972,-3.051758,2.807617,7.568359
3020,0.146240,-0.080444,0.969238,-2.624512,1.831055,5.554199
3029,0.132812,-0.093506,0.950317,-2.563477,0.671387,2.685547
3041,0.097778,-0.171021,0.952393,-2.502441,-0.488281,-0.793457
3050,0.108398,-0.137207,0.933228,-2.746582,-1.281738,-7.019043
3060,0.097778,-0.073975,1.000732,-2.929688,-1.708984,-8.789063
3070,0.074341,-0.030273,1.000366,-3.051758,-2.136230,-9.887695
3079,0.035889,0.014160,1.011475,-2.746582,-1.953125,-9.643555
3090,0.056763,-0.004761,1.019775,-2.014160,-1.525879,-7.995605
3099,-0.015503,-0.041382,0.900269,-1.770020,-0.671387,-5.432129
3109,-0.019775,-0.087280,0.911499,-2.197266,1.098633,3.234863
3121,-0.010376,-0.012451,0.985962,-2.563477,1.831055,8.056641
3131,-0.027954,-0.042358,1.023438,-2.441406,2.319336,12.756348
3140,-0.018433,0.010864,1.027954,-2.075195,2.502441,16.174316
3150,-0.063232,-0.023193,1.026733,-1.892090,2.746582,18.920898
3159,-0.021484,-0.139526,1.003174,-1.831055,2.990723,20.874023
3169,-0.006958,-0.087280,1.116333,-2.014160,2.990723,22.033691
3181,-0.020630,-0.108887,1.042114,-1.708984,1.831055,22.277832
3191,0.018555,-0.068359,1.075439,-1.281738,1.464844,22.033691
3201,0.016724,-0.010864,1.083008,-0.976562,1.098633,21.423340
3210,-0.003540,-0.129883,1.060425,-0.427246,0.305176,20.446777
3220,-0.015625,-0.073242,1.078125,-0.671387,-0.488281,19.165039
3229,-0.014648,-0.038696,1.077637,-0.244141,-1.159668,17.883301
3241,-0.020020,-0.117188,0.971191,-0.122070,-1.770020,14.892578
3251,0.028198,-0.112549,1.009644,-0.366211,-2.563477,12.756348
3260,0.037354,-0.136108,1.052002,-0.549316,-2.990723,10.559082
3270,0.041504,-0.194092,0.914917,-0.793457,-3.601074,7.934570
3280,0.073853,-0.228394,0.955078,-1.281738,-4.638672,4.455566
3289,0.044922,-0.228638,0.903809,-1.708984,-5.554199,0.549316
3300,0.047485,-0.134888,1.033936,-1.953125,-6.103516,-3.540039
3309,0.023560,-0.148315,0.961792,-2.258301,-7.080078,-7.629395
3321,0.046997,-0.137939,0.911743,-2.380371,-8.300781,-15.502930
3331,0.062866,-0.145874,0.958984,-2.441406,-8.483887,-18.676758
3341,0.032227,-0.149292,0.916382,-2.380371,-8.239746,-21.179199
3350,0.058716,-0.138916,0.926025,-2.380371,-7.812500,-22.705078
3361,0.042847,-0.144897,0.871582,-2.685547,-7.324219,-23.193359
3370,0.019653,-0.098511,0.950562,-2.685547,-6.530762,-22.888184
3380,0.014282,-0.032349,0.899170,-2.807617,-4.150391,-19.836426
3390,0.035400,-0.113892,0.988647,-2.258301,-3.845215,-18.310547
3399,-0.053223,-0.124756,0.963867,-1.647949,-3.479004,-16.906738
3410,-0.004639,-0.206787,0.944214,-1.770020,-2.868652,-15.625000
3420,0.006104,-0.133057,0.929687,-2.075195,-2.502441,-14.587402
3429,0.021240,-0.052002,1.007935,-2.258301,-2.197266,-13.671875
3440,-0.000854,-0.141113,0.941528,-2.319336,-1.831055,-12.634277
3450,0.040283,-0.173828,1.014404,-2.197266,-1.281738,-11.718750
3459,0.048340,-0.111206,1.006592,-1.953125,-0.061035,-9.338379
3469,0.035400,-0.137817,1.005371,-2.258301,0.061035,-8.483887
3480,0.031616,-0.016235,1.053711,-2.319336,0.305176,-7.507324
3489,-0.013184,-0.143066,0.969238,-1.953125,0.488281,-6.469727
3499,-0.021973,-0.155029,0.997070,-1.892090,0.488281,-5.371094
3509,-0.026367,-0.039917,1.038940,-1.892090,0.732422,-3.662109
3519,-0.049194,-0.142090,0.945557,-2.075195,1.220703,-1.464844
3531,-0.014038,0.033569,1.028931,-2.441406,1.586914,3.173828
3541,-0.014893,-0.086914,0.971802,-1.464844,2.685547,5.187988
3550,-0.004639,-0.104492,1.046997,-1.220703,3.356934,6.774902
3560,-0.044434,-0.063599,1.048828,-1.220703,3.479004,7.324219
3570,-0.053833,-0.171265,0.998169,-1.647949,3.540039,7.263184
3579,-0.028320,-0.135376,1.031494,-1.831055,3.173828,6.347656
3589,-0.034668,-0.071289,1.039673,-2.136230,2.624512,5.126953
3601,0.010986,0.003906,1.093018,-2.502441,2.014160,2.502441
3610,0.027588,0.003052,1.042114,-2.685547,1.159668,2.075195
3620,0.035278,-0.039307,0.991699,-2.685547,1.037598,2.319336
3629,0.024902,0.056519,1.037598,-2.746582,1.281738,2.624512
3640,0.010498,0.023315,1.035034,-2.441406,1.342773,3.417969
3649,0.033569,-0.033081,0.998047,-2.441406,1.586914,3.784180
3660,0.008667,0.051392,1.039917,-2.258301,1.586914,4.272461
3669,-0.001465,0.085571,1.061157,-1.953125,1.403809,4.577637
3681,-0.012573,-0.006470,0.973267,-1.159668,1.586914,5.065918
3690,-0.027222,0.014893,1.023804,-1.159668,1.708984,5.493164
3700,-0.050049,-0.002930,0.927124,-1.464844,1.525879,6.042480
3710,-0.049438,-0.017334,0.961792,-1.770020,2.075195,7.080078
3719,-0.060913,0.044434,0.900879,-1.831055,2.624512,8.361816
3731,-0.030518,0.051392,0.942139,-1.464844,2.807617,11.108398
3740,-0.048096,0.012451,0.949097,-1.159668,3.112793,12.390137
3751,-0.066895,-0.012573,0.951782,-1.281738,2.746582,13.488770
3760,-0.100830,-0.056641,0.980103,-1.220703,2.929688,14.526367
3770,-0.088135,-0.021729,0.968872,-1.098633,3.112793,15.380859
3780,-0.110474,-0.093018,0.946411,-0.854492,3.356934,16.357422
3790,-0.038330,-0.058838,1.012451,-0.854492,3.356934,17.028809
3799,-0.076782,-0.083374,0.942261,-0.610352,2.929688,17.089844
3811,-0.030884,-0.119019,1.015869,-0.549316,2.807617,15.686035
3820,-0.029541,-0.112549,0.959961,-0.488281,2.502441,14.587402
3829,-0.022217,-0.145630,1.034180,-0.488281,1.953125,13.122559
3839,-0.017700,-0.030640,1.077759,0.000000,1.831055,11.535645
3850,-0.013062,-0.093994,1.040161,0.305176,1.342773,10.192871
3860,0.010376,-0.170044,1.067383,0.366211,0.854492,9.155273
3869,0.039673,-0.146973,1.085205,0.488281,0.427246,8.178711
3881,0.037964,-0.200073,1.043945,0.366211,-15.625000,7.324219
3891,0.021118,-0.096558,1.094971,0.244141,-0.549316,7.080078
3900,0.030396,-0.129761,0.982788,0.366211,-0.671387,7.385254
3910,0.055298,-0.208984,0.992676,0.793457,-0.732422,7.751465
3919,0.028931,-0.128296,1.021729,0.244141,-1.220703,7.995605
3930,0.035278,-0.123779,0.968018,-0.305176,-1.098633,8.117676
3939,0.035034,-0.171631,0.980225,-0.244141,-0.976562,8.178711
3951,-0.009644,-0.106689,0.989502,-0.305176,-1.281738,7.751465
3960,0.004517,-0.200195,0.986084,0.183105,-2.258301,7.507324
3970,0.007935,-0.137085,1.017212,0.244141,-2.136230,6.774902
3980,0.015259,-0.090576,1.004883,-0.122070,-2.380371,6.286621
3989,0.023193,-0.141235,0.989746,-0.549316,-2.563477,5.493164
4000,0.023804,-0.116455,1.019531,-0.427246,-2.990723,4.455566
4009,0.003052,-0.083008,1.011353,-0.427246,-3.356934,3.356934
4021,0.040649,-0.074097,1.038696,-0.244141,-3.662109,0.488281
4030,0.019043,-0.038086,1.022949,-0.244141,-4.638672,-1.159668
4040,0.050781,-0.043823,1.000854,-0.061035,-4.760742,-2.380371
4049,0.058350,-0.058594,1.013428,0.122070,-5.126953,-3.295898
4060,0.064087,-0.090210,0.992554,0.488281,-5.065918,-4.028320
4069,0.057861,-0.094482,0.950439,0.305176,-5.065918,-4.699707
4079,0.052002,-0.142090,0.941406,-0.122070,-5.126953,-5.187988
4091,0.033813,-0.080444,0.887695,-0.732422,-5.004883,-5.371094
4101,0.052612,-0.068481,0.984741,-1.403809,-5.065918,-5.187988
4110,0.016235,-0.016846,0.987061,-1.525879,-5.004883,-5.249023
4120,0.022095,-0.055420,0.974121,-1.464844,-5.004883,-5.371094
4130,0.016357,-0.086304,0.982056,-1.281738,-4.882812,-5.676270
4139,0.006714,0.021973,1.049438,-1.342773,-4.882812,-5.798340
4150,-0.012939,-0.002441,1.042603,-1.220703,-4.882812,-6.408691
4160,-0.000244,-0.073608,1.018921,-0.427246,-4.638672,-7.629395
4169,-0.004150,-0.042480,0.999512,-0.061035,-4.699707,-8.422852
4179,0.018188,-0.104980,0.986206,0.183105,-4.943848,-9.887695
4190,0.017944,-0.082275,1.007446,0.305176,-5.004883,-11.413574
4199,0.049805,-0.076904,1.018555,0.122070,-4.943848,-12.268066
4209,0.066406,-0.139526,0.968628,-0.061035,-5.065918,-13.061523
4221,0.051392,-0.109619,0.997314,-0.366211,-5.249023,-14.465332
4230,0.043823,-0.100220,0.963867,-0.183105,-5.249023,-14.831543
4240,0.067993,-0.079712,1.046875,-0.122070,-5.126953,-15.319824
4250,0.055176,-0.025513,1.045410,-0.061035,-5.249023,-15.563965
4259,0.041504,-0.098022,0.964478,-0.244141,-5.004883,-15.808105
4270,0.022461,-0.077637,1.030884,-0.366211,-4.760742,-15.563965
4279,-0.013794,-0.018188,1.043823,-0.366211,-4.638672,-15.319824
4289,-0.016968,-0.064941,0.987305,0.000000,-3.906250,-14.648438
4301,-0.041504,-0.014893,1.010620,0.488281,-2.380371,-12.817383
4310,-0.066895,-0.129272,0.895630,0.610352,-1.892090,-11.596680
4320,-0.046387,-0.193481,0.891968,0.244141,-0.976562,-10.131836
4330,-0.065918,-0.145630,0.865967,-0.122070,-0.610352,-9.094238
4339,-0.025269,-0.131226,0.964111,-0.915527,0.366211,-8.056641
4350,-0.052734,-0.129028,0.898193,-1.342773,0.854492,-7.324219
4359,-0.036377,-0.135742,0.958008,-1.464844,1.037598,-6.835937
4371,-0.064575,-0.098022,1.026489,-1.586914,1.281738,-6.042480
4381,-0.049561,-0.128540,0.947754,-1.403809,1.464844,-5.554199
4390,-0.041626,-0.163818,0.938599,-1.525879,1.647949,-4.516602
4400,-0.047241,-0.092773,0.980469,-1.892090,1.831055,-3.417969
4410,-0.057495,-0.107178,0.939819,-2.258301,2.136230,-1.953125
4419,-0.042725,-0.124023,0.963623,-2.563477,2.563477,-0.488281
4430,-0.055786,-0.024902,0.996460,-2.380371,3.112793,1.037598
4439,-0.083984,-0.075073,0.985107,-1.953125,3.967285,4.272461
4451,-0.068359,-0.020020,1.040161,-1.831055,4.577637,5.554199
4460,-0.057739,-0.004639,1.014893,-1.403809,5.187988,6.896973
4469,-0.045044,-0.062012,1.008423,-1.281738,5.310059,8.239746
4479,-0.050171,0.029175,1.037842,-0.793457,5.310059,9.094238
4489,-0.047729,-0.024414,1.028442,-0.244141,4.882812,9.521484
4499,-0.009644,-0.114136,0.993408,0.000000,5.187988,10.070801
4511,-0.000732,0.006714,1.019287,-0.427246,4.699707,10.437012
4521,-0.006836,-0.061157,0.935059,-0.427246,4.699707,10.986328
4531,0.004395,-0.077637,0.996704,-0.488281,4.333496,11.230469
4540,-0.015625,-0.065796,0.927368,-0.427246,4.089355,10.986328
4550,0.000977,-0.127319,1.017090,-1.037598,3.601074,10.681152
4559,-0.001587,-0.098999,0.975220,-1.647949,3.051758,10.559082
4570,-0.001343,-0.036011,1.008301,-2.319336,2.624512,10.192871
4579,0.017944,0.069214,1.058716,-2.136230,1.892090,9.765625
4590,0.016357,0.077148,1.035645,-1.647949,1.770020,10.009766
4599,0.026611,0.027710,1.018188,-1.281738,1.525879,10.192871
4610,0.062622,-0.011108,1.037109,-1.220703,1.281738,10.314941
4619,0.036255,-0.065674,0.970459,-1.525879,0.915527,10.620117
4630,0.047241,-0.128784,0.993286,-1.586914,1.037598,10.803223
4639,0.017578,-0.031372,0.984741,-1.770020,0.671387,10.192871
4649,0.040527,-0.093750,0.986938,-2.563477,-0.732422,7.629395
4661,0.057373,-0.051758,0.980713,-3.234863,-1.647949,5.371094
4670,0.060791,-0.018555,1.010376,-3.295898,-2.258301,2.685547
4680,0.048096,-0.053101,0.997559,-3.173828,-3.112793,-0.183105
4689,0.057007,-0.065674,0.983276,-3.112793,-3.662109,-2.746582
4700,0.046631,-0.033203,1.014282,-3.234863,-4.089355,-5.065918
4709,0.038330,0.055786,1.102417,-3.295898,-4.577637,-6.774902
4721,0.036987,-0.008667,0.976196,-2.929688,-5.065918,-8.483887
4731,0.012085,-0.064209,1.025269,-1.525879,-4.943848,-8.911133
4740,-0.005005,-0.064575,1.091919,-1.586914,-4.638672,-8.911133
4750,-0.020142,-0.105713,1.021240,-1.403809,-4.028320,-8.422852
4759,-0.030273,-0.108887,0.898926,-1.281738,-3.173828,-7.629395
4770,-0.051147,-0.083008,0.923462,-1.098633,-2.685547,-6.958008
4780,-0.074829,-0.036499,0.945801,-0.549316,-2.197266,-5.310059
4789,-0.088379,-0.124512,1.030029,0.244141,-1.586914,-4.760742
4799,-0.133301,-0.345459,1.048584,-0.244141,-0.854492,-4.211426
4810,-0.095703,-0.191528,1.111328,-0.854492,-0.427246,-3.723145
4820,-0.094116,-0.153442,1.083008,-0.976562,-0.061035,-3.112793
4829,-0.052002,-0.184204,1.024902,-0.671387,0.366211,-3.356934
4840,-0.026489,-0.201172,1.002563,-0.244141,0.305176,-3.479004
4850,0.024902,-0.149658,1.097656,-0.366211,0.183105,-4.028320
4861,0.008667,-0.148804,1.018188,-1.037598,0.427246,-5.187988
4871,-0.013184,-0.125366,0.997192,-1.037598,0.488281,-5.737305
4881,-0.053345,-0.050659,0.936890,-1.220703,0.244141,-6.103516
4890,-0.038696,-0.074463,0.962891,-1.342773,0.488281,-6.225586
4900,-0.079834,-0.040161,0.936279,-1.770020,0.122070,-6.225586
4909,-0.077148,-0.047852,0.900391,-2.258301,0.488281,-6.164551
4919,-0.058105,-0.100098,0.858398,-2.380371,1.098633,-5.432129
4931,0.008423,0.054932,0.992798,-2.929688,1.831055,-2.197266
4940,0.041260,0.158081,1.047241,-3.417969,3.540039,-0.122070
4949,0.005981,0.077393,1.044800,-2.868652,4.211426,1.586914
4960,-0.076294,0.107300,1.056396,-2.014160,4.943848,3.112793
4969,-0.229858,0.127808,1.021118,-1.037598,6.042480,3.662109
4979,-0.325684,0.010010,0.967163,-0.244141,8.056641,4.638672
4989,-0.328613,-0.074341,0.934326,0.122070,9.948730,6.164551
4999,-0.357422,-0.136230,0.839600,-0.183105,10.742188,7.629395
5011,-0.123535,-0.189331,0.883179,-1.037598,9.826660,9.338379
5020,-0.013428,-0.176514,0.867554,-1.892090,8.544922,10.314941
5030,0.078003,-0.182495,0.868530,-2.502441,7.263184,10.986328
5040,0.235718,-0.159424,0.822754,-3.173828,5.920410,12.390137
5050,0.208496,-0.185913,0.789307,-3.540039,5.065918,13.305664
5059,0.282959,-0.203247,0.643555,-3.601074,5.249023,14.526367
5071,0.194580,-0.303589,0.849609,-3.051758,6.042480,16.845703
5080,0.228271,-0.576782,0.839722,-1.037598,5.493164,16.235352
5090,0.181641,-0.757690,0.732178,-0.427246,3.784180,14.221191
5099,0.100952,-0.988647,0.382202,-0.976562,2.258301,10.803223
5110,0.050049,-2.359863,-1.823608,-1.403809,1.708984,7.507324
5119,0.178101,-2.522461,-1.169434,-7.141113,1.770020,5.126953
5129,0.211792,-2.769043,-1.359375,-25.268555,0.122070,1.525879
5142,0.257690,-0.095459,0.552124,-62.622070,-7.263184,-6.958008
5151,0.091553,0.412109,2.384399,-59.692383,-7.751465,-6.774902
5161,0.057251,0.224609,3.962402,-46.325684,-6.530762,-6.347656
5170,0.136963,0.075562,3.999512,-32.470703,-3.967285,-4.516602
5180,0.163452,0.043945,3.999512,-17.272949,-1.220703,-2.563477
5189,0.241699,-1.307373,2.519897,-0.305176,-0.305176,-1.159668
5199,0.239380,-1.678101,1.598633,8.728027,-1.831055,-1.953125
5212,-0.042603,-1.775879,0.781006,2.197266,-11.657715,-7.202148
5221,-0.118042,-1.226074,1.245117,-2.807617,-12.329102,-6.774902
5231,-0.282715,-0.601685,1.683594,-2.502441,-9.887695,-4.943848
5240,-0.199463,-0.164673,2.221558,1.525879,-5.615234,-0.671387
5250,-0.152588,1.541382,3.864868,5.798340,-1.403809,5.798340
5259,-0.438232,2.062866,3.393555,16.723633,-2.197266,11.962891
5269,-0.761230,3.177612,3.692749,34.484863,-5.004883,15.563965
5281,-2.073730,3.999512,3.999512,57.312012,14.953613,18.127441
5290,-0.750732,3.999512,3.999512,90.087891,21.606445,22.583008
5299,0.346680,3.154907,2.273804,98.266602,38.452148,37.475586
5310,0.341553,1.875000,0.827881,106.262207,51.818848,53.649902
5319,0.512085,1.943481,0.749146,110.839844,49.804687,52.001953
5330,0.334106,1.760010,0.208130,110.595703,42.419434,44.250488
5341,0.242065,0.819458,-0.536499,99.609375,40.832520,50.292969
5350,0.400513,-0.180542,-0.493652,91.247559,41.687012,56.701660
5360,0.304199,-0.047363,-0.188232,83.068848,39.672852,55.786133
5369,-0.071289,-0.048584,-0.040527,75.378418,37.109375,52.673340
5380,0.040527,0.034302,0.016113,67.871094,34.973145,50.292969
5389,0.255493,-0.040283,0.035278,60.974121,31.799316,44.860840
5400,0.443848,-0.132812,0.165894,56.274414,26.245117,36.926270
5410,0.602905,-0.100708,0.486206,54.016113,20.385742,29.052734
5419,0.536499,-0.093018,0.671997,51.452637,8.789063,15.747070
5430,0.060425,-0.125366,0.479980,48.889160,3.540039,9.521484
5440,-0.059937,-0.161743,0.277100,46.508789,0.183105,3.417969
5449,-0.027954,-0.234741,0.158569,44.616699,-2.014160,-1.892090
5460,-0.025269,-0.447754,0.144775,43.334961,-4.333496,-5.615234
5469,0.058594,-0.634033,0.146362,41.015625,-6.286621,-8.483887
5481,0.110596,-0.691284,0.078491,30.395508,-10.864258,-13.732910
5490,0.141724,-0.580200,-0.195557,24.353027,-13.671875,-15.869141
5501,0.200195,-0.539307,-0.204468,19.226074,-15.686035,-16.967773
5510,0.118896,-0.505615,-0.114014,15.197754,-17.211914,-17.272949
5520,0.112305,-0.562378,-0.014404,11.230469,-18.554687,-17.517090
5529,0.010010,-0.646118,0.027954,6.286621,-19.958496,-17.700195
5540,-0.024414,-0.668579,0.001343,0.793457,-20.751953,-18.066406
5550,-0.080566,-0.589111,-0.018066,-4.882812,-21.057129,-18.005371
5559,-0.077393,-0.555176,-0.052612,-13.854980,-20.690918,-17.333984
5569,-0.069214,-0.582031,0.014038,-17.883301,-20.385742,-16.723633
5579,-0.063721,-0.637451,0.017822,-22.521973,-19.714355,-16.174316
5590,-0.113159,-0.618286,-0.023315,-27.893066,-18.615723,-15.686035
5600,-0.074585,-0.548584,-0.038818,-32.714844,-16.845703,-15.014648
5610,-0.068848,-0.509277,-0.027710,-37.292480,-15.136719,-13.916016
5620,-0.013184,-0.457642,-0.032593,-45.959473,-12.084961,-10.925293
5630,-0.013794,-0.473022,-0.179932,-50.781250,-10.681152,-9.887695
5640,0.028564,-0.416382,-0.229736,-55.603027,-9.887695,-9.033203
5650,0.103760,-0.484131,-0.289551,-60.363770,-9.521484,-8.056641
5659,0.118774,-0.528687,-0.342529,-65.795898,-9.094238,-7.446289
5670,0.119751,-0.543457,-0.420410,-71.655273,-9.216309,-7.080078
5679,0.151611,-0.554810,-0.498047,-77.819824,-9.704590,-6.713867
5689,0.130005,-0.549683,-0.595703,-85.021973,-10.314941,-6.591797
5701,0.120605,-0.424805,-0.794434,-100.463867,-12.145996,-6.591797
5711,0.097168,-0.347046,-0.922852,-108.154297,-12.634277,-6.713867
5721,0.012573,-0.361450,-0.996338,-115.661621,-13.244629,-7.324219
5730,-0.089233,-0.411865,-1.049438,-123.229980,-12.878418,-7.690430
5740,-0.136841,-0.380981,-1.113403,-130.920410,-11.169434,-8.239746
5750,-0.202148,0.277100,-0.424194,-139.282227,-8.666992,-9.521484
5760,-0.328491,2.917725,3.999512,-130.371094,-4.150391,-5.676270
5770,0.639648,-0.507080,3.999512,-26.855469,-8.728027,1.953125
5779,0.612671,-1.162598,2.404053,-74.584961,-3.662109,-6.958008
5790,-0.133667,3.999512,3.110840,-114.440918,-2.197266,-9.460449
5800,-0.056152,3.999512,0.655396,-57.006836,-5.920410,-3.295898
5809,-0.041138,-3.548340,-1.878662,8.789063,-14.221191,-0.671387
5820,0.089600,1.436401,3.999512,5.249023,-15.991211,-7.507324
5830,0.546021,-0.390747,3.999512,-3.601074,-19.042969,-4.272461
5841,0.602417,0.426392,1.079346,-7.568359,-16.845703,-0.244141
5851,0.357422,0.111206,0.348633,7.080078,-22.766113,2.624512
5860,0.197876,-1.558960,0.868042,15.319824,-22.033691,3.051758
5870,-0.393921,-1.065552,1.446533,5.065918,-18.737793,-0.915527
5880,-0.012939,-0.386597,1.526001,-10.437012,-12.451172,-5.310059
5889,0.194458,0.664429,1.736572,-15.136719,-7.263184,-4.089355
5901,0.224976,0.348633,1.627930,13.061523,-17.761230,-8.422852
5911,-0.241943,-0.652100,1.858887,15.075684,-21.057129,-11.291504
5920,-0.282349,-0.340576,1.326050,9.643555,-20.446777,-14.221191
5930,-0.305908,0.043091,0.854614,8.361816,-18.249512,-17.395020
5939,-0.706909,0.140869,0.711182,14.160156,-16.052246,-18.737793
5949,-0.647705,-0.255493,0.801880,21.972656,-13.610840,-20.202637
5960,-0.692627,-0.530273,1.100098,23.315430,-11.047363,-21.545410
5970,-0.637573,-0.314941,1.123535,19.287109,-9.338379,-24.169922
5980,-0.558472,-0.039307,0.795898,14.465332,-4.638672,-28.564453
5989,-0.535034,0.114014,0.318481,17.028809,-2.563477,-27.954102
6000,-0.482544,-0.058472,0.535156,18.798828,0.793457,-26.062012
6010,-0.379272,-0.273682,0.773560,17.517090,4.211426,-23.864746
6019,-0.378174,-0.036743,0.839600,14.099121,6.652832,-22.705078
6030,-0.356445,0.066895,0.718262,11.718750,8.422852,-21.850586
6042,-0.242554,0.107788,0.546387,12.145996,12.390137,-17.089844
6052,-0.227417,-0.018433,0.656738,12.512207,14.343262,-13.732910
6061,-0.140991,-0.078857,0.789917,11.169434,15.869141,-10.559082
6071,-0.092285,-0.125366,0.791626,8.850098,16.967773,-6.958008
6080,-0.077881,-0.044067,0.757202,6.347656,17.944336,-2.441406
6089,-0.042725,-0.004517,0.658447,4.699707,19.042969,3.051758
6100,0.010742,-0.053345,0.637939,3.295898,20.263672,8.972168
6109,0.079102,-0.005127,0.876953,2.075195,21.301270,14.709473
6121,0.152710,-0.018677,1.062744,0.244141,20.568848,23.925781
6131,0.192627,0.057983,1.101807,-0.305176,19.104004,27.221680
6140,0.203613,0.075317,1.000244,-0.122070,18.066406,30.761719
6150,0.237793,0.038818,0.981567,0.305176,17.456055,34.423828
6160,0.281616,0.018433,1.003418,0.976562,16.723633,37.719727
6170,0.292603,-0.005737,1.077759,1.098633,15.686035,40.588379
6182,0.330200,-0.070312,0.975220,0.793457,12.084961,43.823242
6191,0.279053,-0.181641,0.819824,0.610352,9.460449,43.457031
6201,0.265503,-0.163940,0.889038,-0.061035,6.713867,41.564941
6210,0.213989,-0.137329,0.968628,-0.854492,3.784180,38.330078
6219,0.168213,-0.139282,1.051636,-1.525879,1.098633,33.935547
6230,0.175659,-0.066040,1.096069,-2.197266,-1.281738,28.686523
6240,0.166260,-0.077637,1.088379,-2.258301,-3.540039,23.803711
6252,0.114868,0.036743,1.138916,-1.159668,-6.408691,15.136719
6261,0.092041,-0.021484,1.113892,-0.366211,-7.507324,11.108398
6271,0.052612,-0.067505,1.009766,0.061035,-8.361816,6.835937
6280,0.047607,-0.078003,0.926636,-0.061035,-9.521484,2.441406
6290,0.022461,-0.094604,0.815674,-0.305176,-10.375977,-2.075195
6299,0.029663,-0.107300,0.798218,-0.854492,-11.230469,-6.591797
6310,-0.015015,-0.143066,0.884033,-1.342773,-12.023926,-11.413574
6320,-0.030640,-0.190308,0.987305,-1.525879,-12.268066,-15.930176
6331,-0.019287,-0.068604,1.079224,-2.685547,-11.535645,-22.521973
6341,-0.051147,0.128418,1.143066,-2.929688,-10.925293,-24.169922
6351,-0.084106,0.073730,1.076050,-1.892090,-10.070801,-24.841309
6360,-0.071045,-0.054687,1.049805,-0.610352,-9.399414,-25.268555
6370,-0.087891,-0.082275,1.028564,0.122070,-8.789063,-24.780273
6380,-0.082397,-0.067505,1.094971,0.183105,-8.117676,-23.925781
6390,-0.084106,-0.052734,1.004883,0.244141,-7.629395,-22.644043
6399,-0.081787,-0.090210,0.942505,0.488281,-5.371094,-18.615723
6410,-0.085693,-0.106323,0.876343,0.183105,-4.455566,-16.601562
6420,-0.119019,-0.055298,0.894043,-0.488281,-3.417969,-14.587402
6430,-0.087524,-0.051636,0.942749,-1.342773,-2.197266,-12.573242
6440,-0.058105,-0.086792,0.950684,-1.892090,-1.342773,-11.169434
6450,-0.084839,-0.053589,0.905273,-2.380371,-1.281738,-10.620117
6459,-0.037720,-0.054687,0.957642,-2.624512,-1.037598,-10.498047
6469,-0.030518,-0.151001,0.943726,-2.807617,-0.854492,-12.573242
6479,-0.016113,-0.161743,0.981079,-3.234863,-1.098633,-14.770508
6490,-0.018066,-0.097778,0.988525,-3.906250,-0.915527,-16.906738
6500,-0.009766,-0.040771,1.014526,-4.211426,-0.488281,-18.432617
6510,-0.011230,-0.041382,1.013550,-4.089355,-0.061035,-19.592285
6520,-0.038818,-0.041626,0.989258,-3.784180,0.366211,-19.409180
6529,-0.014771,-0.031494,0.993408,-3.601074,1.220703,-18.188477
6539,-0.033325,-0.005371,0.982178,-3.784180,2.624512,-13.549805
6550,-0.022949,0.024658,0.967773,-3.295898,3.234863,-10.559082
6560,-0.086182,0.019775,1.008911,-2.868652,3.601074,-8.239746
6569,-0.020752,-0.028809,1.036133,-2.990723,4.516602,-6.408691
6580,-0.015015,-0.047974,1.013916,-3.234863,5.004883,-4.638672
6590,0.026367,-0.065186,1.064087,-3.051758,4.699707,-2.685547
6599,0.002686,0.024414,1.012817,-2.807617,4.882812,-0.610352
6611,0.003052,0.029297,1.034180,-2.624512,5.432129,3.723145
6620,0.019287,-0.020508,1.064453,-2.136230,5.371094,5.737305
6630,0.028564,-0.072998,1.042236,-1.708984,4.699707,7.873535
6640,0.002563,-0.016357,0.941895,-1.647949,4.211426,9.399414
6649,0.008667,0.043945,0.954712,-1.770020,3.967285,10.742188
6660,0.017822,-0.052490,0.913330,-1.953125,4.394531,11.718750
6669,-0.004272,-0.128540,0.878418,-2.258301,5.187988,11.718750
6681,-0.017944,-0.132446,0.964722,-3.479004,6.042480,11.718750
6691,-0.033936,-0.012207,1.094849,-4.394531,5.187988,10.803223
6700,-0.048584,0.106689,1.132568,-4.272461,4.089355,9.460449
6710,-0.080811,0.098267,1.135254,-3.601074,3.295898,7.873535
6719,-0.060425,-0.001343,1.021362,-2.075195,2.746582,5.859375
6730,-0.042358,-0.100586,0.942017,-0.732422,2.136230,3.906250
6740,-0.002930,-0.157959,0.961060,-0.854492,1.464844,2.441406
6751,-0.038696,-0.128662,0.919800,-1.953125,0.732422,-0.061035
6761,-0.062866,-0.085327,0.908325,-2.380371,1.159668,-0.549316
6770,-0.042236,-0.081299,0.985229,-2.441406,1.708984,-0.793457
6780,-0.044189,-0.125000,1.017700,-2.807617,2.258301,-0.915527
6790,-0.058716,-0.140991,0.968506,-3.234863,2.563477,-1.037598
6799,-0.067017,-0.093872,1.025146,-3.662109,2.990723,-1.281738
6811,-0.066162,-0.020508,1.033936,-3.479004,3.662109,-2.136230
6821,-0.099121,-0.000732,1.042969,-3.295898,3.906250,-2.075195
6831,-0.085327,0.007568,1.050049,-2.990723,4.089355,-1.525879
6840,-0.107788,0.047974,1.018433,-2.319336,4.516602,0.366211
6850,-0.078613,-0.006348,1.051880,-2.075195,5.065918,2.624512
6859,-0.061157,-0.118774,0.979126,-1.586914,5.126953,4.333496
6870,-0.036987,-0.099609,0.985229,-1.098633,5.554199,6.164551
6879,0.020264,-0.050903,1.088867,-0.549316,5.615234,7.507324
6891,0.022705,-0.149048,0.986084,0.061035,5.249023,8.666992
6901,0.078003,-0.117188,1.028198,0.305176,5.187988,8.728027
6910,0.042969,-0.152344,1.004150,0.549316,4.699707,8.361816
6920,0.045898,-0.157227,1.010864,0.915527,4.638672,8.117676
6929,0.028564,-0.112427,1.039795,1.281738,4.333496,8.056641
6939,0.043213,-0.097046,1.004395,1.464844,3.967285,7.812500
6951,0.066406,-0.143921,1.000244,1.464844,3.662109,6.347656
6960,0.063721,-0.219727,0.971558,1.342773,2.929688,5.371094
6970,0.001465,-0.102173,1.029175,1.098633,2.441406,4.638672
6980,-0.010864,-0.073364,0.992310,1.098633,2.075195,4.211426
6990,0.031616,-0.072388,0.994385,0.854492,1.770020,4.089355
7000,0.021118,-0.198608,0.981812,1.281738,1.647949,4.272461
7009,0.004883,-0.263550,0.908081,1.037598,1.403809,4.760742
7019,-0.033325,-0.214722,0.978027,0.549316,1.831055,5.493164
7031,-0.048706,-0.056519,0.990601,0.000000,2.258301,6.958008
7040,-0.001343,-0.123413,0.925659,0.183105,2.563477,7.629395
7050,0.025879,-0.203125,0.948486,-0.183105,2.563477,8.178711
7060,0.008423,-0.253418,0.919556,-0.549316,2.197266,7.873535
7070,-0.006592,-0.257813,0.899414,-0.915527,1.892090,7.568359
7079,-0.019653,-0.209473,0.956665,-1.220703,1.525879,7.385254
7091,0.010376,-0.130859,0.974854,-2.319336,1.098633,6.591797
7100,-0.006836,-0.118042,0.994629,-2.380371,0.915527,6.164551
7110,0.005615,-0.126831,0.987061,-2.197266,0.549316,5.615234
7120,0.028198,-0.112427,1.047485,-1.953125,0.671387,5.310059
7129,-0.009155,-0.130005,1.029053,-1.037598,0.610352,4.821777
7140,0.006470,-0.189453,1.009277,-0.793457,0.305176,4.089355
7149,-0.004639,-0.089233,1.083130,-0.671387,0.244141,2.990723
7161,0.001099,-0.005615,1.097290,-0.183105,-0.122070,0.915527
7170,-0.010010,-0.150269,0.947754,0.244141,-0.549316,0.000000
7180,0.000977,-0.182373,0.964355,0.732422,-0.671387,-0.854492
7189,-0.014404,-0.097412,0.967529,1.281738,-0.427246,-1.464844
7200,-0.000488,-0.072021,1.006958,1.342773,-0.488281,-1.342773
7210,-0.015625,-0.123169,0.944824,0.854492,-0.061035,-1.098633
7219,-0.006592,-0.201782,0.975952,0.366211,-0.244141,-0.793457
7231,-0.011841,-0.202881,0.940186,-0.427246,0.488281,-0.305176
7240,-0.041138,-0.054932,1.004150,-0.549316,0.610352,0.244141
7250,-0.021484,-0.100952,0.975464,-0.610352,0.915527,1.098633
7259,-0.036255,-0.109009,0.966553,-0.671387,0.915527,2.380371
7270,-0.028442,-0.067627,0.951294,-0.854492,1.464844,3.540039
7280,-0.029541,-0.058594,1.013306,-0.976562,2.075195,4.943848
7289,-0.000610,-0.075317,0.958862,-1.403809,2.075195,6.408691
7301,-0.019897,-0.099487,0.970947,-2.197266,2.197266,7.995605
7311,-0.036499,-0.070068,0.978271,-2.136230,2.502441,8.117676
7320,-0.027344,-0.094116,1.054199,-2.197266,2.441406,8.056641
7330,-0.047852,-0.155396,0.935913,-2.502441,2.136230,7.568359
7340,-0.000244,-0.177979,1.014893,-2.746582,1.770020,6.958008
7349,-0.026611,-0.110962,0.956909,-3.173828,1.708984,6.835937
7360,-0.009644,0.017944,1.072266,-3.173828,1.892090,6.774902
7369,-0.027954,0.024658,0.992798,-2.807617,2.075195,7.324219
7379,-0.006836,-0.078369,1.027222,-2.685547,2.319336,7.873535
7390,-0.028198,0.018311,1.097534,-2.502441,2.685547,8.422852
7399,-0.013306,-0.055664,1.030640,-2.319336,2.624512,8.972168
7410,0.006592,-0.095825,0.973877,-2.319336,2.502441,9.094238
7420,-0.002441,-0.061523,1.002197,-2.319336,2.197266,9.094238
7429,0.004395,0.040283,1.055420,-2.258301,1.892090,8.850098
7441,-0.010742,0.087524,1.040527,-1.647949,1.037598,8.300781
7450,0.009033,-0.090820,1.008057,-1.159668,1.159668,8.422852
7461,-0.007324,-0.117310,0.953491,-0.793457,0.976562,8.422852
7470,0.008057,0.012451,1.027222,-0.671387,0.976562,8.361816
7480,0.016846,0.058228,1.032959,-0.244141,1.342773,8.239746
7489,0.042969,-0.030762,0.993896,-0.061035,1.037598,8.422852
7499,0.072266,-0.131348,1.005615,0.061035,0.915527,8.056641
7509,0.032959,-0.150146,0.938965,0.183105,0.488281,7.568359
7521,0.036133,-0.019043,1.029541,-0.183105,-0.183105,6.225586
7531,0.048462,-0.036865,0.998169,-0.244141,-0.610352,5.798340
7540,0.043335,-0.069702,1.015991,-0.427246,-0.915527,5.249023
7549,0.022705,-0.122803,0.947876,-0.610352,-1.220703,4.638672
7560,0.029175,-0.130981,0.957520,-0.732422,-1.586914,4.394531
7569,0.058228,-0.107178,0.990112,-0.671387,-1.647949,4.272461
7579,0.052368,-0.093018,0.968140,-0.793457,-1.892090,3.906250
7591,0.017578,-0.061279,1.012085,-1.708984,-2.319336,2.624512
7601,-0.008423,-0.099487,0.990356,-1.708984,-2.441406,1.525879
7611,0.012329,-0.122437,1.026123,-1.403809,-2.319336,0.183105
7620,-0.004517,-0.109375,1.006470,-1.220703,-2.319336,-0.793457
7629,-0.012329,-0.062500,0.976318,-1.159668,-2.441406,-1.647949
7639,0.002686,-0.087036,0.994507,-1.281738,-2.380371,-2.502441
7649,0.041748,-0.148560,0.967896,-1.525879,-2.136230,-2.929688
7660,0.022705,-0.082886,1.025635,-1.831055,-2.380371,-3.967285
7670,-0.010376,0.026123,1.065186,-1.708984,-2.380371,-4.211426
7679,-0.013306,0.029297,1.011475,-1.342773,-2.075195,-4.272461
7689,-0.005981,-0.052002,1.047852,-1.159668,-2.075195,-4.028320
7700,-0.017090,-0.048706,0.997681,-0.976562,-1.892090,-3.234863
7709,-0.003174,-0.060547,0.944946,-0.671387,-1.342773,-1.953125
7719,0.004272,0.017456,0.955322,-0.610352,-0.976562,0.000000
7731,-0.038086,-0.036255,0.954224,-0.732422,0.122070,4.882812
7741,-0.052979,-0.047363,0.963745,-0.732422,0.366211,6.591797
7750,-0.058472,-0.020630,0.964233,-0.671387,0.549316,7.934570
7760,-0.029419,0.015625,0.922607,-0.854492,0.915527,9.094238
7769,-0.012207,-0.031616,0.888672,-1.098633,1.220703,10.070801
7779,0.022705,-0.026855,0.837036,-1.220703,1.159668,10.681152
7789,0.082275,-0.005249,0.946533,-1.037598,0.732422,10.681152
7801,0.036743,-0.105103,1.029663,-0.915527,-0.793457,7.934570
7810,0.024780,-0.113159,1.015869,-1.525879,-1.525879,5.737305
7820,-0.030762,-0.051636,0.977661,-1.770020,-2.014160,3.662109
7829,0.007324,-0.019775,0.999634,-2.014160,-2.502441,1.770020
7840,0.054565,-0.033325,1.031494,-2.136230,-2.868652,0.671387
7849,0.094604,0.016968,1.052979,-1.953125,-2.746582,0.854492
7860,0.111572,-0.019043,1.064209,-1.831055,-2.441406,1.647949
7869,0.087891,-0.207153,1.031738,-1.708984,-2.502441,2.929688
7880,0.052368,-0.249756,1.005493,-1.708984,-2.319336,2.807617
7890,0.040405,-0.239990,1.048828,-2.014160,-2.746582,1.953125
7899,0.022339,-0.276733,1.009399,-1.647949,-2.929688,1.037598
7910,0.016113,-0.312256,1.017456,-1.586914,-3.173828,0.427246
7919,-0.022583,-0.232056,1.057739,-2.197266,-3.295898,-0.366211
7929,-0.018921,-0.262939,1.071411,-2.685547,-3.051758,-0.366211
7941,-0.009766,-0.153687,1.007080,-3.234863,-2.746582,0.793457
7950,-0.036987,-0.093262,1.002197,-3.845215,-2.502441,1.586914
7960,-0.034058,-0.051147,1.007080,-4.211426,-2.441406,1.892090
7970,-0.055908,-0.105835,1.028809,-4.516602,-2.441406,1.770020
7979,-0.075195,-0.135620,1.004150,-4.882812,-2.502441,0.915527
7989,-0.093506,-0.122314,0.995117,-5.432129,-2.258301,-0.488281
7999,-0.073120,-0.023071,0.961060,-5.554199,-2.075195,-2.258301
8009,-0.093140,-0.007813,0.934326,-5.798340,-2.197266,-6.469727
8020,-0.024170,-0.020630,0.982178,-4.943848,-2.746582,-8.666992
8030,-0.034180,-0.069702,0.998291,-4.638672,-3.173828,-11.596680
8040,-0.015137,-0.014771,1.048828,-4.455566,-3.295898,-14.770508
8049,0.026855,0.066284,1.037720,-4.455566,-3.540039,-18.005371
8059,0.015137,0.081665,1.062500,-3.906250,-3.723145,-20.690918
8069,0.028809,0.125122,0.999634,-3.112793,-3.723145,-22.766113
8079,0.049194,0.083984,0.984863,-2.014160,-2.502441,-23.864746
8090,0.063110,0.063721,0.914551,-1.647949,-1.953125,-23.193359
8100,0.066772,-0.034790,0.890625,-1.831055,-1.525879,-22.399902
8109,0.091797,0.031738,0.886475,-2.075195,-1.831055,-21.789551
8119,0.114868,-0.026367,0.934814,-2.380371,-1.892090,-21.789551
8129,0.116211,-0.025146,0.953613,-2.685547,-1.708984,-21.667480
8139,0.100464,-0.105591,0.930298,-3.112793,-1.159668,-20.874023
8150,-0.002563,0.033936,0.973511,-3.845215,0.183105,-17.456055
8160,-0.065796,0.035889,1.013550,-4.272461,3.723145,-13.732910
8169,-0.027588,0.012573,0.986450,-3.356934,6.103516,-8.972168
8179,0.065308,-0.203979,0.853882,-2.990723,6.347656,-4.577637
8189,0.117676,-0.259521,0.794312,-3.234863,4.699707,-0.732422
8199,0.077148,-0.317139,0.732666,-3.845215,2.807617,2.258301
8209,0.082031,-0.346436,0.660767,-4.272461,2.197266,5.859375
8219,0.047974,-0.419189,0.758911,-3.845215,2.746582,11.779785
8229,-0.008057,-0.599365,0.566406,-3.479004,3.662109,14.770508
8239,-0.311157,-1.270996,-0.063599,-3.540039,5.554199,17.761230
8249,-0.613647,-2.845703,-2.431274,-3.234863,9.155273,21.423340
8259,-0.380737,-2.175415,-0.751709,-13.122559,16.052246,25.573730
8269,-0.311646,-2.786255,-2.145264,-28.991699,17.150879,26.916504
8279,-0.167480,-1.678223,-1.215942,-48.156738,13.793945,21.789551
8290,-0.216675,-0.259277,2.661255,-57.556152,9.155273,12.390137
8300,-0.272705,-0.062866,3.999512,-42.602539,5.615234,7.873535
8309,-0.077637,0.575439,3.999512,-32.226562,8.666992,6.958008
8319,-0.123291,0.287842,3.999512,-15.136719,12.207031,9.277344
8329,0.197510,-0.897949,2.606567,5.126953,15.869141,15.014648
8339,0.525513,-1.408936,1.695435,15.075684,17.578125,20.812988
8349,0.484253,-1.455322,1.352661,13.366699,12.756348,24.780273
8361,0.555664,-0.575684,1.609131,2.563477,2.014160,35.583496
8371,0.457275,-0.477417,1.930786,5.676270,-0.976562,38.208008
8380,0.365845,0.623047,3.437866,10.437012,-1.953125,38.452148
8389,0.018066,1.433105,3.631226,17.089844,-3.479004,34.790039
8398,-0.371582,2.577881,3.954102,28.625488,-5.920410,31.982422
8409,-1.276367,3.904297,3.999512,48.156738,-4.943848,28.991699
8419,-1.814819,3.999512,3.999512,71.350098,1.831055,20.935059
8429,-1.194580,3.999512,3.999512,93.688965,22.949219,31.005859
8440,0.928955,2.348389,1.675415,101.074219,37.597656,45.593262
8449,0.346313,1.821899,0.623169,106.506348,35.949707,45.837402
8459,0.154175,1.918823,0.347778,107.666016,28.991699,32.775879
8469,-0.399658,1.165894,-0.244873,106.445312,25.878906,26.611328
8480,-0.015747,0.339600,-0.546265,102.600098,25.634766,24.597168
8489,-0.080566,-0.246216,-0.513916,95.153809,27.709961,21.423340
8499,-0.379272,-0.351074,-0.299194,70.251465,25.573730,10.559082
8510,-0.258911,0.141602,-0.020264,68.420410,24.230957,5.615234
8519,0.100464,0.150757,0.021729,62.438965,22.399902,-0.915527
8529,0.463989,0.057251,0.170044,58.654785,17.944336,-8.056641
8539,0.682983,-0.063110,0.369751,55.725098,11.962891,-15.686035
8549,0.695190,-0.150269,0.529663,53.466797,6.103516,-21.850586
8559,0.411377,-0.240723,0.464111,50.964355,0.488281,-26.855469
8571,-0.020630,-0.245239,0.109741,44.860840,-6.408691,-34.667969
8581,-0.007813,-0.254517,0.045776,42.053223,-7.690430,-36.499023
8590,0.062744,-0.346924,-0.044434,39.428711,-7.446289,-35.827637
8600,0.146240,-0.529785,-0.080444,35.888672,-7.385254,-32.714844
8609,0.172729,-0.571289,-0.074829,30.944824,-8.178711,-28.869629
8618,0.114868,-0.632812,-0.177490,25.329590,-10.131836,-25.024414
8629,0.064819,-0.586182,-0.279541,19.592285,-11.840820,-20.935059
8640,0.026245,-0.644287,-0.310425,13.977051,-12.390137,-10.742188
8650,0.028564,-0.670410,-0.299072,2.319336,-11.779785,-6.286621
8659,0.024414,-0.686768,-0.285767,-3.356934,-11.535645,-1.342773
8669,0.029053,-0.700928,-0.238037,-9.277344,-10.986328,3.601074
8679,-0.003662,-0.688232,-0.223877,-14.892578,-10.620117,8.056641
8689,-0.031128,-0.700439,-0.159058,-20.141602,-9.704590,12.268066
8699,-0.039185,-0.761230,-0.164307,-25.634766,-9.094238,15.441895
8709,-0.069092,-0.743408,-0.186523,-36.804199,-7.019043,19.348145
8720,-0.107300,-0.714722,-0.281616,-42.602539,-5.615234,20.019531
8730,-0.077271,-0.715942,-0.315186,-47.973633,-4.821777,19.897461
8739,-0.083862,-0.730347,-0.349365,-53.283691,-3.784180,19.592285
8749,-0.047607,-0.687378,-0.395142,-59.326172,-2.563477,18.798828
8759,-0.018799,-0.714355,-0.430176,-65.429687,-1.831055,17.883301
8769,-0.025513,-0.697144,-0.481445,-71.655273,-1.220703,17.211914
8779,0.018677,-0.622314,-0.524048,-84.411621,-0.549316,14.770508
8788,-0.004395,-0.637085,-0.680054,-91.064453,-0.366211,13.366699
8799,-0.003418,-0.553711,-0.751221,-97.717285,-0.610352,12.084961
8809,-0.008057,-0.585571,-0.820679,-104.431152,-0.488281,10.375977
8819,-0.043335,-0.569580,-0.886230,-111.633301,-0.366211,8.422852
8829,-0.050903,-0.464478,-0.909668,-118.835449,0.122070,6.347656
8839,-0.020996,-0.403687,-0.949341,-125.671387,0.671387,4.516602
8851,-0.257568,3.253662,3.999512,-120.300293,2.868652,0.305176
8861,0.964355,-0.446899,3.999512,-59.997559,4.394531,9.704590
8870,-1.570557,-3.999512,-0.555054,-24.108887,4.577637,32.531738
8880,0.318970,-1.213501,2.036133,-72.448730,21.789551,33.630371
8889,0.769409,3.999512,2.730835,-108.093262,19.531250,21.667480
8898,-0.549927,3.999512,1.466675,-53.222656,3.051758,28.442383
8909,-0.069580,-3.208862,0.118530,5.493164,-9.521484,35.400391
8921,-1.547607,-0.085693,3.772461,-8.728027,-5.065918,22.399902
8931,0.057983,0.345581,3.146362,-6.103516,12.145996,39.245605
8940,-0.102661,0.151855,0.776245,-1.403809,23.864746,51.025391
8949,0.272217,0.278687,0.944580,10.314941,24.230957,52.978516
8958,0.429687,-1.362183,1.354980,15.686035,18.066406,53.405762
8969,-0.107666,-1.073120,1.210815,3.356934,4.211426,42.602539
8979,-0.274780,0.450928,1.095459,-14.221191,0.122070,33.142090
8989,0.453003,1.186401,1.377441,-1.037598,15.869141,48.095703
9000,0.297119,-0.614990,1.756592,12.939453,13.244629,49.499512
9009,0.009033,-0.596680,1.909668,13.305664,10.009766,48.095703
9018,0.042603,-0.012329,1.432251,7.629395,9.155273,48.767090
9029,0.361816,0.411743,1.005981,8.117676,8.666992,47.668457
9039,0.398315,0.129150,0.832275,17.150879,4.699707,45.410156
9049,0.294556,-0.372925,0.973755,25.939941,-1.525879,40.039062
9058,0.064087,-0.679810,1.107544,26.367187,-10.559082,29.479980
9070,0.111084,-0.061401,0.735596,16.601562,-9.765625,24.719238
9079,0.336792,0.053833,0.518921,15.930176,-8.483887,21.423340
9088,0.340088,-0.056641,0.562988,18.310547,-9.948730,17.883301
9099,0.243774,-0.241821,0.671265,19.409180,-12.573242,13.610840
9109,0.155762,-0.262085,0.749756,17.333984,-14.038086,10.131836
9119,0.163818,-0.282471,0.615967,13.916016,-13.610840,7.690430
9131,0.344482,-0.201904,0.384521,9.155273,-14.038086,1.098633
9140,0.175659,-0.238892,0.579590,8.605957,-16.540527,-3.845215
9150,0.089844,-0.361328,0.753540,8.361816,-18.310547,-8.239746
9159,0.096924,-0.488037,0.921387,6.652832,-18.554687,-11.840820
9169,0.105469,-0.362793,0.969116,3.601074,-18.432617,-14.953613
9179,0.128418,-0.147949,0.864990,1.708984,-18.920898,-18.371582
9189,0.129639,-0.066772,0.761719,2.197266,-19.592285,-21.057129
9201,0.073975,-0.361084,0.688110,3.356934,-19.348145,-21.240234
9210,0.001709,-0.312988,0.713135,1.403809,-18.493652,-21.301270
9224,-0.027710,-0.179077,0.771606,-0.854492,-17.761230,-21.301270
9234,-0.075317,-0.116577,0.884399,-2.319336,-14.892578,-19.592285
9243,-0.095825,-0.178223,0.828003,-2.502441,-14.160156,-18.432617
9253,-0.052124,-0.148926,1.018433,-2.441406,-13.671875,-17.517090
9263,-0.035889,-0.163696,1.010132,-2.807617,-13.549805,-16.357422
9272,-0.030151,-0.090942,1.085327,-3.356934,-13.000488,-15.136719
9282,-0.018921,-0.041138,1.057983,-3.356934,-12.512207,-13.183594
9291,-0.004150,-0.012695,1.058960,-2.746582,-11.474609,-10.864258
9301,0.057373,0.027588,1.116577,-1.892090,-10.498047,-8.850098
9310,0.005127,-0.071045,1.050415,-1.037598,-9.887695,-7.324219
9320,0.056274,-0.189331,1.010254,-1.037598,-9.338379,-6.469727
9329,0.049194,-0.220581,1.011475,-1.708984,-9.948730,-6.652832
9338,0.060303,-0.103149,1.009644,-2.441406,-10.803223,-8.911133
9350,0.008179,-0.093872,1.072510,-3.295898,-10.803223,-10.131836
9360,-0.006592,-0.146118,1.097046,-3.479004,-10.192871,-10.803223
9369,0.008301,-0.056641,1.117188,-4.272461,-9.338379,-10.925293
9379,0.026245,0.008911,1.124878,-4.394531,-8.789063,-10.742188
9389,0.020020,0.000000,1.050415,-3.906250,-8.361816,-10.437012
9399,0.015747,-0.025269,0.933350,-3.173828,-8.117676,-10.864258
9409,0.069946,-0.060181,0.967407,-2.746582,-10.009766,-14.770508
9420,0.115479,-0.073364,0.980835,-3.112793,-10.620117,-17.761230
9429,0.154663,-0.078979,0.929810,-3.479004,-11.169434,-20.812988
9439,0.111084,-0.039795,0.872192,-3.967285,-11.413574,-23.376465
9449,0.151001,-0.001953,0.925171,-4.028320,-11.718750,-25.390625
9459,0.131714,0.036743,0.974365,-4.394531,-11.657715,-27.160645
9469,0.167480,0.115479,1.011353,-4.516602,-11.901855,-28.625488
9481,0.105713,0.041748,0.950439,-4.333496,-12.023926,-30.517578
9490,0.041626,0.097656,0.948730,-4.821777,-12.084961,-31.433105
9499,0.031982,0.129272,1.031860,-4.821777,-11.962891,-32.287598
9509,0.019409,0.158691,0.997437,-4.638672,-11.474609,-33.020020
9519,0.048096,0.101440,1.006226,-4.272461,-11.169434,-33.142090
9529,0.048950,0.043091,0.998169,-4.455566,-10.803223,-33.081055
9539,0.009521,0.112305,1.008423,-4.577637,-10.131836,-32.714844
9550,-0.026245,0.411133,1.122925,-4.699707,-9.216309,-30.456543
9560,-0.046875,0.212036,1.030518,-0.976562,-7.507324,-28.991699
9569,-0.075317,-0.067627,0.926392,1.281738,-6.774902,-27.709961
9579,-0.048218,-0.187622,0.930176,1.464844,-6.286621,-25.939941
9589,-0.013672,-0.196167,0.969482,0.244141,-5.859375,-24.475098
9599,-0.006348,0.045898,1.004517,-0.915527,-5.249023,-22.827148
9609,-0.093384,0.137207,1.014648,-0.488281,-4.516602,-21.118164
9621,-0.127686,-0.094360,0.936646,0.976562,-1.892090,-18.432617
9630,-0.133301,-0.119873,0.991577,0.610352,-1.037598,-16.784668
9639,-0.132812,-0.045776,1.002808,-0.305176,-0.610352,-15.380859
9649,-0.101196,0.045898,0.995239,-0.610352,-0.122070,-13.854980
9659,-0.091064,0.081787,0.981079,-0.244141,0.854492,-11.413574
9669,-0.071655,0.045532,0.990967,0.549316,1.647949,-9.216309
9681,-0.101074,-0.010132,1.014160,0.671387,2.197266,-6.225586
9690,-0.101929,-0.086182,0.992310,0.671387,2.868652,-4.333496
9700,-0.089111,-0.047241,0.971069,0.549316,3.723145,-1.831055
9710,-0.077759,-0.051636,0.948608,0.366211,4.394531,0.549316
9719,-0.084229,-0.029419,0.957886,0.427246,4.760742,2.685547
9729,-0.082031,-0.046875,0.982910,0.488281,5.004883,4.211426
9739,-0.091187,-0.098755,0.995728,0.488281,5.004883,5.554199
9750,-0.091675,-0.053833,1.033813,-0.183105,4.882812,7.202148
9760,-0.091431,-0.033813,1.028687,-0.610352,4.699707,7.568359
9770,-0.077759,0.035522,1.070435,-0.610352,5.310059,8.239746
9779,-0.038696,0.050293,1.074219,-0.305176,5.371094,8.850098
9788,-0.030273,-0.026733,1.011108,-0.061035,5.249023,9.216309
9799,-0.027588,-0.040405,1.019287,0.305176,5.065918,9.826660
9809,-0.007568,-0.051758,1.013916,0.366211,4.821777,10.437012
9819,-0.008789,-0.060303,1.030396,0.061035,4.577637,10.986328
9830,-0.003662,-0.117432,0.987427,-0.183105,4.028320,11.718750
9840,-0.025024,-0.085571,0.917236,-0.854492,3.601074,12.145996
9849,-0.006104,-0.086182,0.900513,-0.671387,3.234863,12.634277
9860,0.010986,-0.199707,0.866821,-0.244141,2.746582,12.695313
9869,-0.015747,-0.223633,0.874634,-0.061035,2.380371,12.573242
9878,-0.014526,-0.278320,0.913330,-0.122070,1.831055,11.962891
9889,-0.048584,-0.351074,0.919067,-0.549316,1.342773,11.108398
9900,-0.090820,-0.300781,0.930542,-1.159668,1.037598,9.216309
9910,-0.107300,-0.269897,0.936279,-2.014160,0.488281,7.629395
9919,-0.104004,-0.240479,0.971191,-1.953125,0.610352,5.920410
9928,-0.083008,-0.291138,0.966187,-1.892090,0.793457,4.577637
9939,-0.088379,-0.245972,0.946655,-2.075195,0.915527,2.807617
9949,-0.053589,-0.194336,0.962646,-2.075195,0.854492,1.342773
9960,-0.053345,-0.232788,0.936890,-1.708984,0.549316,-1.403809
9970,-0.004150,-0.201660,0.892456,-1.892090,0.366211,-2.807617
9979,-0.013672,-0.205078,0.940674,-2.380371,-0.061035,-4.089355
9989,-0.015381,-0.216309,1.000000,-2.563477,-0.305176,-5.004883
9998,-0.003540,-0.177124,1.062256,-2.746582,-0.244141,-5.920410
10009,-0.003174,-0.195068,1.117554,-2.868652,-0.549316,-7.202148
10019,-0.010376,-0.206665,1.056152,-3.173828,-0.732422,-8.056641
10029,0.008545,-0.131714,1.027344,-3.479004,-0.793457,-9.155273
10039,0.005615,-0.083984,1.015503,-3.173828,-1.586914,-10.559082
10050,0.015869,-0.055786,0.958618,-2.807617,-1.281738,-10.253906
10060,0.021851,-0.098633,1.022339,-2.624512,-0.915527,-9.765625
10069,0.010498,-0.096924,1.017456,-2.685547,-0.732422,-8.850098
10079,-0.002441,-0.051392,1.002563,-2.807617,-0.305176,-8.178711
10089,0.025269,-0.065063,1.049561,-2.685547,0.000000,-7.629395
10099,0.016602,-0.081909,1.024048,-2.685547,-0.122070,-7.263184
10109,0.038452,-0.068481,1.029053,-2.746582,0.000000,-6.835937
10120,0.039429,0.101440,1.061768,-2.502441,-0.427246,-6.591797
10129,0.056030,0.070068,1.072510,-2.136230,-0.854492,-6.469727
10139,0.025391,-0.016968,1.041260,-1.403809,-0.976562,-6.042480
10149,0.004028,0.046509,1.025879,-0.915527,-0.915527,-5.676270
10159,0.007202,0.093994,1.082153,-0.061035,-1.098633,-5.065918
10169,0.018799,0.026123,1.025879,0.427246,-0.915527,-4.028320
10181,0.038452,-0.041626,1.002197,0.305176,-0.854492,-2.136230
10190,-0.002930,0.004639,0.977295,-0.122070,-0.976562,-0.915527
10200,-0.024658,-0.007080,0.952759,-0.122070,-1.098633,0.305176
10209,-0.035889,0.074951,0.962158,-0.366211,-0.488281,1.586914
10219,-0.051514,0.280029,1.124878,-0.671387,-0.183105,3.051758
10229,-0.105835,0.161133,1.080933,0.122070,-0.122070,4.577637
10239,-0.154907,-0.016113,0.862793,1.342773,-0.244141,5.554199
10250,-0.081055,0.046143,0.978271,0.915527,0.366211,8.605957
10260,-0.091919,0.217285,1.054443,-2.014160,1.098633,10.375977
10269,-0.153564,0.253784,1.083862,-1.342773,1.403809,12.084961
10280,-0.194824,0.101685,1.018311,-0.427246,2.380371,13.854980
10289,-0.145996,0.025757,1.018921,-0.122070,3.540039,15.441895
10299,-0.133301,0.125122,1.085327,-1.403809,3.723145,16.540527
10309,-0.194214,0.192627,1.107788,-2.197266,3.662109,17.150879
10320,-0.211792,0.230957,1.099854,-2.014160,4.211426,17.272949
10330,-0.223755,0.138794,1.079712,-0.671387,5.310059,16.357422
10339,-0.275146,0.170532,1.071899,-0.854492,5.432129,14.648438
10349,-0.344238,0.199707,1.091919,-1.220703,5.920410,12.756348
10359,-0.415039,0.313843,1.092163,-1.159668,6.896973,10.925293
10369,-0.433105,0.295288,1.016113,-0.244141,8.056641,8.972168
10379,-0.454590,0.219727,0.926758,1.098633,8.911133,6.652832
10391,0.148315,-0.215942,0.969238,2.014160,10.864258,2.502441
10400,0.716675,-0.333740,0.868530,1.220703,10.253906,2.136230
10409,0.362793,-0.379150,1.142212,0.366211,3.295898,3.112793
10419,-0.153564,-0.249268,0.902222,1.464844,-3.601074,1.220703
10429,-0.131958,-0.140015,0.415161,4.089355,-3.112793,-0.366211
10439,0.409058,-0.466064,0.688843,6.713867,2.685547,4.394531
10449,0.713379,-0.794922,1.231445,7.629395,7.507324,10.375977
10461,-0.171387,-0.990601,0.931152,6.591797,5.920410,7.873535
10470,-0.182373,-0.754150,0.845947,2.563477,7.629395,5.554199
10479,-0.219238,-0.622192,1.041260,2.380371,8.239746,1.098633
10489,-0.276001,-0.617432,1.116821,2.746582,6.958008,-6.164551
10499,-0.373169,-0.708740,1.059204,3.051758,5.493164,-13.366699
10509,-0.458862,-0.742920,0.961182,2.990723,4.455566,-19.775391
10520,-0.416260,-0.533569,0.837891,3.417969,4.211426,-29.174805
10530,-0.230957,-0.458008,0.875122,4.028320,4.760742,-31.372070
10540,0.033203,-0.489136,0.884521,4.211426,5.554199,-32.409668
10550,0.035645,-0.496216,0.894165,2.746582,6.225586,-33.508301
10559,0.000244,-0.424683,0.870361,1.586914,5.981445,-35.339355
10569,-0.100098,-0.304199,0.971191,1.220703,5.981445,-37.475586
10579,-0.122925,-0.317383,0.901733,1.770020,6.347656,-39.245605
10591,-0.082642,-0.366943,0.899536,1.892090,8.483887,-39.489746
10600,0.073975,-0.343506,1.020508,0.610352,10.009766,-37.841797
10609,0.179687,-0.249512,0.945801,-0.244141,11.657715,-34.118652
10619,0.238892,-0.276367,0.882324,-0.732422,13.244629,-28.930664
10629,0.285034,-0.243164,0.906616,-0.915527,14.221191,-23.193359
10639,0.328125,-0.343628,0.961182,-0.610352,14.648438,-17.700195
10649,0.383057,-0.345337,1.057495,-0.671387,15.075684,-12.634277
10659,0.376587,-0.312012,1.039917,-1.647949,14.892578,-8.544922
10670,0.288086,-0.138062,0.975952,-1.831055,13.916016,-3.356934
10680,0.294312,-0.262817,0.916138,-0.061035,11.474609,-0.793457
10689,0.294067,-0.170654,1.041992,-0.122070,10.375977,1.708984
10700,0.301025,-0.081665,0.987305,-0.671387,9.216309,3.784180
10709,0.253906,0.036011,0.951904,-1.098633,8.117676,6.469727
10720,0.232178,0.071289,0.999512,-1.281738,7.690430,9.643555
10731,0.266846,-0.031128,0.929687,-1.098633,7.202148,15.563965
10740,0.183716,-0.006714,1.027344,-1.464844,5.798340,16.845703
10749,0.201416,-0.065430,1.113892,-2.380371,4.272461,17.089844
10759,0.208618,0.044189,1.222412,-3.417969,3.295898,17.028809
10769,0.187012,0.051636,1.127075,-4.089355,2.441406,16.845703
10780,0.176636,0.079224,1.050049,-4.760742,0.671387,16.357422
10789,0.169678,0.187500,1.148438,-4.943848,-1.037598,15.869141
10800,0.148560,0.165283,1.077026,-4.638672,-3.479004,16.723633
10810,0.127075,0.094971,1.151733,-5.004883,-3.906250,17.639160
10820,0.109375,0.224976,1.086548,-5.249023,-4.333496,18.493652
10830,0.164062,0.187256,1.060059,-5.065918,-4.943848,18.981934
10839,0.118408,0.073975,1.047485,-4.394531,-5.249023,18.920898
10849,0.062622,0.127686,1.000732,-4.028320,-6.103516,18.249512
10859,0.041504,0.168091,1.043091,-3.723145,-6.652832,16.601562
10871,0.079224,0.120117,1.089233,-2.014160,-8.666992,12.023926
10880,0.076782,-0.069702,0.928223,-1.098633,-9.399414,9.399414
10890,0.108154,-0.084595,1.075806,-1.037598,-10.131836,7.263184
10899,0.105835,0.025879,1.015869,-1.159668,-11.291504,5.004883
10910,0.082275,0.003662,0.971558,-1.098633,-12.268066,2.807617
10919,0.132202,-0.001587,0.919800,-1.037598,-12.695313,1.342773
10929,0.095093,0.027954,0.873413,-0.732422,-12.756348,-0.061035
10940,0.088989,-0.049561,0.914062,-0.183105,-12.878418,-3.051758
10950,0.093140,-0.090942,0.987061,-0.061035,-13.244629,-3.723145
10960,0.102417,-0.129272,0.974487,-0.122070,-13.488770,-4.394531
10969,0.150757,-0.098999,0.951172,-0.122070,-14.038086,-4.882812
10979,0.104370,-0.170654,0.912476,-0.061035,-14.770508,-5.249023
10990,0.111938,-0.165161,0.957520,0.366211,-15.258789,-5.798340
10999,0.107544,-0.245850,1.012329,0.488281,-15.380859,-6.103516
11011,0.138306,-0.288330,0.950073,0.305176,-16.540527,-6.896973
11020,0.168701,-0.277588,0.895874,0.427246,-17.089844,-6.958008
11030,0.085449,-0.262695,0.877686,0.000000,-17.761230,-6.774902
11040,0.080444,-0.308960,0.966919,0.122070,-18.005371,-6.530762
11050,0.046753,-0.388794,0.993896,-0.305176,-18.310547,-6.164551
11059,0.061768,-0.374390,1.007813,-0.549316,-18.676758,-6.042480
11070,0.018311,-0.386597,0.973999,-0.671387,-19.165039,-5.859375
11080,0.008057,-0.390259,0.980347,-0.793457,-18.981934,-5.798340
11089,-0.019897,-0.358521,0.966187,-1.525879,-19.165039,-5.981445
11099,0.036621,-0.318237,0.992676,-1.098633,-19.470215,-6.103516
11110,0.046265,-0.351563,0.900146,-0.061035,-19.531250,-6.652832
11119,0.005615,-0.354492,0.930054,0.732422,-19.714355,-7.141113
11130,0.082397,-0.486084,0.984741,1.281738,-19.165039,-7.385254
11139,0.100464,-0.478394,0.996704,1.281738,-19.226074,-7.568359
11152,0.032959,-0.442993,0.924927,0.610352,-21.362305,-8.361816
11161,0.023560,-0.479980,0.917725,0.366211,-22.583008,-9.033203
11171,0.050171,-0.432373,0.908813,-0.305176,-22.094727,-9.216309
11180,0.111328,-0.367065,0.897949,-0.915527,-21.667480,-8.728027
11190,0.032715,-0.349731,0.874023,-1.464844,-21.606445,-8.422852
11200,-0.054687,-0.356079,0.936523,-1.831055,-21.545410,-8.483887
11210,-0.016846,-0.404663,0.998413,-1.953125,-21.179199,-8.239746
11219,-0.004883,-0.320313,1.010742,-1.892090,-21.118164,-8.239746
11229,-0.086670,-0.406982,0.855347,-1.892090,-21.728516,-8.850098
11239,-0.273804,-0.540405,0.727051,-2.197266,-20.507812,-9.094238
11250,-0.244263,-0.530151,0.753662,-2.685547,-18.798828,-9.399414
11259,-0.200195,-0.464355,0.872192,-3.784180,-16.967773,-10.253906
11269,-0.218262,-0.498047,0.962769,-4.516602,-15.563965,-11.352539
11279,-0.195801,-0.407471,1.045288,-5.187988,-14.892578,-12.756348
11289,-0.273682,-0.314331,1.042725,-5.126953,-14.709473,-14.587402
11301,-0.341187,-0.192627,0.934326,-3.967285,-14.648438,-19.531250
11310,-0.347290,-0.269165,0.894409,-3.540039,-13.244629,-21.789551
11320,-0.245728,-0.168823,1.006714,-3.295898,-11.535645,-23.803711
11330,-0.203003,-0.215210,0.965210,-2.868652,-10.253906,-25.634766
11339,-0.286255,-0.106812,0.993774,-2.563477,-9.094238,-26.672363
11349,-0.291992,-0.067749,1.010864,-2.441406,-8.239746,-27.526855
11359,-0.307129,-0.032104,1.054810,-2.502441,-6.896973,-28.259277
11370,-0.391724,-0.015747,0.973389,-2.075195,-3.967285,-30.395508
11380,-0.365601,0.011597,1.045532,-1.098633,-1.708984,-31.188965
11390,-0.367188,0.044800,0.995117,-1.037598,0.244141,-32.104492
11400,-0.327026,0.060425,1.069336,-0.671387,1.464844,-33.935547
11409,-0.368652,0.038452,1.109253,-0.488281,2.258301,-35.888672
11420,-0.305054,0.026367,1.068848,-0.366211,3.234863,-37.841797
11430,-0.275879,0.132080,1.052734,-0.610352,5.249023,-40.466309
11440,-0.286499,0.256104,1.009399,-1.281738,7.141113,-40.405273
11450,-0.222412,0.256226,0.984253,-1.281738,9.277344,-38.818359
11460,-0.222656,0.439331,1.088257,-1.159668,11.352539,-36.804199
11469,-0.273193,0.250366,0.951538,-0.854492,13.122559,-34.118652
11479,-0.260498,0.371948,1.029175,-0.427246,15.380859,-31.005859
11489,-0.270752,0.305298,0.977661,0.366211,17.150879,-27.404785
11499,-0.241943,0.347290,0.982300,0.976562,19.165039,-24.047852
11510,-0.335693,0.177368,0.902832,1.708984,21.728516,-16.784668
11520,-0.277344,0.132202,0.946533,1.953125,23.071289,-13.000488
11530,-0.146851,0.080444,0.975098,2.014160,23.864746,-9.338379
11539,-0.215820,0.050537,1.050781,1.770020,23.986816,-6.774902
11550,-0.226807,0.019653,0.922729,1.586914,23.986816,-4.089355
11559,-0.181396,0.050781,0.893799,1.220703,25.207520,-0.061035
11572,0.018555,-0.094116,0.896729,2.380371,27.343750,6.286621
11581,-0.038696,-0.127686,0.861450,2.807617,27.343750,7.751465
11591,-0.053223,-0.208008,0.854980,2.929688,26.977539,8.728027
11600,-0.055298,-0.128296,0.962036,3.051758,26.489258,8.361816
11610,-0.096924,-0.276733,0.971924,3.723145,25.817871,6.958008
11619,-0.138062,-0.272461,1.000488,3.906250,25.024414,4.699707
11630,-0.123169,-0.408813,0.903687,3.967285,24.414062,2.258301
11639,-0.085937,-0.396240,0.966431,3.295898,24.169922,-2.075195
11649,-0.085327,-0.430542,0.911377,1.708984,24.169922,-3.662109
11660,-0.077515,-0.247803,0.850952,1.770020,24.475098,-4.394531
11670,0.010986,-0.312012,0.831665,2.197266,25.207520,-4.089355
11679,0.023193,-0.454956,0.810547,2.624512,25.146484,-3.417969
11689,-0.035767,-0.432617,0.865234,2.075195,24.841309,-3.417969
11699,-0.098633,-0.357056,0.863770,1.159668,24.902344,-3.723145
11712,-0.011719,-0.376221,1.004883,0.366211,25.085449,-4.516602
11722,-0.003784,-0.245483,1.105469,1.159668,25.390625,-4.455566
11731,0.010376,-0.492676,0.924805,2.014160,24.841309,-4.089355
11741,0.031982,-0.367065,0.971069,1.586914,24.780273,-2.990723
11750,0.066528,-0.499146,0.909058,1.159668,25.146484,-1.342773
11760,0.076782,-0.424927,0.941772,0.488281,25.390625,0.122070
11769,0.091187,-0.313477,0.947876,0.671387,25.085449,1.953125
11782,0.163696,-0.473389,0.979736,1.831055,24.108887,5.920410
11791,0.145020,-0.523804,1.046509,1.708984,23.132324,7.324219
11801,0.091797,-0.401733,1.071655,1.403809,22.277832,8.422852
11810,0.142334,-0.421021,1.003052,1.647949,21.545410,10.009766
11819,0.193848,-0.583740,0.940796,1.831055,20.996094,11.535645
11830,0.250977,-0.494873,0.984497,1.281738,19.775391,12.268066
11839,0.315674,-0.435181,1.006836,0.488281,17.883301,13.122559
11851,0.395752,-0.616943,0.964966,-1.098633,13.366699,14.404297
11860,0.449585,-0.372070,0.976562,-1.708984,11.230469,14.892578
11870,0.527466,-0.179321,1.047852,-1.953125,9.277344,15.563965
11879,0.502075,-0.172363,1.071899,-1.647949,7.080078,16.174316
11889,0.499023,-0.197388,1.008423,-1.342773,4.211426,16.418457
11899,0.395996,-0.213257,0.887695,-0.976562,1.525879,15.930176
11910,0.337036,-0.232056,0.888184,-0.793457,-0.854492,15.014648
11919,0.299316,-0.076416,0.988892,-1.159668,-2.990723,13.244629
11931,0.290649,0.093750,1.189819,-2.380371,-6.469727,7.873535
11940,0.244263,0.072144,1.203369,-2.746582,-7.385254,5.493164
11950,0.257690,0.147339,1.193848,-2.868652,-7.568359,3.845215
11959,0.286621,0.206665,1.159424,-3.051758,-7.873535,2.746582
11970,0.226440,0.174561,1.091309,-2.319336,-8.483887,1.831055
11979,0.230835,0.189697,1.004639,-1.831055,-9.460449,0.671387
11991,0.197388,0.228271,0.976318,-1.342773,-11.779785,-3.112793
12000,0.124146,0.022949,0.924316,-2.014160,-12.817383,-5.554199
12010,0.072388,0.240967,1.071045,-2.685547,-13.305664,-7.690430
12019,-0.000854,0.086182,1.057007,-3.234863,-13.305664,-9.155273
12030,-0.039063,0.052734,0.886475,-3.173828,-12.634277,-10.009766
12040,-0.077637,0.329834,0.936523,-2.868652,-11.718750,-10.253906
12049,-0.039917,0.252197,0.932739,-2.075195,-10.620117,-9.582520
12062,-0.048218,0.043823,0.979492,-2.136230,-8.178711,-7.141113
12071,-0.033325,0.062622,1.127441,-3.295898,-7.324219,-5.798340
12081,-0.039917,0.013306,1.115356,-4.516602,-6.896973,-4.394531
12091,-0.027832,0.160034,1.151978,-4.882812,-6.469727,-3.051758
12100,0.034912,0.206055,1.193848,-4.333496,-5.981445,-1.525879
12110,-0.003662,0.119019,1.084473,-2.807617,-5.798340,0.549316
12119,0.028687,0.070435,1.025269,-1.464844,-6.103516,2.075195
12132,0.076538,0.067139,0.886475,-0.122070,-6.042480,5.737305
12141,0.133179,-0.177490,0.838013,0.305176,-6.103516,7.812500
12151,0.236572,-0.222656,0.761719,-0.488281,-6.896973,9.643555
12160,0.232056,-0.090210,0.879395,-1.159668,-8.239746,11.657715
12170,0.215942,-0.282349,0.861938,-1.892090,-9.643555,13.793945
12179,0.234497,-0.108154,1.005737,-2.502441,-10.314941,16.723633
12190,0.170776,-0.148193,0.982544,-2.746582,-11.108398,19.775391
12200,0.139404,-0.163940,0.958496,-2.441406,-11.962891,25.512695
12209,0.111938,-0.131592,0.921631,-1.953125,-12.390137,27.587891
12220,0.136963,-0.377075,0.789429,-1.892090,-13.427734,28.137207
12229,0.068481,-0.415039,0.708252,-2.136230,-15.075684,27.770996
12240,0.057861,-0.411255,0.736084,-3.051758,-17.028809,26.672363
12249,0.085449,-0.332764,0.856445,-3.601074,-18.676758,25.207520
12260,0.062622,-0.394043,0.849854,-4.028320,-20.751953,23.742676
12269,0.023071,-0.435547,0.909180,-4.394531,-22.583008,21.118164
12281,0.067749,-0.367188,1.127808,-4.516602,-24.353027,20.263672
12290,0.020386,-0.392456,1.040894,-3.601074,-25.146484,19.592285
12300,-0.040405,-0.338745,0.994141,-2.502441,-26.367187,18.188477
12309,-0.120483,-0.445435,0.893677,-1.464844,-26.977539,16.052246
12320,-0.225586,-0.603882,0.840210,-1.647949,-27.526855,13.122559
12330,-0.336304,-0.488647,0.931152,-2.014160,-27.587891,9.216309
12339,-0.317139,-0.365601,1.138916,-1.953125,-27.404785,0.610352
12351,-0.165405,-0.396240,1.046509,0.000000,-26.367187,-2.807617
12360,-0.248535,-0.452515,1.008789,1.220703,-25.939941,-6.164551
12370,-0.284546,-0.559570,0.929687,1.892090,-25.512695,-9.155273
12379,-0.320068,-0.567749,0.806519,1.831055,-24.475098,-12.390137
12390,-0.444336,-0.529785,0.815796,0.549316,-22.705078,-15.502930
12400,-0.549194,-0.388062,0.923218,-1.098633,-20.324707,-18.310547
12409,-0.491211,-0.181519,1.019775,-2.685547,-14.770508,-22.705078
12419,-0.545654,-0.128418,1.062256,-2.990723,-12.207031,-24.169922
12430,-0.517700,-0.043701,1.037964,-2.014160,-9.338379,-25.695801
12440,-0.538696,-0.107910,1.077881,-1.037598,-6.042480,-26.123047
12450,-0.527710,-0.066650,1.177979,-0.732422,-3.662109,-26.062012
12460,-0.486816,0.068848,1.187134,-0.732422,-2.563477,-26.062012
12470,-0.493530,0.163940,1.133301,-0.732422,-1.647949,-25.756836
12480,-0.473267,0.227173,1.144897,-0.488281,3.295898,-22.155762
12490,-0.402100,0.216553,1.018677,0.488281,5.615234,-19.592285
12500,-0.353882,0.134155,0.954590,1.403809,7.446289,-17.333984
12510,-0.298584,0.021362,0.847168,1.770020,9.155273,-14.953613
12520,-0.133667,0.063843,0.918213,1.953125,10.070801,-12.451172
12530,-0.064697,0.104004,0.985229,2.014160,10.009766,-10.131836
12540,0.018066,0.012451,1.021729,2.136230,9.277344,-8.178711
12552,0.086060,-0.351929,0.670532,1.708984,8.300781,-3.845215
12562,0.145630,0.043579,1.145874,-0.610352,9.216309,-0.854492
12571,0.143066,0.018921,1.045532,-0.732422,10.253906,2.136230
12581,0.263794,0.138916,1.154419,0.305176,9.948730,2.746582
12590,0.081055,-0.169556,0.760864,2.136230,8.544922,2.929688
12600,0.067627,-0.511719,0.535278,3.173828,6.958008,1.953125
12610,0.070068,-0.524536,0.661377,-0.122070,6.530762,-0.671387
12621,-0.058105,0.121826,1.148926,-4.394531,6.408691,-5.554199
12631,0.004150,0.073853,1.107788,-4.333496,4.150391,-9.643555
12640,0.032959,-0.170776,0.984131,-2.380371,2.685547,-13.122559
12650,0.183228,-0.235840,0.998413,-2.075195,1.953125,-15.991211
12660,0.118042,-0.094360,1.105103,-2.868652,1.159668,-18.249512
12670,0.044922,0.031738,1.105103,-3.234863,0.549316,-20.141602
12680,0.062256,0.090942,1.052734,-2.319336,0.610352,-21.606445
12691,0.081299,-0.097534,1.047852,-1.220703,0.610352,-23.193359
12701,0.135620,-0.069336,1.101929,-1.586914,1.037598,-24.047852
12711,0.159058,-0.000977,1.087524,-2.014160,1.220703,-24.658203
12720,0.117065,0.007446,0.980469,-1.403809,1.159668,-25.451660
12730,0.128052,-0.016235,0.915161,-0.244141,0.793457,-26.611328
12740,0.045776,-0.118286,0.905640,0.915527,0.427246,-27.648926
12750,0.033813,-0.111084,0.994995,0.793457,0.610352,-28.564453
12760,-0.000122,-0.091675,1.059326,-1.220703,2.014160,-29.113770
12771,0.011719,0.021973,1.091797,-1.647949,2.624512,-28.198242
12781,0.065308,0.003418,1.019531,-0.976562,3.601074,-26.550293
12790,0.093140,-0.022949,1.040039,0.122070,4.455566,-23.986816
12800,0.086914,-0.042236,0.936035,1.220703,5.004883,-21.545410
12810,0.042114,-0.018799,0.880981,2.014160,5.432129,-19.348145
12820,0.024536,0.003540,0.856323,2.014160,5.554199,-17.517090
12830,-0.018433,0.055908,0.913086,1.403809,6.408691,-14.221191
12841,-0.052002,-0.137451,1.038452,0.976562,7.080078,-12.512207
12851,-0.092529,-0.072266,1.079102,0.671387,7.568359,-10.864258
12861,-0.027954,-0.047241,1.119507,0.732422,8.422852,-9.704590
12871,0.006836,0.070679,1.104736,1.403809,9.155273,-8.605957
12880,0.026489,0.104980,1.073242,2.929688,9.094238,-8.361816
12890,-0.013550,0.004395,1.055908,4.577637,8.422852,-8.361816
12902,0.025146,-0.251099,0.979126,4.760742,8.300781,-7.202148
12912,0.049316,-0.246460,0.939209,3.479004,8.056641,-6.652832
12921,0.036621,-0.171875,0.948853,2.746582,8.239746,-6.042480
12931,0.059082,-0.073730,0.978882,2.380371,8.178711,-5.126953
12940,0.071655,-0.097168,0.999512,2.746582,8.422852,-4.699707
12951,0.042358,-0.058472,1.129761,2.929688,8.117676,-4.882812
12960,-0.045410,-0.015991,1.202881,2.685547,7.324219,-5.371094
12970,-0.048706,0.030273,1.207764,3.479004,6.591797,-6.469727
12981,-0.064575,-0.077393,0.927612,4.882812,6.835937,-5.798340
12991,-0.030640,-0.404541,0.613770,5.493164,7.263184,-5.004883
13001,0.027466,-0.754395,0.279785,4.150391,7.934570,-3.662109
13010,0.091553,-0.390747,0.764282,-0.610352,8.850098,-2.014160
13020,0.092773,0.239136,1.390381,-4.638672,8.850098,-0.671387
13030,-0.018921,0.440186,1.587402,-3.967285,7.202148,0.183105
13040,-0.178589,0.316528,1.383789,4.577637,6.713867,3.417969
13051,-0.060669,-0.438721,0.732544,6.225586,9.277344,7.080078
13061,0.041748,-0.453003,0.773071,3.173828,11.230469,9.277344
13070,-0.058838,-0.298706,0.692261,-1.037598,9.887695,9.277344
13080,-0.014526,0.043579,0.673706,-4.394531,8.422852,8.300781
13090,-0.014893,0.293579,0.830811,-4.821777,7.568359,6.958008
13100,0.034790,0.191650,1.008057,-2.319336,6.530762,5.615234
13110,-0.056152,-0.056885,1.160034,-0.061035,4.943848,3.723145
13121,-0.134277,-0.204224,1.135742,-1.403809,5.981445,3.967285
13131,-0.144775,-0.114136,0.967041,-2.075195,7.507324,4.272461
13140,-0.121582,0.008423,0.908813,-1.586914,7.995605,4.272461
13151,-0.094116,-0.017212,0.920166,-0.610352,7.568359,3.295898
13160,-0.066895,-0.183228,0.927002,-0.610352,7.019043,2.075195
13171,-0.035156,-0.219849,0.918945,-4.089355,5.920410,-1.403809
13181,-0.060181,0.077393,0.924072,-4.760742,5.432129,-2.441406
13191,-0.060181,0.120483,0.904541,-3.967285,5.493164,-2.990723
13200,0.012207,-0.006226,0.970459,-2.502441,6.164551,-2.563477
13210,0.047363,-0.118408,1.087158,-2.380371,6.713867,-1.892090
13220,0.020264,-0.115601,1.123291,-3.356934,6.713867,-1.037598
13230,0.023560,0.026733,1.155640,-4.333496,6.652832,-0.244141
13240,-0.000244,0.087158,1.107910,-4.394531,6.591797,1.037598
13251,-0.015381,0.171875,1.146851,-3.601074,6.896973,5.187988
13261,-0.048218,0.212891,1.178711,-2.746582,7.629395,7.934570
13271,-0.041504,0.371704,1.163330,-1.831055,8.056641,10.925293
13280,-0.028809,0.240723,0.981689,0.915527,8.422852,13.610840
13290,-0.017456,-0.203857,0.831421,4.150391,8.483887,15.991211
13300,-0.060181,-0.438232,0.855225,4.211426,7.690430,17.333984
13310,-0.078003,-0.483154,0.998657,0.610352,7.202148,17.822266
13322,-0.032227,0.113892,1.036255,-7.202148,6.164551,15.747070
13331,0.004395,0.310303,0.873291,-5.737305,4.882812,13.305664
13341,-0.031738,0.335083,0.820557,-1.831055,3.967285,11.901855
13350,0.019775,0.091431,0.965454,1.098633,2.929688,10.986328
13361,-0.058350,-0.261963,1.061646,1.525879,2.075195,9.399414
13370,-0.082886,-0.330078,1.022705,0.183105,1.770020,8.728027
13380,-0.066162,-0.061523,0.962036,-1.220703,2.014160,8.972168
13392,0.040527,-0.066528,0.863892,-0.610352,2.380371,8.850098
13401,0.017212,-0.140137,0.939819,-0.244141,1.647949,7.324219
13411,-0.036133,-0.248779,1.019043,-1.220703,0.915527,5.310059
13420,-0.068726,-0.199219,0.979492,-2.807617,0.061035,2.685547
13430,-0.054687,0.006348,0.992920,-3.295898,-0.244141,-0.366211
13440,-0.064331,-0.011108,0.969238,-2.197266,-0.610352,-2.258301
13450,0.018311,-0.130371,0.923828,-0.671387,-0.976562,-3.540039
13460,0.056030,-0.134766,1.029907,0.305176,-1.037598,-4.516602
13471,0.063843,-0.152832,1.021851,-0.183105,-0.732422,-4.699707
13480,0.046387,-0.136475,0.933228,-0.244141,-0.671387,-4.638672
13490,0.013916,-0.132080,0.865356,0.549316,-0.549316,-4.577637
13501,0.038574,-0.124023,0.982300,0.366211,-0.427246,-4.455566
13510,0.043457,-0.159302,1.114624,0.183105,-0.244141,-4.699707
13521,0.021118,-0.190918,1.117432,-0.183105,-0.732422,-5.737305
13531,0.007568,-0.164673,0.988403,0.061035,-0.976562,-5.920410
13541,0.035034,-0.112793,1.019287,0.183105,-1.159668,-6.286621
13551,0.024536,-0.110718,1.071899,-0.427246,-1.403809,-6.408691
13560,0.047363,-0.188110,1.068481,-1.220703,-1.342773,-6.103516
13570,0.077637,-0.239014,0.959229,-2.075195,-1.403809,-5.920410
13580,0.049438,-0.125122,0.910645,-2.624512,-1.098633,-5.737305
13592,0.088135,0.020264,0.993774,-2.075195,-1.525879,-5.432129
13601,0.046631,-0.178833,1.023560,-2.258301,-1.647949,-5.737305
13610,0.049072,-0.186401,1.028442,-2.624512,-1.647949,-5.859375
13620,0.036377,0.013306,1.071533,-2.929688,-1.342773,-6.164551
13631,0.013428,0.131592,1.076904,-2.197266,-1.281738,-6.286621
13640,-0.016357,0.115479,1.062256,-0.793457,-1.098633,-6.225586
13650,-0.026978,0.035522,1.030273,0.610352,-0.793457,-5.859375
13662,-0.005981,-0.096313,1.002075,0.610352,0.061035,-4.638672
13671,0.001587,-0.121460,0.947266,-0.366211,0.549316,-4.211426
13681,-0.005493,0.019165,0.931641,-0.549316,0.549316,-3.601074
13691,-0.055664,0.059937,0.957764,0.000000,0.671387,-3.112793
13700,-0.057373,-0.019897,0.992920,0.366211,0.549316,-2.746582
13710,-0.085327,-0.130859,0.961548,0.305176,0.793457,-2.319336
13720,-0.107788,-0.120117,0.947754,0.122070,1.464844,-1.708984
13730,-0.083618,-0.015625,0.934937,-0.244141,1.586914,-1.342773
13742,-0.047363,-0.100586,0.945557,-0.366211,2.075195,-1.647949
13752,-0.010010,-0.181763,0.956909,0.244141,2.380371,-1.770020
13761,0.002930,-0.095581,1.070435,0.183105,2.075195,-2.136230
13770,-0.033325,0.015503,1.109253,0.122070,2.014160,-2.502441
13781,0.001709,0.043091,1.122192,0.671387,2.136230,-2.258301
13790,-0.010254,-0.104126,1.040527,1.586914,2.807617,-1.464844
13800,0.043579,-0.249878,0.993896,1.525879,2.868652,-0.854492
13812,0.028931,-0.161499,0.947144,1.098633,2.868652,0.610352
13821,0.044312,-0.007690,0.950317,-0.854492,3.051758,1.525879
13830,0.068726,-0.139648,0.881958,-1.831055,2.990723,2.563477
13841,0.029541,-0.276733,0.790894,-2.563477,3.173828,3.784180
13850,0.036255,-0.095703,0.894653,-3.173828,2.929688,4.455566
13861,0.066406,0.037964,1.041382,-3.356934,2.258301,4.760742
13870,0.055542,-0.062500,0.989990,-3.417969,1.953125,4.943848
13882,0.000610,-0.064209,0.921143,-2.258301,1.159668,4.150391
13892,0.019409,-0.069458,1.028442,-1.586914,0.732422,3.234863
13901,-0.009155,-0.161377,1.013672,-1.586914,0.061035,2.014160
13911,-0.012329,-0.210205,1.010376,-2.258301,-0.244141,0.793457
13920,-0.019897,-0.162476,0.996094,-2.685547,-0.549316,-0.244141
13930,0.005981,-0.052612,0.993164,-2.807617,-0.549316,-1.281738
13940,-0.000488,0.034668,1.018066,-2.746582,-0.732422,-1.525879
13952,0.036255,-0.034058,1.074341,-2.807617,-0.549316,-1.953125
13961,-0.018066,-0.159302,0.984253,-2.380371,-0.671387,-2.136230
13970,-0.013184,-0.041260,0.939087,-1.892090,-0.610352,-1.953125
13980,0.003906,0.100464,0.997559,-1.098633,-0.366211,-1.770020
13991,0.038818,-0.014282,1.012451,-0.610352,-0.122070,-1.403809
14001,0.054443,-0.271729,0.981445,-0.976562,0.000000,-1.220703
14010,0.077637,-0.274414,0.961182,-2.014160,-0.488281,-1.525879
14022,0.092896,0.095581,1.078979,-3.112793,-1.525879,-3.356934
14031,0.096680,-0.025391,1.034546,-2.441406,-2.014160,-4.211426
14041,0.092163,-0.152832,0.996826,-2.075195,-2.441406,-5.249023
14050,0.075806,-0.151855,1.031982,-2.258301,-2.380371,-5.920410
14061,0.077271,-0.022095,1.080933,-2.624512,-2.868652,-6.591797
14071,0.084839,0.022705,1.111938,-2.685547,-3.173828,-7.080078
14080,0.052979,-0.028687,1.049683,-2.380371,-3.295898,-7.263184
14092,0.023926,0.010132,1.048340,-2.502441,-3.051758,-7.690430
14102,-0.016479,0.117188,1.072998,-2.563477,-2.929688,-7.629395
14111,0.000732,0.115723,1.035645,-1.464844,-2.380371,-7.507324
14121,-0.043457,0.075928,0.999512,-0.488281,-2.197266,-7.324219
14131,-0.062500,0.077026,0.972046,0.244141,-2.136230,-7.141113
14141,-0.074219,0.067505,1.020020,1.037598,-1.525879,-6.835937
14151,-0.098267,0.000610,1.038208,2.441406,-0.244141,-5.371094
14160,-0.152832,-0.075562,0.902710,2.380371,0.732422,-4.455566
14171,-0.103271,-0.010620,0.962524,1.647949,1.647949,-2.868652
14180,-0.125977,-0.204834,0.863037,0.976562,2.380371,-1.342773
14191,-0.125122,-0.061890,0.958496,0.244141,2.868652,-0.061035
14200,-0.170288,0.088257,1.094604,-0.305176,3.234863,1.281738
14211,-0.238037,-0.033081,1.029419,-0.610352,4.028320,2.807617
14221,-0.310669,-0.082886,0.995850,-0.732422,7.995605,6.958008
14230,-0.411743,0.122437,0.967041,-0.427246,10.559082,10.192871
14241,-0.388306,-0.236450,0.792603,-0.366211,12.634277,13.977051
14250,-0.290283,-0.175049,0.774414,-0.854492,13.610840,17.333984
14261,-0.117065,-0.002563,0.952148,-1.647949,13.061523,19.714355
14271,0.004883,-0.257324,0.866455,-2.746582,10.864258,20.751953
14280,-0.059937,-0.162720,0.874023,-3.479004,8.666992,20.996094
14292,0.006470,0.001465,0.969971,-1.770020,9.948730,24.902344
14301,-0.017822,-0.262695,0.888916,-0.732422,10.986328,26.611328
14311,0.001343,-0.359131,0.939087,0.122070,12.084961,29.235840
14320,0.022095,-0.603882,0.822021,0.183105,12.329102,30.822754
14331,0.069824,-0.595581,0.772949,-0.305176,10.986328,31.005859
14340,0.114990,-0.496948,0.743774,-0.793457,9.155273,30.090332
14351,0.224487,-0.616089,0.619995,-1.342773,6.835937,28.869629
14360,0.345703,-0.769287,0.665283,-1.708984,3.540039,26.428223
14372,0.180298,-3.172363,-2.346191,-0.061035,-5.065918,20.568848
14382,0.375244,-2.431030,-0.067993,-8.117676,-5.676270,18.554687
14391,0.070801,-3.020142,-1.430420,-27.770996,-8.178711,14.770508
14401,0.089966,-1.387329,-1.192871,-50.781250,-10.375977,7.690430
14411,-0.002686,0.332397,0.811768,-62.561035,-6.958008,8.422852
14421,0.114990,0.631104,2.965820,-52.001953,-7.507324,8.666992
14430,-0.116211,-0.073853,3.999512,-35.156250,-7.995605,6.225586
14442,0.041260,-0.019409,3.999512,-8.178711,-7.995605,2.990723
14452,0.075806,-1.433472,1.591675,7.202148,-10.498047,-0.854492
14462,0.416260,-1.372314,1.146240,12.207031,-13.244629,-5.249023
14471,0.456543,-1.317261,0.630127,9.826660,-19.775391,-9.521484
14481,0.526733,-1.284912,1.167236,5.554199,-24.597168,-11.230469
14491,0.658813,-0.607788,1.857056,1.342773,-24.536133,-9.765625
14503,0.223145,1.767334,3.705688,6.652832,-19.104004,-8.300781
14513,0.026001,2.425171,3.724609,19.348145,-17.822266,-10.803223
14522,-0.510986,3.459351,3.999512,39.062500,-20.568848,-17.456055
14531,-1.256226,3.999512,3.999512,61.706543,-15.930176,-26.672363
14541,-1.718872,3.984253,3.999512,80.627441,-8.361816,-24.780273
14551,-0.364624,3.612183,3.316284,86.303711,3.417969,-14.221191
14560,0.229370,2.700562,1.857788,91.735840,17.639160,0.549316
14573,0.368286,1.882568,0.813599,102.661133,21.911621,16.540527
14582,-0.053467,1.182983,-0.063965,101.196289,16.662598,14.831543
14592,0.119019,0.417603,-0.526855,95.825195,13.488770,12.207031
14601,0.183716,0.120239,-0.471558,87.524414,11.840820,10.070801
14611,0.046631,-0.022949,-0.260986,78.674316,9.521484,9.765625
14620,0.091675,0.054321,0.051392,69.824219,8.483887,8.544922
14631,-0.265137,0.171509,0.032715,61.218262,7.324219,6.347656
14643,-0.186523,0.372437,-0.036499,50.231934,6.408691,-3.723145
14653,0.095215,0.244629,0.228149,48.156738,7.324219,-6.530762
14662,0.114014,-0.012207,0.483154,47.119141,8.666992,-7.202148
14672,0.211182,-0.266968,0.524292,44.982910,8.361816,-7.751465
14681,0.235352,-0.246948,0.437256,41.442871,7.812500,-9.094238
14691,0.129883,-0.153198,0.240234,37.414551,6.713867,-9.887695
14700,0.147095,-0.014526,0.172241,34.545898,5.920410,-10.559082
14713,0.143311,-0.437256,0.037109,31.372070,3.417969,-10.314941
14722,0.116577,-0.706543,-0.013062,28.076172,1.953125,-10.864258
14732,0.066406,-0.849121,-0.065796,22.644043,0.366211,-11.840820
14742,-0.085571,-0.829590,-0.205811,16.174316,-0.732422,-13.183594
14752,-0.140137,-0.823364,-0.316284,9.948730,-1.403809,-14.770508
14761,-0.166260,-0.796997,-0.331299,4.211426,-1.403809,-15.441895
14771,-0.172241,-0.822876,-0.295410,-0.610352,-0.976562,-15.869141
14781,-0.151245,-0.816650,-0.274292,-11.291504,0.183105,-14.648438
14791,-0.150879,-0.764893,-0.288574,-16.723633,1.220703,-13.244629
14801,-0.154297,-0.741455,-0.286743,-21.667480,2.258301,-11.596680
14811,-0.104492,-0.793823,-0.270264,-26.611328,3.112793,-9.826660
14821,-0.110596,-0.841797,-0.251221,-31.372070,3.845215,-7.812500
14831,-0.098267,-0.866577,-0.250366,-36.743164,4.577637,-5.981445
14840,-0.058105,-0.866089,-0.323730,-42.541504,5.249023,-4.150391
14850,-0.035645,-0.830933,-0.356323,-48.583984,5.676270,-0.793457
14862,0.040649,-0.798584,-0.344971,-59.448242,5.798340,0.122070
14872,0.056763,-0.772461,-0.351563,-65.246582,5.187988,1.037598
14881,0.125977,-0.780396,-0.367432,-70.800781,4.760742,1.159668
14891,0.131226,-0.696655,-0.415161,-76.843262,4.028320,0.671387
14902,0.165894,-0.598511,-0.502686,-82.763672,2.929688,-0.488281
14911,0.208496,-0.610718,-0.571167,-88.684082,1.403809,-1.831055
14921,0.251953,-0.590332,-0.636963,-100.158691,-3.417969,-5.981445
14930,0.322144,-0.603394,-0.735229,-107.055664,-6.225586,-8.728027
14941,0.333984,-0.484619,-0.984009,-114.501953,-9.704590,-12.573242
14950,0.303711,-0.453491,-1.066895,-122.009277,-12.695313,-17.028809
14961,-0.177368,2.963013,3.994995,-123.901367,-13.977051,-21.911621
14971,-0.076660,3.112183,3.999512,-76.843262,-15.686035,-18.188477
14981,-0.676270,-3.999512,0.829468,-26.245117,-18.493652,-9.338379
14992,0.245239,3.999512,1.868164,-50.476074,-5.371094,-11.169434
15002,0.903442,3.999512,2.157593,-75.988770,4.028320,-6.347656
15011,-0.320190,-0.376587,-1.409302,-11.718750,-13.000488,-15.258789
15021,-0.379639,-0.078003,3.999512,3.173828,-14.221191,-12.634277
15031,0.050537,0.603882,3.999512,-17.395020,-7.629395,-12.817383
15042,-0.348511,-0.290283,2.522949,-10.314941,-9.765625,-16.357422
15051,-0.048950,-0.388428,0.657837,-9.338379,0.366211,-15.014648
15061,-0.609741,1.415161,1.478760,11.108398,2.502441,-7.873535
15071,0.281982,-1.447754,1.344971,15.747070,-3.906250,-10.314941
15081,0.086182,-1.206177,1.197754,0.305176,-5.004883,-11.047363
15091,0.095703,0.753052,1.121338,-16.479492,-2.014160,-8.850098
15101,0.200073,1.256836,1.345215,-13.427734,1.342773,-5.310059
15112,-0.149780,0.152222,1.394897,4.577637,1.098633,-4.882812
15121,-0.103271,-0.501099,2.073120,14.587402,2.014160,-6.835937
15132,0.158325,0.139526,1.427124,13.732910,3.784180,-8.605957
15142,0.221436,0.626953,0.967285,9.826660,3.295898,-10.437012
15152,0.111328,0.261108,0.862671,20.446777,1.159668,-12.084961
15161,0.195312,-0.270630,1.008179,29.296875,-0.122070,-12.207031
15171,0.300171,-0.543335,1.163452,28.259277,-0.061035,-12.207031
15182,0.275146,-0.255737,0.959106,21.972656,-0.793457,-12.634277
15191,0.268921,0.204956,0.569824,18.005371,-1.037598,-13.366699
15203,0.230835,0.092651,0.373413,19.409180,-1.098633,-8.544922
15212,0.234497,-0.337280,0.540405,25.390625,-0.793457,-7.080078
15222,0.280640,-0.292114,0.974854,21.789551,-1.159668,-7.507324
15231,0.194458,-0.070190,0.992920,17.395020,-2.380371,-7.751465
15242,0.137451,0.006714,0.660645,15.380859,-3.845215,-7.263184
15251,0.010376,-0.245117,0.199463,15.197754,-4.272461,-6.530762
15261,-0.079346,-0.483032,0.034302,13.488770,-3.845215,-6.347656
15273,0.047119,-0.184326,0.796021,9.338379,-3.112793,-5.981445
15282,0.129761,-0.052856,0.952271,3.173828,-4.821777,-5.493164
15292,0.138184,-0.084351,0.744141,2.868652,-6.286621,-4.760742
15301,0.032837,-0.214233,0.442871,2.258301,-6.835937,-2.929688
15312,0.038086,-0.264648,0.376099,0.610352,-5.737305,-0.549316
15321,0.001343,-0.116821,0.633179,-1.831055,-4.211426,1.708984
15331,0.001831,-0.015137,0.940063,-2.929688,-3.723145,3.234863
15342,-0.130249,-0.214600,1.031250,-2.685547,-3.295898,3.723145
15352,-0.151978,-0.241699,0.958374,-1.831055,-2.685547,3.051758
15362,-0.157593,-0.368164,0.925049,-2.685547,-2.197266,1.525879
15371,-0.174683,-0.370605,0.869385,-3.906250,-2.258301,-0.366211
15381,-0.122437,-0.229858,0.842285,-5.126953,-2.441406,-1.586914
15391,-0.129028,-0.301147,0.724609,-6.042480,-2.624512,-2.624512
15401,-0.109863,-0.363037,0.714355,-7.751465,-3.112793,-2.807617
15413,-0.202515,0.057129,0.995972,-9.887695,-2.929688,-1.770020
15422,-0.190918,0.156494,1.170044,-11.657715,-1.647949,-0.366211
15432,-0.180542,0.177734,1.354492,-10.498047,-0.671387,1.525879
15441,-0.199829,0.212646,1.417603,-8.789063,0.854492,2.929688
15451,-0.166748,0.156128,1.357910,-7.019043,1.708984,3.601074
15462,-0.125854,0.067993,1.269653,-5.676270,2.075195,3.906250
15471,-0.154175,0.194702,1.313232,-4.150391,2.502441,3.479004
15483,-0.124268,-0.142944,1.173462,-2.075195,2.502441,0.854492
15492,-0.099243,-0.318970,1.062256,-0.549316,1.770020,-1.525879
15502,-0.021484,-0.213745,1.010254,-1.647949,1.159668,-3.601074
15511,-0.035645,-0.036865,0.989258,-2.929688,0.732422,-5.187988
15521,0.036743,0.075195,1.047852,-4.150391,0.793457,-6.530762
15531,0.030640,-0.004883,0.995483,-4.333496,0.793457,-7.629395
15541,-0.009521,-0.227783,0.951782,-3.417969,0.671387,-8.605957
15551,0.034424,0.325806,0.972290,-2.624512,1.220703,-10.681152
15563,-0.001831,0.186646,0.925049,0.061035,1.159668,-12.023926
15572,0.035400,-0.135132,0.850830,2.319336,0.915527,-13.793945
15581,-0.020874,-0.276855,0.886353,2.624512,0.549316,-15.502930
15591,0.003174,-0.129517,0.992920,1.159668,0.732422,-16.723633
15602,0.046753,0.099487,1.064941,-0.488281,0.854492,-17.700195
15611,0.067261,0.091797,0.969849,-0.671387,1.037598,-18.127441
15623,0.111084,0.180298,0.893677,0.488281,1.647949,-15.869141
15632,0.115112,-0.101318,0.972290,2.563477,3.051758,-14.099121
15641,0.092896,-0.256348,0.948975,1.281738,3.356934,-12.084961
15651,0.049072,0.028564,0.990112,-0.183105,3.479004,-9.826660
15662,0.001099,0.139893,0.964233,-0.427246,3.845215,-7.507324
15671,0.007324,0.118408,0.936523,0.305176,4.760742,-5.554199
15683,0.014648,0.015869,1.005371,1.464844,5.065918,-2.136230
15692,-0.044556,-0.030640,1.128418,0.976562,5.126953,-1.098633
15703,-0.051636,0.000244,1.127075,0.976562,5.371094,0.427246
15712,-0.033081,-0.232178,0.951294,1.098633,5.310059,2.014160
15721,-0.034546,-0.113770,0.984497,1.098633,5.493164,3.601074
15731,0.032593,-0.041382,1.104004,0.854492,5.798340,5.004883
15741,-0.012573,-0.251099,0.982422,0.122070,6.042480,6.591797
15751,0.003784,-0.114136,0.974854,-0.610352,5.859375,7.751465
15762,0.004883,-0.210327,0.957031,-1.220703,5.798340,8.972168
15772,-0.012939,-0.082397,1.046753,-1.220703,5.004883,9.277344
15782,0.035889,0.061279,1.178467,-1.281738,4.577637,9.277344
15791,0.002930,-0.205444,1.018555,-1.342773,3.967285,8.789063
15802,-0.034180,-0.071167,0.958130,-1.464844,3.417969,8.422852
15811,0.017822,0.207031,1.140381,-0.976562,3.112793,7.873535
15821,-0.024414,-0.119873,0.981323,0.061035,2.929688,7.080078
15832,-0.091431,-0.055542,1.019897,0.427246,2.319336,5.859375
15842,-0.074585,-0.143799,0.942749,-0.610352,1.831055,4.333496
15851,-0.114624,-0.147217,0.882202,-1.037598,2.075195,3.601074
15861,-0.068237,0.039185,0.987061,-1.281738,2.441406,2.685547
15872,-0.089844,-0.011841,1.022095,-1.098633,2.807617,2.136230
15881,-0.093140,-0.170654,0.932129,-0.732422,3.112793,1.159668
15891,-0.110107,-0.040771,1.042114,-0.366211,3.356934,-0.183105
15903,-0.085693,-0.217896,0.951416,0.000000,3.173828,-3.784180
15912,-0.066040,-0.021240,1.005859,0.488281,3.234863,-5.432129
15922,-0.008789,-0.082764,1.049561,0.915527,3.051758,-6.835937
15932,-0.062256,-0.297607,0.856323,1.037598,2.990723,-8.056641
15941,-0.046631,-0.119141,0.932251,0.488281,2.929688,-8.911133
15951,0.030640,-0.140747,1.045044,0.305176,3.479004,-9.033203
15963,0.005493,-0.229980,0.972534,-0.183105,4.089355,-8.422852
15972,0.048218,0.104736,1.156860,0.366211,4.577637,-7.690430
15982,0.001343,-0.178467,0.981445,1.037598,4.760742,-6.408691
15992,-0.006470,-0.162842,0.837402,1.220703,5.432129,-4.577637
16001,0.001221,0.014160,0.982788,0.732422,6.225586,-2.319336
16012,-0.022339,-0.270020,0.843506,0.061035,6.835937,0.488281
16021,-0.037231,-0.004028,0.904175,-0.976562,7.690430,3.784180
16033,0.029053,0.056641,0.986938,-1.403809,8.361816,11.047363
16042,0.010376,-0.071411,0.901855,-1.892090,8.544922,14.221191
16052,0.026855,-0.068726,1.055786,-2.502441,8.728027,16.845703
16062,-0.035400,-0.169922,0.958740,-3.234863,8.483887,18.554687
16071,0.005859,0.018799,1.060303,-3.601074,8.361816,19.714355
16082,0.006592,0.069946,1.070435,-3.173828,7.690430,20.141602
16091,-0.030029,-0.194458,0.901855,-2.319336,6.713867,20.080566
16102,-0.040405,-0.100098,1.013672,-2.014160,4.821777,17.333984
16112,-0.042114,-0.213745,0.975830,-2.563477,3.784180,15.319824
16123,-0.011353,-0.044556,0.993652,-3.051758,3.356934,13.366699
16132,0.045166,0.014526,1.089111,-2.502441,2.685547,11.779785
16141,0.014526,-0.297119,0.973145,-1.770020,2.258301,10.375977
16151,0.019409,-0.185791,1.005737,-1.586914,1.892090,9.277344
16162,0.028564,-0.038940,1.146362,-1.831055,1.403809,7.934570
16171,-0.033569,-0.212402,1.062012,-2.258301,0.915527,6.469727
16183,-0.018555,0.059204,1.012207,-2.380371,0.732422,3.479004
16192,0.010132,-0.226929,0.857056,-2.197266,0.427246,2.197266
16202,-0.020020,-0.337769,0.795288,-2.685547,0.427246,0.915527
16211,0.043823,-0.048340,0.991821,-4.150391,0.122070,0.122070
16222,0.017822,-0.095947,0.923096,-5.249023,-0.122070,-0.183105
16231,0.046631,0.079834,0.997803,-5.676270,0.183105,0.244141
16243,0.060181,0.091431,0.992920,-4.272461,0.549316,1.770020
16252,-0.015747,-0.026245,1.093384,-3.662109,0.488281,2.319336
16262,-0.004517,-0.068237,0.996948,-2.868652,0.549316,3.234863
16271,0.043823,-0.162476,0.979370,-3.356934,0.854492,4.028320
16281,0.092407,-0.154663,0.970581,-4.394531,0.915527,4.333496
16292,-0.018677,0.098145,1.007080,-4.638672,0.610352,4.882812
16302,0.033813,0.022827,0.908203,-4.821777,0.488281,5.676270
16311,0.007935,0.052368,1.005371,-4.760742,0.732422,6.469727
16323,0.001709,0.041382,1.034302,-2.136230,0.061035,7.202148
16332,-0.012451,-0.129150,0.981445,-1.342773,0.000000,7.080078
16342,-0.007935,-0.011597,1.003174,-1.403809,-0.183105,7.873535
16351,0.041626,0.041870,1.123291,-1.159668,-0.366211,8.117676
16362,0.003296,-0.040283,1.018799,-0.854492,-0.427246,7.690430
16371,-0.001587,0.051147,1.081421,-0.122070,-0.549316,8.056641
16381,-0.011230,0.091064,1.115479,0.854492,-0.793457,8.544922
16393,-0.035156,-0.191040,0.970947,1.220703,-0.854492,7.812500
16402,0.002930,0.092407,1.107300,0.122070,-0.854492,7.812500
16412,-0.009399,-0.058838,1.000854,0.000000,-0.915527,7.629395
16421,-0.025513,-0.126831,0.862549,0.244141,-0.854492,7.690430
16432,-0.011719,-0.038086,1.010986,0.366211,-1.342773,8.056641
16441,-0.005005,-0.171387,0.936646,0.122070,-1.586914,8.056641
16451,-0.003906,-0.016235,1.035645,-0.610352,-1.953125,7.202148
16463,0.011841,-0.223145,0.944824,-0.610352,-2.197266,6.042480
16472,0.001343,-0.085327,0.962280,-0.610352,-2.624512,5.065918
16482,0.038086,-0.015137,1.107788,-0.488281,-2.990723,3.967285
16491,0.007202,-0.189209,0.948608,-0.854492,-3.173828,3.051758
16501,0.022461,0.141602,1.071655,-1.098633,-3.234863,1.770020
16512,0.071655,0.190308,1.118408,-0.122070,-3.906250,0.366211
16524,0.003052,0.040283,1.034180,3.112793,-4.760742,-1.831055
16533,0.082520,-0.054443,1.124512,3.723145,-5.004883,-3.173828
16543,0.068726,-0.271484,0.892578,3.845215,-4.821777,-3.845215
16552,0.072998,-0.189697,0.955566,3.601074,-4.760742,-4.394531
16562,0.050659,-0.214478,0.972290,2.441406,-5.004883,-5.249023
16571,0.019531,-0.158325,0.872559,1.342773,-4.882812,-5.859375
16582,-0.015503,-0.210937,0.908447,0.366211,-4.516602,-5.981445
16591,0.071899,0.032104,0.939819,-0.671387,-4.394531,-6.408691
16601,0.035034,0.118774,0.988403,0.854492,-4.882812,-6.896973
16612,0.065796,0.066284,0.887695,1.708984,-4.943848,-7.080078
16621,0.016968,-0.175903,0.999634,1.770020,-5.126953,-7.507324
16632,0.002686,-0.215820,0.981445,0.915527,-4.882812,-7.507324
16641,0.017822,-0.214478,0.925171,-0.427246,-4.638672,-7.873535
16651,0.002319,-0.007568,0.996582,-0.793457,-3.845215,-8.178711
16663,0.033813,-0.127563,0.908203,-0.183105,-3.112793,-9.460449
16672,0.005615,-0.169556,1.073486,-0.244141,-2.807617,-9.887695
16682,-0.034302,-0.461426,0.865234,-1.159668,-2.685547,-10.314941
16692,-0.006592,-0.164551,0.972290,-2.868652,-2.502441,-10.375977
16701,0.027344,-0.060425,1.058960,-4.150391,-2.319336,-9.643555
16712,-0.010742,0.014160,0.974487,-4.516602,-1.892090,-8.605957
16721,0.028198,0.194458,1.123901,-3.479004,-1.464844,-7.507324
16733,-0.013672,-0.066284,1.064453,-1.647949,-0.305176,-5.859375
16742,-0.049438,0.046997,1.119019,-1.098633,0.000000,-5.493164
16752,-0.029907,-0.259399,0.959961,-0.915527,0.122070,-5.065918
16761,-0.082397,-0.158691,0.886230,-1.220703,0.549316,-4.333496
16771,0.006592,0.015625,1.025391,-1.159668,0.854492,-3.906250
16782,-0.046021,-0.243896,0.895874,-1.403809,1.037598,-2.990723
16791,0.022217,-0.052490,1.006958,-2.197266,1.770020,-1.403809
16803,-0.002686,0.004028,1.066650,-2.807617,2.258301,1.098633
16812,-0.043579,-0.005737,1.090088,-2.746582,2.685547,2.075195
16821,0.011353,-0.062866,1.053467,-2.441406,2.929688,2.624512
16831,-0.063721,-0.137085,0.947998,-2.441406,2.807617,2.441406
16842,-0.015015,0.114502,1.061035,-2.319336,2.685547,1.953125
16851,-0.033691,-0.069092,0.979248,-2.136230,2.258301,1.464844
16862,-0.041626,-0.144897,0.904419,-1.892090,2.136230,1.098633
16874,0.018433,-0.149170,0.922974,-1.770020,2.075195,1.281738
16883,0.011230,0.032227,0.964600,-2.258301,2.197266,1.708984
16893,0.071289,0.073486,1.015747,-2.258301,2.075195,2.624512
16902,0.038452,-0.133179,0.871338,-1.708984,2.319336,3.845215
16911,0.021729,-0.017456,1.061768,-1.586914,2.380371,4.882812
16922,0.050537,-0.181152,1.002319,-1.342773,2.441406,5.493164
16931,0.010132,-0.177002,0.950195,-1.586914,2.014160,5.493164
16943,0.031250,0.054199,1.061523,-2.441406,1.220703,5.310059
16952,0.007568,-0.013550,0.904175,-2.197266,1.098633,4.638672
16961,-0.005859,-0.080811,1.011597,-2.258301,0.854492,4.333496
16971,-0.009277,-0.091309,0.972778,-2.136230,0.732422,3.967285
16981,0.000732,0.000610,1.044678,-1.647949,0.610352,3.845215
16992,0.002441,-0.112305,0.956421,-1.586914,0.122070,3.784180
17001,-0.015747,0.039795,0.988525,-1.281738,0.122070,3.112793
17013,0.034546,-0.008179,1.084839,-0.122070,0.061035,2.075195
17022,-0.022583,-0.060425,1.013306,-0.305176,0.061035,1.647949
17032,-0.045532,-0.206177,0.946655,-0.610352,-0.183105,1.098633
17041,-0.049683,-0.163208,0.929687,-1.403809,0.061035,0.549316
17051,-0.009644,-0.016113,1.075317,-2.380371,0.061035,0.488281
17062,-0.024780,-0.160034,0.931274,-2.441406,0.427246,0.488281
17072,-0.026001,0.050537,1.019409,-2.563477,0.732422,0.610352
17081,0.000366,-0.058960,1.020386,-2.014160,0.976562,0.732422
17093,0.002686,0.089722,1.109009,-1.953125,0.732422,-0.183105
17102,-0.010132,-0.211426,0.924072,-1.037598,0.549316,-0.427246
17112,-0.023193,-0.085327,0.971436,-1.037598,0.610352,-0.488281
17122,-0.008911,-0.195679,0.944458,-1.525879,0.732422,-0.366211
17131,-0.041016,-0.186401,0.888306,-2.441406,1.220703,-0.061035
17142,0.012207,-0.047241,1.006958,-3.723145,1.098633,0.427246
17151,-0.013062,-0.088989,0.922363,-4.394531,1.586914,1.159668
17161,0.044678,0.068115,1.088623,-3.967285,1.586914,2.075195
17172,0.028198,-0.058594,1.057129,-3.112793,1.342773,2.258301
17182,0.003540,0.117554,1.178955,-2.746582,1.525879,2.319336
17191,-0.004639,-0.096069,1.005737,-2.014160,1.281738,2.563477
17202,0.008057,0.028809,0.996216,-1.647949,1.159668,2.685547
17211,0.030029,-0.010010,0.985840,-1.220703,1.098633,2.807617
17224,0.052246,0.009033,0.964722,-1.586914,0.915527,2.563477
17233,0.056152,-0.135132,0.900024,-1.892090,0.976562,2.990723
17243,0.017578,-0.064331,0.937134,-2.258301,0.732422,3.295898
17252,0.018555,-0.104980,0.985352,-2.502441,0.549316,3.417969
17262,0.000244,-0.005615,1.005981,-2.380371,0.427246,3.723145
17272,0.028564,0.050537,1.047119,-1.953125,0.610352,4.150391
17281,0.013306,-0.078247,0.955200,-1.464844,0.122070,4.394531
17291,0.028442,0.026245,0.998535,-1.281738,0.061035,4.577637
17302,0.016724,-0.067017,0.971558,-0.854492,-0.671387,4.211426
17312,0.084351,-0.101196,1.043091,-0.549316,-0.976562,3.662109
17322,0.018555,-0.296631,0.929810,-0.549316,-1.220703,3.356934
17332,0.021484,-0.113647,1.105835,-0.915527,-1.770020,2.868652
17341,0.026978,-0.242065,1.096924,-1.159668,-1.892090,2.380371
17352,-0.004150,-0.175903,1.024414,-1.342773,-1.708984,2.624512
17361,0.063477,0.047974,1.137817,-1.281738,-1.770020,2.624512
17373,0.109619,-0.113647,1.013672,-1.220703,-2.502441,2.319336
17382,0.091553,-0.235107,0.964111,-1.647949,-3.173828,1.831055
17392,0.043701,-0.120239,0.985107,-2.441406,-3.662109,1.525879
17401,-0.015991,-0.097290,0.949951,-2.990723,-4.028320,1.403809
17412,-0.021851,-0.131348,0.924316,-3.234863,-3.479004,1.037598
17421,-0.037720,0.012207,1.011719,-3.295898,-3.234863,1.159668
17434,-0.011108,-0.038574,1.041016,-3.051758,-3.234863,2.014160
17443,-0.001953,-0.072754,1.021973,-2.929688,-3.173828,2.441406
17453,0.004639,-0.035278,0.983887,-2.563477,-3.234863,3.173828
17462,-0.002197,0.085571,1.020752,-2.380371,-3.540039,3.906250
17472,0.023193,0.071899,1.072021,-1.953125,-3.784180,5.187988
17482,-0.033203,-0.137329,0.870239,-1.647949,-3.906250,6.103516
17492,-0.036743,0.118774,1.039551,-2.197266,-3.417969,7.080078
17501,-0.090942,-0.026123,0.944702,-2.746582,-2.746582,8.239746
17513,-0.050049,0.098877,1.030640,-3.051758,-2.990723,8.300781
17522,-0.042358,-0.006348,0.969238,-2.563477,-3.723145,7.690430
17531,-0.060913,0.043457,0.966187,-2.563477,-4.516602,6.164551
17542,-0.061768,0.008423,0.967285,-2.319336,-4.943848,5.126953
17551,-0.150269,0.008911,0.977905,-1.770020,-4.638672,4.333496
17562,-0.163208,-0.032471,0.904297,-1.586914,-3.356934,4.455566
17572,-0.140625,-0.008057,0.928467,-1.403809,-2.136230,7.019043
17583,0.056641,-0.188721,0.939575,-0.732422,-1.831055,8.239746
17592,0.128540,-0.315552,0.811157,-0.976562,-2.868652,8.972168
17602,0.031128,-0.388550,0.675293,-2.136230,-3.662109,9.155273
17611,0.043701,-0.218750,0.834839,-3.601074,-3.234863,9.277344
17621,0.007935,-0.255859,0.822998,-4.455566,-3.051758,8.728027
17632,-0.084351,-0.298584,0.898926,-4.150391,-3.540039,7.080078
17641,-0.088379,-0.289917,0.892944,-3.234863,-3.906250,5.798340
17653,0.021484,-0.563965,0.527100,-2.136230,-3.906250,7.812500
17662,0.005249,-0.723755,0.308960,-2.929688,-3.601074,10.498047
17672,-0.025391,-1.279785,-0.456909,-3.417969,-3.295898,12.878418
17681,-0.045410,-3.299805,-2.553101,-3.601074,-3.601074,14.099121
17692,-0.036987,-2.516235,-0.585083,-17.089844,-2.807617,9.765625
17702,-0.130493,-2.498413,-1.547974,-36.560059,-6.774902,5.004883
17711,0.279663,-0.717651,-0.453369,-57.067871,-9.033203,-3.601074
17723,0.131714,0.875122,3.999512,-44.738770,-12.817383,-6.164551
17733,0.156616,0.191406,3.999512,-26.367187,-12.145996,-5.798340
17742,0.140259,0.259521,3.999512,-9.033203,-10.620117,-4.150391
17751,0.333374,-1.197266,2.694336,8.911133,-10.192871,-2.624512
17761,0.300781,-1.791382,1.167480,17.517090,-8.544922,-1.403809
17772,0.341064,-1.629028,0.358643,11.352539,-8.544922,-3.662109
17782,0.154663,-1.533813,0.743286,3.601074,-16.540527,-15.441895
17791,-0.039185,-1.298584,1.338623,-0.732422,-17.211914,-20.263672
17802,-0.309204,-0.604736,2.182739,0.671387,-14.770508,-23.864746
17811,-0.270264,0.493408,2.894409,4.150391,-9.155273,-25.146484
17822,-0.472412,1.500977,3.290649,11.169434,-3.906250,-23.986816
17831,-1.009888,2.070313,3.538818,27.709961,-5.065918,-23.437500
17842,-1.443604,3.206787,3.999512,46.813965,-5.676270,-33.386230
17852,-1.481323,3.787842,3.999512,66.467285,5.676270,-34.484863
17863,1.028564,3.999512,3.626587,86.853027,18.676758,-16.540527
17873,1.663208,3.072632,2.498047,103.027344,26.916504,7.812500
17882,1.030396,1.993652,1.548096,117.126465,19.653320,14.099121
17891,0.191650,1.551514,0.691650,121.948242,8.972168,7.202148
17902,-0.270996,1.466553,0.148682,117.797852,5.798340,4.211426
17911,-0.082764,0.855225,-0.571655,111.450195,7.629395,5.004883
17924,0.020752,0.240845,-0.244263,98.815918,10.314941,-0.793457
17934,-0.025635,0.000122,-0.005615,91.979980,8.422852,-4.516602
17943,0.065552,-0.054565,-0.063965,82.519531,6.225586,-8.239746
17952,0.040894,0.130859,-0.280273,73.242187,2.624512,-14.282227
17962,0.100464,0.221191,-0.294800,67.077637,-0.671387,-21.240234
17971,0.230713,0.204590,-0.077881,64.453125,-2.990723,-24.597168
17982,0.210937,-0.041138,0.177124,63.232422,-4.150391,-24.658203
17992,0.113525,-0.402100,0.223022,60.729980,-6.530762,-23.925781
18003,0.042236,-0.437500,-0.005249,49.682617,-7.446289,-24.414062
18013,-0.057007,-0.424316,-0.107666,45.104980,-8.056641,-24.230957
18022,0.008179,-0.488770,-0.141357,41.870117,-7.995605,-23.620605
18032,0.011597,-0.701172,-0.095825,38.879395,-8.056641,-22.033691
18041,0.027344,-0.872314,-0.074829,34.240723,-8.239746,-21.423340
18052,-0.045654,-0.933228,-0.177734,27.465820,-8.728027,-21.057129
18062,-0.108276,-0.832397,-0.351440,13.977051,-7.690430,-18.310547
18072,-0.248535,-0.706665,-0.395874,9.216309,-5.798340,-16.479492
18081,-0.256348,-0.776367,-0.349609,4.760742,-2.929688,-14.831543
18092,-0.265991,-0.868774,-0.371216,-0.854492,-0.061035,-12.878418
18102,-0.161987,-0.898560,-0.377563,-7.446289,2.685547,-10.803223
18112,-0.136230,-0.804321,-0.381592,-13.854980,5.249023,-8.483887
18122,-0.096924,-0.744019,-0.355713,-19.348145,7.263184,-6.347656
18133,-0.075928,-0.751953,-0.214600,-23.864746,8.972168,-1.464844
18143,-0.067993,-0.772095,-0.207031,-33.508301,11.718750,0.366211
18153,-0.038696,-0.758423,-0.189819,-39.184570,12.817383,1.892090
18162,0.006104,-0.672974,-0.198853,-44.616699,13.916016,2.929688
18172,0.004883,-0.634766,-0.192993,-49.865723,14.404297,3.417969
18181,0.085937,-0.622803,-0.187134,-54.504395,13.977051,4.028320
18192,0.108887,-0.575806,-0.187256,-59.020996,13.366699,3.967285
18202,0.171265,-0.620117,-0.189453,-69.580078,10.375977,2.624512
18212,0.190674,-0.602661,-0.332520,-75.561523,8.361816,1.342773
18222,0.204346,-0.586914,-0.391602,-81.665039,5.615234,-0.305176
18232,0.175903,-0.495972,-0.424194,-87.829590,3.112793,-2.136230
18242,0.194946,-0.391357,-0.499146,-94.177246,0.671387,-4.455566
18251,0.180542,-0.313232,-0.592285,-100.463867,-1.342773,-6.286621
18262,0.159180,-0.320801,-0.706543,-106.750488,-2.807617,-7.568359
18272,0.153198,-0.201782,-0.781128,-119.995117,-4.455566,-10.070801
18282,0.145996,-0.122192,-0.799683,-126.647949,-5.126953,-11.535645
18291,0.113159,0.333130,-0.272583,-133.850098,-5.798340,-13.000488
18302,0.303345,3.469116,3.999512,-128.601074,-4.577637,-14.709473
18312,-0.294189,0.985718,3.999512,-67.077637,-6.958008,-6.835937
18322,-0.270630,-3.999512,-0.576050,-20.996094,-10.681152,-1.098633
18331,0.235840,-1.521484,1.139038,-66.711426,5.554199,-11.291504
18344,1.001709,3.999512,2.179932,-57.617187,-12.084961,-27.343750
18354,-0.420166,-3.999512,-1.439819,16.601562,-28.076172,-30.334473
18364,0.562744,-0.266846,3.999512,7.690430,-16.723633,-28.137207
18373,1.262573,0.436768,3.999512,-15.136719,-11.779785,-24.841309
18383,0.398193,-1.120117,1.109131,-14.892578,-17.456055,-21.179199
18393,0.313354,0.811035,0.038086,-15.441895,-12.634277,-19.836426
18402,-0.184814,1.125366,0.994751,1.953125,-13.366699,-11.901855
18412,-0.046875,-1.298706,1.809326,16.601562,-11.779785,-16.784668
18423,0.034302,-0.875122,1.619385,-3.662109,-6.042480,-20.324707
18433,0.028809,0.859497,1.300049,-13.977051,-4.089355,-22.094727
18443,-0.079956,0.862061,0.939087,-3.906250,-8.239746,-26.062012
18452,-0.187744,-0.153442,1.330200,15.747070,-13.854980,-33.142090
18462,-0.065308,-0.840210,1.859741,23.864746,-16.235352,-39.611816
18472,0.211182,-0.636963,1.642456,19.226074,-14.709473,-43.640137
18483,-0.333496,0.465210,0.547241,12.695313,-13.854980,-45.166016
18493,-0.459473,0.249756,0.546753,20.690918,-8.789063,-42.907715
18503,-0.281860,-0.173096,0.956421,26.550293,-1.159668,-38.818359
18512,-0.164062,-0.186768,1.287720,24.841309,5.371094,-35.522461
18522,-0.067993,0.122437,1.081421,19.958496,7.385254,-34.179687
18532,-0.292114,0.329834,0.556641,17.700195,6.286621,-33.508301
18542,-0.414917,0.282227,0.193848,19.348145,5.554199,-31.677246
18552,-0.472900,0.162476,0.281616,21.911621,11.962891,-22.949219
18563,-0.349365,-0.146973,0.957153,17.578125,14.953613,-19.348145
18573,-0.313354,0.130127,1.006226,13.183594,15.563965,-16.418457
18582,-0.382935,0.235718,0.689575,11.657715,15.686035,-12.145996
18592,-0.376709,0.086670,0.425659,12.390137,17.517090,-6.408691
18602,-0.305298,0.039429,0.433105,13.122559,20.446777,1.770020
18614,-0.245239,-0.036377,0.571899,10.070801,26.428223,19.042969
18623,-0.231445,-0.039673,0.775513,8.056641,27.526855,25.878906
18633,-0.296021,-0.122192,0.662598,6.774902,27.954102,31.860352
18643,-0.297363,-0.196533,0.552612,5.615234,28.503418,37.170410
18652,-0.233276,-0.278931,0.509399,3.784180,28.747559,41.076660
18662,-0.193604,-0.259399,0.689209,1.464844,28.198242,43.518066
18672,-0.128174,-0.177124,0.903809,-1.159668,26.611328,44.677734
18682,-0.094116,0.007080,1.120483,-3.417969,25.451660,45.043945
18693,-0.024902,0.038452,0.918091,-4.150391,25.146484,46.081543
18703,0.012817,-0.154297,0.801025,-3.601074,22.644043,45.776367
18712,-0.018555,-0.056274,0.934814,-3.601074,21.118164,44.128418
18722,-0.004028,-0.148437,1.028687,-4.211426,20.019531,42.053223
18733,-0.043335,-0.041748,1.115601,-4.821777,18.859863,40.100098
18742,-0.099243,-0.058228,1.119629,-4.516602,17.517090,37.475586
18752,-0.098877,-0.136353,1.043823,-4.089355,16.357422,34.301758
18763,-0.022705,-0.083984,1.133179,-3.601074,15.258789,30.029297
18773,-0.023193,-0.238892,1.106079,-3.601074,12.512207,27.832031
18782,0.021362,-0.085083,1.089722,-3.723145,11.352539,25.817871
18792,0.002686,-0.144287,1.064697,-3.723145,10.803223,25.024414
18802,0.046875,-0.065552,1.045044,-3.540039,10.559082,25.085449
18812,0.058472,-0.010376,1.086914,-3.112793,10.620117,24.658203
18823,0.046387,-0.103516,1.018921,-2.197266,10.009766,24.047852
18833,0.033447,-0.190674,0.951294,-2.258301,8.911133,23.254395
18843,0.057983,-0.072388,1.004395,-2.136230,7.934570,21.850586
18852,0.038696,-0.161133,0.929565,-2.502441,6.530762,20.080566
18862,0.028198,-0.078857,0.999756,-2.807617,5.249023,17.272949
18873,-0.011353,-0.087158,0.944702,-3.295898,4.150391,14.404297
18882,-0.004150,-0.024414,1.022461,-3.417969,3.540039,12.207031
18892,-0.017822,0.029541,0.982910,-3.295898,3.112793,10.681152
18904,-0.027588,0.001099,0.976685,-2.441406,2.868652,10.192871
18914,-0.071655,-0.046875,0.986572,-2.197266,3.540039,11.840820
18923,-0.051514,-0.021973,0.972778,-2.502441,4.333496,13.549805
18933,-0.039307,0.028198,1.019409,-2.929688,5.126953,15.136719
18942,-0.034424,0.083008,1.007690,-3.234863,5.249023,16.662598
18953,0.010620,0.145996,1.024780,-2.746582,5.065918,17.578125
18962,0.046875,0.004517,0.931885,-1.892090,4.638672,17.639160
