timestamp,accX,accY,accZ,gyrX,gyrY,gyrZ
11,-0.005493,-0.168945,0.911743,-1.464844,-7.873535,16.235352
21,-0.014893,-0.230957,0.874390,-1.464844,-8.239746,16.174316
31,0.072388,-0.200439,0.866211,-1.525879,-8.178711,16.113281
40,0.090088,-0.280396,0.880005,-1.953125,-8.728027,16.662598
52,0.109253,-0.026001,1.062988,-3.051758,-9.155273,17.883301
62,0.112427,-0.078735,1.093018,-2.685547,-9.399414,17.761230
71,0.042725,-0.134277,1.105713,-1.647949,-9.887695,15.930176
81,0.089355,-0.227051,1.057739,-1.098633,-10.620117,12.695313
91,0.111694,-0.178955,0.956543,-1.403809,-11.901855,9.643555
101,0.068604,-0.021362,1.008301,-2.502441,-13.000488,7.202148
113,-0.034912,-0.086304,1.058594,-2.441406,-13.305664,3.417969
123,0.037598,-0.169556,1.029663,-2.563477,-13.122559,1.953125
132,0.108154,-0.022827,0.976807,-2.380371,-13.488770,0.000000
142,0.085449,-0.105103,0.962646,-1.831055,-14.404297,-1.770020
152,0.120483,-0.226929,0.983521,-0.671387,-15.014648,-2.685547
161,0.103638,-0.212769,0.934692,-0.183105,-15.136719,-2.868652
171,0.016968,-0.278442,0.834717,-0.366211,-14.770508,-2.319336
180,-0.024780,-0.212280,0.848389,-1.220703,-14.404297,-1.281738
192,-0.128906,-0.291992,0.950439,-2.014160,-12.634277,1.831055
202,-0.091187,-0.323364,0.859253,-2.563477,-12.695313,2.075195
212,-0.059570,-0.210937,0.878784,-3.662109,-12.634277,2.563477
222,-0.046997,-0.091187,0.915894,-4.638672,-12.512207,2.929688
232,-0.052002,-0.106079,0.943115,-4.516602,-12.084961,2.990723
242,-0.014160,-0.156982,1.005249,-4.150391,-11.779785,2.258301
251,0.056274,-0.102783,1.011719,-3.051758,-12.084961,-0.122070
261,0.064941,-0.168945,0.959473,-2.990723,-12.390137,-1.037598
271,0.004517,-0.064697,0.995117,-3.051758,-12.878418,-1.892090
281,-0.019897,-0.126099,0.953491,-2.929688,-12.878418,-2.502441
291,-0.020386,-0.084229,1.010742,-2.685547,-12.817383,-3.173828
301,-0.042114,-0.086304,1.004272,-2.441406,-12.878418,-3.784180
311,-0.057617,-0.117676,1.023682,-2.258301,-12.573242,-3.967285
321,-0.054321,-0.073975,1.079712,-2.136230,-11.413574,-4.455566
331,-0.066772,-0.062866,1.061768,-1.342773,-11.047363,-5.432129
341,-0.089966,-0.173096,0.989380,-1.037598,-10.620117,-6.408691
351,-0.072388,-0.218872,0.961670,-1.525879,-10.681152,-7.324219
361,-0.059082,-0.031128,0.992798,-2.441406,-10.803223,-8.544922
371,-0.080322,-0.022339,0.981323,-3.112793,-10.864258,-9.887695
381,-0.057373,-0.068237,1.007080,-3.051758,-10.070801,-10.803223
391,-0.033936,0.007324,1.095093,-2.868652,-9.460449,-14.892578
401,-0.048828,0.020630,1.121948,-2.258301,-9.460449,-17.639160
411,0.008789,-0.037964,1.025879,-2.075195,-9.948730,-20.446777
421,0.004639,-0.050781,0.961792,-1.770020,-10.009766,-22.583008
431,0.007568,-0.008667,1.025635,-1.586914,-9.765625,-24.475098
441,-0.045654,-0.057251,1.002197,-1.708984,-9.155273,-25.024414
452,-0.004517,-0.017822,1.016724,-1.708984,-8.605957,-25.939941
461,-0.030151,-0.060425,1.029907,-1.525879,-7.324219,-26.916504
471,0.059326,-0.203247,0.893311,-2.563477,-7.324219,-27.465820
481,0.037109,-0.007446,0.981445,-3.295898,-7.263184,-28.015137
491,-0.012939,-0.002563,0.963379,-3.356934,-7.202148,-28.625488
501,-0.015747,-0.178833,0.903687,-3.295898,-6.225586,-28.991699
511,0.018188,-0.115479,0.946655,-3.295898,-5.615234,-29.357910
521,0.007690,-0.075439,0.981201,-3.295898,-5.065918,-29.968262
531,-0.031372,-0.055542,1.005859,-3.051758,-4.394531,-30.273437
541,-0.076538,-0.170532,1.025024,-0.732422,-3.173828,-31.982422
551,-0.025879,-0.252808,0.944336,-1.159668,-2.990723,-32.531738
561,0.078735,-0.008789,1.079956,-1.342773,-1.831055,-31.860352
571,-0.014038,-0.181152,1.074585,-0.915527,-1.403809,-31.677246
582,-0.056519,-0.061768,1.015015,-0.427246,-1.342773,-31.188965
591,-0.069580,0.040771,1.032471,0.366211,-0.244141,-30.273437
601,0.098145,-0.090332,0.954102,1.892090,1.403809,-27.038574
612,0.057251,-0.202515,0.838867,2.563477,0.915527,-23.742676
622,-0.093994,-0.134155,0.959961,1.953125,1.281738,-19.897461
631,-0.090454,-0.066895,1.064819,1.770020,3.417969,-15.319824
641,-0.057739,-0.162231,1.039429,1.953125,5.981445,-10.681152
651,-0.065308,-0.178345,1.030396,1.953125,6.652832,-8.056641
661,-0.134888,-0.157104,1.049072,1.892090,6.713867,-6.835937
671,-0.086670,-0.136108,1.085693,2.075195,7.812500,-4.760742
683,-0.012207,-0.253418,0.973633,2.380371,7.751465,-3.723145
692,-0.049438,-0.242798,0.998779,2.380371,7.019043,-3.234863
702,-0.063721,-0.242432,0.944580,2.075195,6.652832,-2.441406
711,-0.005371,-0.172852,0.939331,1.525879,7.263184,-1.220703
721,0.005859,-0.177124,0.977539,1.220703,7.751465,-0.122070
732,-0.092163,-0.266724,0.890259,1.098633,7.690430,0.549316
741,-0.147095,-0.170288,0.952637,-0.061035,8.605957,1.159668
753,-0.080200,-0.218018,0.935547,-0.549316,9.094238,0.610352
762,-0.085937,-0.250854,0.895630,-0.793457,8.666992,-0.427246
772,-0.018799,-0.175659,0.905762,-1.525879,7.873535,-1.831055
782,0.015015,-0.149414,0.918823,-2.807617,6.958008,-3.112793
791,0.079346,-0.081787,1.052856,-3.234863,6.896973,-3.784180
801,0.095093,0.024414,1.298706,-2.990723,7.263184,-3.967285
813,0.073242,-0.043701,1.172119,-0.183105,6.591797,-5.310059
823,0.068604,-0.246704,0.935059,0.976562,6.225586,-5.737305
832,0.101563,-0.362305,0.738892,1.098633,5.859375,-5.432129
842,0.041138,-0.318237,0.642334,0.061035,5.187988,-4.516602
852,-0.004028,-0.244873,0.736816,-1.281738,4.821777,-2.807617
862,-0.052368,-0.209473,0.791626,-2.258301,5.187988,-0.305176
871,-0.037598,-0.204590,0.860962,-2.502441,5.920410,3.051758
881,-0.063110,-0.199463,0.880981,-2.624512,7.629395,8.728027
893,-0.077271,-0.203735,1.007324,-3.479004,7.690430,9.338379
902,-0.039917,-0.176270,1.091064,-3.356934,7.873535,9.399414
911,-0.008301,-0.226440,0.985352,-2.868652,7.690430,8.728027
921,0.051514,-0.130005,1.011719,-2.929688,6.408691,6.835937
932,0.087280,-0.235840,0.954102,-3.234863,4.882812,4.028320
941,0.077148,-0.087524,1.072754,-3.601074,3.662109,2.075195
953,0.087524,-0.019165,1.216431,-2.258301,3.723145,-0.183105
963,0.082275,-0.073364,1.072144,-0.854492,3.234863,-2.502441
972,0.091431,-0.313599,0.883057,0.122070,2.197266,-5.065918
982,0.153076,-0.345093,0.897583,-0.488281,0.732422,-6.164551
991,0.117065,-0.219604,0.838135,-2.197266,-0.549316,-6.469727
1002,0.081665,-0.095215,0.915771,-3.601074,-0.915527,-5.981445
1011,0.028320,-0.084229,0.991699,-3.845215,-0.671387,-4.760742
1021,0.044067,-0.133545,1.038452,-4.028320,0.793457,-2.990723
1033,0.069214,-0.043823,1.055664,-4.577637,0.671387,-3.295898
1042,0.064209,0.065796,1.118530,-4.699707,-0.488281,-4.699707
1052,0.109131,-0.029907,1.138916,-3.417969,-0.854492,-6.408691
1061,0.092163,-0.051025,1.188721,-2.380371,-1.403809,-8.117676
1072,0.117432,-0.063354,1.123901,-1.464844,-2.197266,-10.375977
1082,0.151855,-0.079590,1.150513,-0.671387,-3.112793,-12.268066
1091,0.156372,-0.157104,1.075928,0.122070,-3.417969,-13.549805
1102,0.070801,-0.104370,1.048340,0.366211,-2.929688,-13.122559
1112,-0.023926,-0.049927,1.054443,0.915527,-2.197266,-12.390137
1121,-0.099609,-0.087280,1.000610,2.136230,-1.525879,-11.840820
1131,-0.028320,-0.404663,0.868164,3.173828,-1.281738,-11.962891
1141,-0.031128,-0.443848,0.801025,2.197266,-1.403809,-11.657715
1153,0.021484,-0.162231,0.877930,-0.671387,-0.976562,-8.850098
1163,0.087158,0.033569,0.988892,-2.136230,0.366211,-6.958008
1172,0.028809,0.054565,0.866211,-2.746582,0.915527,-5.310059
1182,0.051514,0.101074,1.001099,-2.014160,0.732422,-4.028320
1191,-0.002808,-0.049316,0.898682,-0.549316,0.854492,-3.112793
1202,-0.015381,-0.029297,1.025757,0.732422,0.854492,-2.258301
1212,-0.076172,-0.123169,0.982544,1.220703,0.488281,-1.220703
1221,-0.072388,-0.042480,1.094971,1.586914,1.037598,0.000000
1233,-0.166992,-0.090210,0.890991,2.563477,2.624512,5.065918
1243,-0.154541,-0.128540,0.748047,2.563477,4.028320,8.117676
1252,-0.171875,-0.223633,0.750854,1.647949,5.676270,11.352539
1262,-0.177124,-0.190063,0.772339,0.122070,7.141113,14.038086
1271,-0.154297,-0.076538,0.917236,-1.708984,7.324219,16.052246
1282,-0.065063,0.007446,1.098511,-2.441406,7.019043,17.333984
1293,-0.069336,-0.002686,1.177734,-2.624512,5.798340,17.333984
1303,-0.118530,-0.071533,1.132813,-2.868652,4.943848,15.991211
1312,-0.079590,0.046753,1.135376,-2.136230,4.882812,14.343262
1322,-0.027100,-0.097900,1.021118,-0.915527,4.333496,12.268066
1332,-0.046021,-0.185425,0.938110,0.244141,3.295898,10.192871
1342,-0.016235,-0.334595,0.913452,0.732422,2.441406,8.972168
1352,0.050659,-0.308105,0.991089,0.061035,2.563477,8.911133
1362,0.128906,-0.267944,1.018921,-1.159668,2.807617,10.131836
1373,0.069580,-0.000488,1.163574,-1.831055,2.441406,13.061523
1382,0.066772,-0.276001,1.017334,-1.159668,1.525879,13.732910
1392,0.059204,-0.155151,1.094849,-1.037598,1.037598,13.732910
1401,0.047485,-0.287964,1.056519,-1.647949,0.122070,13.183594
1412,-0.009521,-0.203857,0.945068,-2.563477,-0.854492,12.207031
1422,0.002563,-0.067749,0.995605,-3.051758,-1.281738,11.474609
1433,-0.020264,-0.169556,0.960815,-3.356934,-2.014160,11.169434
1443,-0.090210,-0.190674,0.988403,-3.662109,-2.014160,11.413574
1453,-0.073975,-0.062744,1.126099,-4.028320,-1.586914,11.352539
1462,-0.040039,-0.156372,1.076172,-3.845215,-1.586914,11.230469
1472,-0.136108,-0.123535,0.911987,-3.662109,-2.197266,10.253906
1482,-0.100586,-0.159912,1.012329,-2.990723,-2.441406,9.460449
1492,-0.074219,-0.311890,0.936768,-1.953125,-2.319336,8.728027
1503,-0.063599,-0.164795,0.999634,-0.915527,-2.136230,7.873535
1513,-0.083740,-0.187378,0.943237,-0.671387,-1.892090,7.751465
1523,-0.065674,-0.147217,1.083618,-0.122070,-1.770020,7.385254
1532,-0.066895,-0.369873,0.848511,0.244141,-1.892090,6.958008
1542,-0.109741,-0.147949,0.932007,-0.122070,-2.136230,6.042480
1552,-0.093872,-0.276489,0.856079,0.122070,-1.892090,5.065918
1562,-0.165039,-0.273560,0.821899,-0.488281,-1.525879,3.845215
1572,-0.152466,-0.059326,0.907837,-1.037598,-1.098633,0.000000
1582,-0.184692,-0.170166,0.847656,-0.244141,-1.098633,-2.136230
1592,-0.067749,-0.264893,0.874756,0.427246,-1.647949,-4.211426
1602,-0.088379,-0.235840,0.809204,0.000000,-1.464844,-5.859375
1612,-0.037598,-0.069824,0.991821,-1.098633,-0.976562,-6.835937
1622,-0.028687,-0.181885,0.949341,-2.075195,-0.793457,-7.690430
1631,-0.003418,0.075684,1.080078,-2.868652,-0.549316,-8.544922
1643,0.053345,0.113159,1.124878,-1.953125,-0.488281,-10.803223
1653,0.195923,-0.036621,1.069458,-1.770020,-0.610352,-11.779785
1663,0.188965,-0.053345,1.118530,-1.586914,-0.854492,-12.023926
1672,0.166992,-0.059448,1.034180,-1.708984,-1.281738,-12.451172
1682,0.151001,0.003174,1.078491,-1.647949,-1.464844,-12.817383
1692,0.120239,-0.009277,1.044922,-1.525879,-1.647949,-13.122559
1702,0.085815,-0.103760,0.991943,-1.647949,-1.953125,-13.610840
1714,0.021973,-0.219116,0.913818,-2.441406,-2.441406,-14.404297
1724,0.079590,0.016235,0.953735,-3.356934,-2.990723,-14.648438
1734,0.047119,-0.098267,0.919922,-2.746582,-2.868652,-14.099121
1743,0.050049,-0.141113,0.833374,-3.112793,-2.929688,-12.817383
1753,0.116211,-0.008545,1.017334,-3.601074,-2.014160,-10.559082
1762,0.139038,-0.192627,1.092285,-3.845215,-0.793457,-8.422852
1772,0.041992,-0.115845,1.070801,-4.272461,-0.244141,-7.629395
1782,0.028320,-0.099854,1.132935,-4.394531,-0.244141,-7.385254
1793,-0.099976,0.038818,1.063721,-3.967285,-0.915527,-8.605957
1803,-0.146851,-0.083374,0.993408,-3.112793,-0.549316,-9.216309
1813,-0.300903,-0.179443,0.901001,-3.051758,0.305176,-9.460449
1823,-0.171387,0.065430,1.000488,-3.479004,2.014160,-9.338379
1832,-0.155518,-0.204956,0.967896,-3.417969,3.601074,-8.178711
1842,-0.090332,-0.051392,0.961792,-3.662109,4.272461,-7.385254
1852,-0.021484,0.053711,1.083130,-3.173828,4.211426,-6.958008
1863,0.057983,-0.090576,0.978882,-2.624512,4.089355,-6.469727
1873,0.034424,-0.159668,1.040161,-2.624512,3.662109,-6.408691
1882,-0.003540,-0.078125,1.068237,-2.380371,3.784180,-6.530762
1892,-0.001343,0.043823,1.157593,-1.159668,4.333496,-6.591797
1902,-0.050293,-0.072876,1.151123,0.183105,4.455566,-6.896973
1912,-0.038330,-0.305786,0.965576,1.647949,4.516602,-7.629395
1922,0.014160,-0.115601,1.003662,2.319336,4.577637,-7.995605
1933,0.027710,-0.453613,0.802368,2.563477,4.699707,-7.568359
1943,0.072266,-0.183594,0.855957,1.831055,4.882812,-6.469727
1952,0.008423,-0.269531,0.799805,1.159668,5.310059,-5.126953
1962,0.037354,-0.277344,0.848511,0.183105,6.042480,-4.150391
1972,0.009766,-0.163940,0.927734,-0.488281,6.591797,-3.417969
1982,-0.031982,-0.330444,0.822021,-0.915527,6.408691,-3.540039
1994,0.011475,-0.330200,0.875488,-2.197266,5.798340,-4.882812
2004,0.082275,-0.333496,0.867432,-3.417969,5.310059,-5.371094
2013,0.068604,0.082886,1.023193,-4.516602,5.004883,-5.432129
2022,0.108032,0.103760,1.121094,-4.577637,5.004883,-5.065918
2032,0.060181,-0.085571,1.076660,-3.967285,5.676270,-4.150391
2042,0.045044,-0.060913,1.029541,-2.807617,5.737305,-3.112793
2052,0.043335,0.013428,1.117188,-1.953125,5.981445,-2.014160
2064,0.060181,-0.239990,1.037109,-1.647949,5.859375,0.610352
2074,0.041748,-0.025757,1.032349,-1.831055,5.676270,1.586914
2084,0.098999,-0.091797,0.982788,-1.464844,5.493164,2.685547
2093,0.103760,-0.213257,0.929687,-1.525879,5.310059,3.356934
2103,0.106567,-0.063599,1.004272,-1.953125,5.065918,4.333496
2112,0.082642,0.011841,1.028687,-2.441406,4.455566,4.638672
2122,0.081299,-0.033325,1.106445,-2.746582,4.150391,4.638672
2132,0.061035,0.022827,1.170898,-2.441406,3.662109,4.089355
2143,-0.027588,-0.068359,1.021606,-0.366211,3.234863,3.662109
2153,0.000244,-0.057495,1.062256,-0.122070,3.234863,4.150391
2163,0.011719,0.024536,1.093384,-0.122070,3.356934,5.187988
2172,-0.075195,-0.034668,1.048218,-0.061035,3.173828,6.469727
2181,-0.121948,-0.117065,0.966064,0.305176,3.356934,7.202148
2192,-0.166138,-0.116577,0.948975,0.366211,3.967285,7.812500
2202,-0.226685,-0.129150,0.953125,0.061035,5.310059,8.789063
2213,-0.212769,-0.235718,0.962769,-2.197266,7.568359,9.765625
2223,-0.166504,-0.106689,0.911499,-2.929688,7.873535,10.131836
2232,-0.139404,0.021484,0.937866,-2.685547,7.934570,10.986328
2242,-0.083740,-0.144165,0.908203,-2.014160,7.873535,12.207031
2252,-0.036255,-0.126343,0.936768,-1.831055,8.056641,13.000488
2262,0.035522,0.047974,0.981567,-1.525879,7.873535,14.282227
2274,0.151001,0.016602,1.063721,-0.732422,7.446289,17.639160
2284,0.180908,0.142944,1.161743,0.732422,6.591797,19.165039
2293,0.168945,0.046753,1.175415,2.624512,5.676270,20.629883
2302,0.159302,-0.084717,1.102783,4.150391,4.821777,21.606445
2312,0.139648,-0.248901,1.031372,5.065918,3.967285,22.094727
2322,0.093384,-0.142700,0.942993,4.882812,2.929688,22.155762
2332,0.053345,0.040527,0.949219,4.333496,2.014160,22.155762
2342,0.087646,0.011475,0.922607,3.723145,1.098633,21.911621
2353,0.045898,-0.048340,1.028687,3.601074,-1.098633,20.263672
2362,0.039551,0.088257,1.216064,3.845215,-1.708984,19.531250
2372,0.050659,0.089355,1.203003,4.333496,-2.624512,18.737793
2382,0.006348,-0.170166,1.043335,4.943848,-2.990723,18.371582
2392,-0.011963,-0.253906,0.942627,5.249023,-3.295898,17.700195
2402,-0.012207,-0.158447,0.921997,4.516602,-3.295898,16.479492
2415,-0.053345,-0.305054,0.929199,2.258301,-4.089355,12.390137
2424,-0.001465,-0.071777,1.079712,1.403809,-4.943848,9.643555
2434,0.017700,-0.312866,0.983521,0.915527,-5.310059,7.080078
2443,-0.008667,-0.444580,0.799561,0.427246,-5.920410,5.065918
2452,0.092651,-0.090332,0.949463,-0.671387,-5.859375,3.417969
2462,0.069702,-0.116699,1.038574,-1.892090,-6.164551,2.563477
2472,0.053345,-0.266479,0.963623,-2.441406,-7.080078,1.647949
2484,0.104004,-0.158569,1.028931,-2.258301,-7.934570,0.244141
2494,0.132568,-0.321045,0.896484,-2.624512,-8.178711,-0.549316
2503,0.106445,-0.087646,1.018921,-3.417969,-8.178711,-0.976562
2512,0.085693,0.076050,1.135986,-2.990723,-8.178711,-0.976562
2522,0.034424,-0.278320,1.017700,-1.831055,-8.056641,-1.647949
2532,0.001831,-0.424927,0.839355,-1.220703,-8.178711,-2.990723
2542,-0.057007,-0.184570,0.909668,-1.159668,-8.239746,-3.967285
2554,-0.059326,-0.126343,1.018921,-0.549316,-8.056641,-6.774902
2564,-0.092896,-0.248779,0.949707,-0.061035,-8.178711,-7.873535
2573,-0.131470,-0.190430,0.966431,0.305176,-7.995605,-8.789063
2583,-0.064941,-0.063721,0.999146,0.305176,-7.141113,-8.850098
2592,-0.056519,-0.063965,0.963379,-0.122070,-6.347656,-8.605957
2603,-0.097046,-0.107666,0.927124,-1.220703,-6.042480,-7.934570
2612,-0.076416,0.051514,0.981567,-1.953125,-5.187988,-6.896973
2622,-0.046631,0.192261,1.035278,-2.258301,-3.540039,-3.112793
2632,0.021484,0.016479,0.996826,-2.075195,-2.746582,-1.098633
2642,0.055298,-0.027710,1.096924,-2.502441,-2.441406,0.671387
2653,0.069214,0.136108,1.193115,-2.990723,-2.563477,1.892090
2662,0.015381,0.007813,1.086914,-3.112793,-3.295898,2.868652
2673,-0.000488,-0.006836,1.060547,-2.807617,-3.479004,3.662109
2682,-0.033936,-0.122437,0.986450,-2.502441,-2.929688,4.455566
2692,-0.074829,-0.242920,0.800293,-2.441406,-2.319336,4.760742
2704,-0.040527,-0.131714,0.917480,-4.577637,-1.586914,5.187988
2713,-0.103271,-0.122681,0.935425,-4.821777,-1.342773,5.187988
2723,-0.118042,-0.065552,0.978760,-4.272461,-1.647949,4.272461
2733,-0.146729,0.093262,1.106079,-3.051758,-1.953125,3.234863
2742,-0.124023,-0.071167,0.994507,-1.281738,-2.258301,2.136230
2753,-0.122925,-0.346191,0.825195,-0.305176,-1.586914,1.342773
2762,-0.090698,-0.364136,0.750488,-1.647949,-0.610352,1.098633
2772,-0.053711,-0.222168,0.849121,-2.929688,-0.244141,1.831055
2783,-0.123291,-0.180298,1.007202,-3.295898,0.122070,2.502441
2792,-0.064819,0.007690,1.128540,-2.563477,0.976562,2.746582
2803,-0.011475,0.047119,1.176025,-1.403809,1.220703,3.295898
2812,0.028198,-0.119141,1.152466,-1.342773,0.854492,3.417969
2823,0.019531,-0.133423,1.099243,-1.281738,0.488281,3.173828
2832,0.043213,0.019653,1.087036,-1.037598,0.549316,3.479004
2843,0.064697,-0.072266,0.929199,0.427246,0.061035,3.417969
2853,0.045044,-0.310669,0.875732,-0.305176,-0.122070,3.356934
2862,-0.024048,-0.270142,0.918701,-1.953125,-0.549316,2.746582
2872,-0.069458,-0.057861,1.029785,-2.929688,-0.915527,1.708984
2883,-0.120728,0.001099,1.044678,-3.112793,-0.976562,0.732422
2892,-0.133423,-0.039307,0.937012,-2.746582,-1.098633,-0.671387
2904,-0.068726,-0.180298,0.890991,-2.563477,-0.732422,-4.943848
2914,-0.057007,-0.085937,0.957642,-3.295898,-0.427246,-6.530762
2924,-0.020386,-0.036499,1.035645,-3.967285,-0.244141,-7.568359
2933,-0.047607,0.025635,1.056763,-4.028320,0.305176,-7.995605
2943,0.029785,0.063354,1.049805,-3.601074,1.403809,-7.812500
2952,0.029907,0.006104,0.994507,-3.173828,1.403809,-7.995605
2962,-0.042603,-0.026123,0.974976,-2.868652,1.037598,-8.789063
2974,-0.071045,0.055298,0.976685,-2.746582,1.403809,-8.850098
2983,-0.048096,0.165283,1.099854,-2.502441,1.892090,-9.216309
2993,-0.037354,-0.042847,1.010620,-2.075195,1.892090,-9.521484
3002,0.032349,-0.121704,0.883545,-2.014160,2.868652,-8.666992
3013,0.096680,0.051880,0.954590,-2.746582,3.601074,-7.446289
3022,0.169800,0.056152,1.045532,-3.723145,3.906250,-6.347656
3033,0.169189,0.002197,0.992432,-4.516602,3.845215,-4.638672
3042,0.154297,0.167358,1.074585,-4.516602,3.417969,-1.647949
3053,0.086182,0.092529,1.014404,-1.525879,3.540039,-0.427246
3063,0.021240,-0.090210,0.867432,0.061035,3.112793,0.244141
3073,0.046265,0.020996,0.937866,0.488281,2.746582,0.061035
3083,0.031738,-0.161499,0.926758,0.183105,2.319336,0.183105
3092,0.059448,-0.259033,0.866333,-0.610352,2.258301,0.732422
3103,0.082886,-0.024048,1.021729,-1.708984,2.197266,1.403809
3114,0.008423,-0.106445,0.952026,-2.685547,1.892090,2.380371
3123,-0.014648,0.171753,1.077515,-3.601074,2.197266,2.624512
3133,-0.051880,-0.100952,0.924316,-3.051758,2.502441,2.807617
3142,-0.043091,-0.020630,0.846680,-2.868652,2.685547,2.197266
3153,-0.042603,0.213989,1.023193,-2.563477,2.380371,1.281738
3162,-0.043701,-0.044189,0.934937,-1.647949,2.197266,0.793457
3172,-0.061523,-0.063965,1.006958,-1.037598,2.258301,0.305176
3184,-0.040527,-0.083496,1.014893,-0.488281,2.075195,0.793457
3193,0.001587,-0.038574,1.059692,-0.427246,3.051758,1.525879
3202,0.027832,-0.099609,1.016357,-0.122070,3.784180,2.746582
3213,0.020142,-0.134766,1.048462,0.244141,4.028320,3.906250
3223,0.017822,-0.130249,1.090454,0.305176,3.967285,4.394531
3232,-0.024658,-0.359253,1.011841,0.000000,3.723145,4.272461
3242,-0.013062,-0.149658,0.979858,-0.976562,3.417969,3.662109
3254,0.022583,-0.220459,0.960327,-1.892090,2.990723,2.136230
3263,0.013428,-0.015015,0.998047,-1.464844,2.807617,2.014160
3272,0.088745,-0.049927,1.115112,-0.976562,2.563477,2.319336
3283,0.032227,-0.289429,0.925537,-1.403809,1.953125,2.380371
3293,0.031372,0.070923,1.014893,-1.708984,1.953125,2.868652
3302,0.060669,0.128174,1.059204,-1.403809,2.014160,3.784180
3312,0.017090,-0.205566,0.853516,-0.732422,1.953125,4.516602
3325,0.038696,-0.012085,1.132324,-0.549316,2.441406,5.798340
3334,0.014648,-0.303833,0.939331,-0.854492,2.746582,6.408691
3343,-0.005981,-0.125610,0.937134,-1.342773,2.624512,6.103516
3353,0.020630,0.006714,1.056274,-1.708984,2.319336,5.615234
3363,-0.007813,-0.178711,0.904297,-1.831055,1.892090,5.187988
3372,0.008179,-0.060303,1.014282,-2.075195,1.586914,4.516602
3383,0.019653,-0.000854,1.005981,-2.197266,1.037598,4.150391
3394,0.038574,-0.042725,0.903198,-2.441406,0.793457,4.516602
3403,0.028687,-0.053711,0.922974,-2.075195,0.915527,5.004883
3413,0.030762,-0.147705,0.953125,-1.708984,1.037598,6.042480
3423,0.013794,-0.105713,1.031006,-1.953125,0.732422,6.896973
3432,-0.020630,-0.096924,0.948730,-2.014160,0.732422,7.385254
3443,-0.017578,-0.138672,0.929932,-1.586914,1.220703,8.117676
3452,-0.011597,-0.133545,1.010376,-1.220703,1.342773,9.399414
3465,-0.035889,-0.222168,0.998535,-0.793457,1.098633,11.108398
3474,-0.017822,-0.133423,1.009155,-1.098633,1.159668,11.718750
3483,0.017700,-0.239380,0.987671,-1.647949,0.915527,11.840820
3493,-0.007813,-0.270020,0.968262,-1.647949,0.427246,10.986328
3502,0.000000,-0.086914,1.068848,-1.770020,-0.366211,9.643555
3513,-0.010986,-0.325439,0.991943,-1.525879,-0.732422,8.911133
3522,-0.057617,-0.355713,0.935791,-1.831055,-0.854492,8.178711
3535,-0.035400,-0.074341,1.146362,-2.502441,-0.854492,6.225586
3544,-0.089478,-0.352051,0.972290,-2.075195,-0.854492,5.676270
3554,-0.018677,-0.320557,0.995361,-1.953125,-0.915527,4.333496
3563,-0.012085,-0.035156,1.128296,-2.868652,-1.525879,2.746582
3573,0.008423,-0.089111,1.100220,-3.295898,-1.831055,1.403809
3582,0.010864,-0.079102,1.106445,-3.051758,-2.197266,-0.305176
3593,0.025757,0.033203,1.112183,-1.342773,-2.258301,-1.159668
3602,0.019531,-0.006348,1.052124,0.488281,-1.831055,-0.061035
3614,0.018921,-0.073975,1.088135,-0.122070,-1.098633,0.976562
3623,0.017944,-0.115723,0.989868,-1.037598,-0.366211,2.441406
3632,-0.024780,-0.110107,0.827148,-1.770020,0.183105,4.089355
3643,0.044067,0.041382,0.791748,-2.319336,0.183105,4.760742
3653,0.073853,-0.175171,0.477295,-2.868652,-0.061035,4.943848
3663,0.056152,-0.311035,0.300293,-4.943848,-1.037598,5.371094
3672,0.069214,-0.010986,0.460937,-11.413574,-2.624512,5.737305
3683,0.057739,0.472778,1.038696,-11.840820,-2.563477,6.164551
3693,0.059326,0.345825,1.162842,-9.460449,-2.685547,7.019043
3702,0.039429,-0.012207,1.181030,-6.347656,-2.136230,8.178711
3713,0.094116,-0.041748,1.325317,-4.943848,-1.831055,9.277344
3722,0.094238,-0.034790,1.272217,-4.699707,-2.075195,9.704590
3733,0.044312,-0.058838,1.077881,-4.516602,-2.624512,10.375977
3742,0.012939,-0.059326,0.828491,-4.638672,-2.868652,10.620117
3754,0.066528,-0.092896,0.718262,-5.187988,-3.295898,9.704590
3763,0.125366,0.174194,1.013184,-5.737305,-4.821777,8.483887
3773,0.227173,0.026489,1.040283,-5.126953,-7.385254,6.774902
3782,0.215942,0.058350,1.035034,-4.394531,-10.009766,5.004883
3793,0.057129,0.031128,0.892578,-3.479004,-10.803223,3.845215
3804,-0.095337,-0.039795,0.687378,-2.868652,-6.042480,3.784180
3814,-0.215820,-0.077637,0.753052,-3.356934,-3.906250,4.333496
3823,-0.125732,-0.132324,0.829712,-3.051758,-4.577637,3.540039
3833,-0.149658,-0.441040,0.685547,-2.197266,-6.591797,2.380371
3842,-0.031372,-0.626465,0.561401,-2.563477,-7.507324,2.197266
3853,-0.090942,-2.152588,-1.606201,-2.868652,-7.995605,3.540039
3862,0.097168,-2.671997,-1.484131,-7.080078,-7.751465,5.493164
3874,-0.026123,-3.156738,-1.619141,-58.349609,-10.925293,-6.103516
3884,0.072266,0.596313,0.642456,-81.115723,-10.742188,-10.681152
3893,0.103027,2.334229,3.999512,-77.209473,-10.620117,-13.244629
3902,0.123901,0.779541,3.999512,-49.743652,-11.535645,-13.671875
3913,-0.134766,1.002808,3.999512,-18.066406,-9.155273,-10.803223
3923,0.011475,-1.247437,3.905273,7.629395,-4.882812,-8.483887
3933,-0.001953,-1.746460,1.118774,20.324707,-3.967285,-10.192871
3943,0.236450,-1.129761,-0.220093,14.160156,-5.249023,-14.465332
3954,0.375732,-1.224487,0.895142,5.493164,-14.160156,-22.277832
3964,0.340942,-1.175049,1.966187,6.774902,-15.380859,-20.629883
3973,0.368164,-0.888428,2.381226,7.446289,-13.610840,-16.357422
3982,0.397095,-0.244995,2.144531,8.789063,-10.559082,-10.009766
3993,0.487061,0.734009,2.719482,14.099121,-8.178711,-5.126953
4003,0.244385,0.959106,3.103882,28.320312,-11.169434,-3.234863
4013,-0.134888,1.571167,3.999512,44.128418,-13.732910,-5.737305
4024,-1.323853,3.069580,3.999512,70.434570,0.366211,-15.563965
4034,-0.742920,3.999512,3.999512,78.552246,6.347656,-11.779785
4043,0.485962,3.925659,3.278931,91.125488,14.404297,-7.202148
4052,0.817749,2.405762,2.404053,110.107422,20.019531,4.516602
4063,0.777344,1.774414,1.856689,120.483398,13.061523,4.272461
4073,0.347168,1.498169,0.880005,119.873047,4.943848,-4.333496
4084,-0.338379,1.342773,-0.066040,111.267090,3.356934,-8.850098
4094,-0.317261,0.458984,-0.497437,108.459473,7.751465,-7.141113
4103,-0.419800,-0.119873,-0.395508,103.881836,11.657715,-6.225586
4112,-0.567505,-0.315918,-0.343506,94.665527,16.418457,-3.723145
4123,-0.558960,-0.225708,-0.489990,83.129883,19.775391,-1.647949
4133,-0.291748,0.015991,-0.535522,72.998047,22.827148,-1.464844
4143,-0.135986,0.043945,-0.461426,67.382812,24.047852,-0.671387
4153,0.146851,-0.069336,-0.147461,65.490723,24.230957,1.403809
4164,0.265381,-0.688354,0.097046,47.485352,23.071289,9.643555
4173,0.207642,-0.763794,0.053467,50.720215,20.874023,10.620117
4182,0.138916,-0.650146,-0.034058,43.762207,18.371582,10.375977
4193,0.189453,-0.496094,-0.022461,38.696289,16.174316,10.253906
4203,0.239502,-0.468506,-0.045166,35.705566,13.610840,10.620117
4213,0.346924,-0.487427,-0.016846,32.714844,10.986328,11.169434
4224,0.347412,-0.546753,-0.095459,23.254395,4.272461,10.009766
4234,0.184204,-0.683594,-0.330566,17.944336,1.159668,8.911133
4243,0.094238,-0.777954,-0.362915,13.061523,-1.159668,8.422852
4253,0.076294,-0.931030,-0.297241,7.629395,-2.502441,7.080078
4263,-0.014404,-1.028931,-0.313110,1.525879,-3.234863,5.371094
4273,0.021851,-0.976807,-0.347534,-5.493164,-3.784180,3.295898
4283,-0.001831,-0.872192,-0.438843,-12.573242,-4.028320,1.586914
4292,0.045410,-0.798584,-0.415771,-18.798828,-3.784180,0.000000
4304,0.048096,-0.885986,-0.322998,-24.108887,-3.356934,-1.953125
4313,-0.017212,-0.959717,-0.364380,-35.644531,-2.807617,-2.746582
4323,-0.003662,-0.953613,-0.441650,-42.907715,-2.380371,-3.784180
4333,-0.074707,-0.877197,-0.489746,-50.659180,-1.281738,-4.760742
4343,-0.102905,-0.757324,-0.515991,-57.861328,-0.061035,-5.249023
4352,-0.126343,-0.656616,-0.477783,-64.697266,1.892090,-5.615234
4364,-0.139160,-0.602051,-0.496826,-76.843262,5.554199,-5.554199
4374,-0.100586,-0.496948,-0.605713,-82.885742,7.263184,-4.882812
4383,-0.080933,-0.506714,-0.662109,-89.355469,8.544922,-4.333496
4393,-0.035278,-0.496216,-0.717773,-96.130371,9.521484,-3.356934
4402,-0.023315,-0.480469,-0.768677,-103.149414,10.009766,-2.685547
4413,0.037354,-0.474487,-0.807739,-110.778809,9.826660,-2.624512
4424,0.062988,-0.390869,-0.887573,-118.591309,9.094238,-3.051758
4433,0.112671,-0.307251,-0.964966,-126.159668,8.361816,-5.615234
4443,0.135620,-0.144287,-1.044067,-140.502930,5.920410,-7.019043
4453,-0.250732,3.132568,3.999512,-140.197754,6.347656,-9.704590
4463,0.844727,2.916748,3.999512,-84.777832,6.652832,-7.324219
4473,-1.327637,-3.999512,1.167358,-22.338867,-6.958008,2.319336
4483,-1.278076,-3.084839,0.193359,-58.410645,-1.708984,-14.099121
4494,0.881714,3.999512,2.765381,-114.379883,10.131836,-20.019531
4503,0.958130,3.999512,3.399902,-66.284180,6.042480,-7.080078
4514,-0.397217,-1.131348,3.999512,15.625000,-19.958496,-16.235352
4524,0.474487,1.094849,3.999512,-16.845703,-4.150391,-9.399414
4533,-0.364014,-1.014648,0.939209,-19.958496,3.295898,3.723145
4543,-0.049072,1.915527,1.855713,-13.916016,13.061523,7.812500
4553,-0.121826,0.650391,0.209351,3.540039,14.648438,13.427734
4564,0.748047,-1.107666,1.157837,16.174316,7.812500,8.056641
4573,0.327759,-2.011597,1.640503,16.174316,7.812500,8.056641
4584,-0.348877,0.887573,1.124634,-12.390137,-6.042480,0.549316
4593,-0.078125,1.235474,1.367554,-14.404297,8.728027,6.652832
4603,-0.143066,0.229736,1.626221,5.065918,8.972168,7.263184
4613,0.024536,-0.224243,2.182373,15.014648,6.286621,3.356934
4623,0.080811,-0.097900,2.025879,13.732910,5.432129,2.380371
4633,0.305542,0.237793,1.322144,11.413574,3.540039,0.976562
4644,0.134644,0.456787,0.749268,22.277832,1.281738,-0.854492
4653,0.283447,0.148682,0.577637,25.268555,1.037598,0.061035
4663,0.398682,-0.274414,0.989380,21.789551,-0.671387,-0.305176
4673,0.279541,0.129639,0.925659,16.601562,-1.159668,-1.770020
4683,0.186279,0.248169,0.648437,14.343262,-0.305176,-0.793457
4693,0.088257,0.131592,0.365723,15.380859,-0.366211,0.244141
4703,-0.026855,0.086548,0.382690,17.150879,-1.403809,-1.525879
4716,-0.061768,-0.112427,0.830688,14.892578,-2.685547,-6.225586
4725,-0.083130,-0.183594,0.848877,12.817383,-3.417969,-8.605957
4734,-0.035400,-0.262573,0.599976,11.108398,-3.723145,-10.742188
4744,-0.059448,-0.239136,0.486572,9.338379,-3.234863,-11.352539
4753,-0.055054,-0.262207,0.463013,7.202148,-1.892090,-10.742188
4764,0.061401,-0.251709,0.679687,5.187988,0.366211,-9.277344
4773,0.071411,-0.150391,0.798950,3.173828,1.831055,-7.324219
4784,0.056396,-0.274170,0.721069,0.000000,2.075195,-5.004883
4793,0.024292,-0.025757,0.844238,-1.037598,2.197266,-3.540039
4804,-0.025879,-0.236450,0.732300,-1.159668,2.563477,-2.441406
4813,0.000366,-0.144897,0.879028,-1.464844,2.563477,-2.319336
4824,-0.025024,-0.250366,0.903198,-1.708984,2.380371,-2.319336
4833,-0.075684,-0.059814,1.023804,-2.624512,2.807617,-1.708984
4844,-0.071899,0.050049,1.060303,-3.356934,3.356934,-0.915527
4853,-0.071533,0.031250,1.061035,-2.380371,4.516602,0.244141
4864,-0.055420,-0.284790,1.008789,-0.305176,5.859375,2.929688
4873,-0.049072,-0.400635,1.003906,0.122070,6.225586,3.540039
4884,-0.070190,-0.304199,0.986206,-1.647949,7.019043,4.577637
4893,-0.028687,-0.083618,0.987183,-3.295898,7.385254,5.493164
4903,-0.062988,-0.098877,0.872437,-3.784180,7.507324,5.798340
4913,-0.080811,-0.108521,0.838989,-3.234863,7.446289,6.164551
4924,-0.066895,-0.232910,0.867065,-4.272461,8.483887,7.690430
4934,-0.015503,-0.003540,1.123291,-5.981445,8.850098,9.094238
4943,-0.003906,0.129028,1.100952,-6.347656,8.605957,10.559082
4953,0.045776,0.111450,1.018433,-4.455566,8.300781,12.573242
4964,0.068848,0.097290,1.110229,-1.892090,8.056641,14.038086
4973,0.054932,-0.256226,1.133179,-0.305176,8.117676,15.319824
4983,0.012573,-0.498779,1.070068,-0.793457,8.483887,15.869141
4994,0.053955,-0.212646,1.142822,-3.601074,8.728027,15.380859
5004,0.075439,-0.106689,0.976562,-3.112793,7.934570,15.197754
5013,0.063110,-0.151611,0.895020,-1.892090,7.141113,15.625000
5023,0.100586,-0.043091,0.964600,-1.647949,6.347656,15.869141
5033,0.089600,-0.151733,0.986572,-2.685547,5.676270,16.235352
5043,0.093872,0.013794,0.950562,-3.295898,4.577637,16.784668
5054,0.125488,0.201660,1.101563,-2.685547,3.723145,17.639160
5063,0.062500,-0.083740,0.947021,-1.098633,3.173828,20.141602
5074,0.031860,0.076538,1.259888,-1.770020,3.356934,21.057129
5084,0.006470,0.176392,1.377441,-2.258301,3.784180,21.728516
5093,0.014038,0.045898,1.194336,-0.976562,4.394531,23.010254
5103,-0.093140,-0.034058,0.963989,1.098633,4.882812,24.047852
5113,-0.082153,-0.211670,0.860474,2.319336,5.004883,24.108887
5123,-0.138916,-0.458008,0.736450,1.831055,4.638672,23.620605
5133,-0.131836,-0.221558,0.917969,-0.732422,3.540039,22.094727
5144,-0.074463,0.177734,1.043335,-2.319336,1.525879,17.822266
5154,-0.074463,0.255981,0.965332,0.366211,1.586914,17.944336
5164,-0.080933,-0.141357,0.870239,2.868652,1.953125,18.798828
5173,-0.069458,-0.430298,0.803101,2.990723,2.258301,19.714355
5184,-0.095337,-0.287842,0.846924,0.854492,2.746582,20.751953
5193,-0.043213,-0.013306,0.919189,-1.342773,2.990723,21.728516
5206,-0.041260,0.021729,0.884155,-0.549316,3.723145,24.108887
5215,-0.082031,-0.050659,0.994019,1.098633,3.845215,25.695801
5224,-0.073486,-0.179687,1.033081,1.342773,3.906250,27.038574
5234,-0.087036,-0.033691,1.126099,0.549316,3.967285,28.137207
5243,-0.062134,0.056152,1.162476,0.671387,4.394531,29.479980
5254,-0.040527,0.007568,1.136230,1.831055,4.455566,30.761719
5263,-0.012207,0.026367,1.117188,3.723145,4.455566,31.677246
5276,-0.018188,-0.418701,1.161865,4.577637,2.807617,29.663086
5285,0.002441,-0.536011,0.735107,3.662109,1.770020,27.099609
5294,0.087158,-0.747803,0.156372,1.892090,0.244141,24.475098
5304,0.139404,-0.802002,0.237915,-2.990723,-2.075195,20.690918
5313,0.200562,-0.303467,0.799683,-8.911133,-4.272461,16.113281
5324,0.143066,0.219360,1.187500,-10.742188,-4.882812,12.878418
5333,0.087891,0.520630,1.423462,-8.972168,-4.394531,12.145996
5343,0.066162,0.328369,1.270508,-5.004883,-4.089355,11.596680
5354,0.053589,-0.354492,1.052002,-0.671387,-4.638672,12.084961
5364,0.045166,-0.279785,1.149170,-2.075195,-5.432129,11.901855
5374,0.053101,-0.286377,1.161255,-4.272461,-5.615234,11.047363
5383,0.025635,-0.040039,1.077271,-5.249023,-5.554199,11.718750
5393,0.088501,0.078125,1.005737,-4.882812,-5.493164,12.573242
5403,0.109375,-0.210693,0.919922,-4.516602,-5.981445,12.451172
5413,0.038330,-0.147461,0.957886,-5.554199,-6.469727,13.610840
5423,0.090820,0.310913,1.204712,-5.310059,-6.347656,14.160156
5433,0.041016,0.126343,0.952148,-2.136230,-6.164551,14.404297
5444,0.002563,-0.053467,0.917603,1.037598,-6.164551,14.099121
5453,-0.016846,-0.278809,1.075195,2.136230,-7.019043,12.329102
5464,-0.047607,-0.410889,1.153687,0.000000,-7.568359,8.850098
5474,-0.067017,-0.080688,1.144775,-2.868652,-7.873535,5.554199
5484,-0.073608,0.432983,1.141968,-0.610352,-8.544922,-0.183105
5493,-0.027588,-0.110596,0.865967,2.807617,-8.117676,-1.831055
5503,0.028809,-0.197021,0.932495,4.150391,-8.117676,-2.868652
5514,0.029663,-0.140503,1.140137,2.990723,-7.873535,-4.150391
5523,0.009033,-0.235474,1.019775,0.793457,-7.568359,-5.310059
5533,0.005249,0.051392,0.969238,-0.549316,-6.835937,-5.676270
5543,0.004883,0.231201,1.015625,-0.183105,-6.103516,-5.737305
5555,-0.034790,-0.149170,1.025269,0.610352,-5.371094,-5.371094
5564,-0.040771,0.030762,1.204346,-1.708984,-3.784180,-4.821777
5574,-0.087646,-0.026855,1.115601,-3.234863,-3.601074,-4.150391
5583,-0.095337,0.162720,0.970093,-3.906250,-2.502441,-3.051758
5593,-0.112915,0.490479,0.818848,-3.723145,-1.831055,-1.220703
5604,-0.082764,0.684204,0.748413,-1.586914,-0.122070,1.525879
5614,-0.081787,0.754028,0.858032,2.685547,1.342773,4.333496
5623,-0.094238,0.124878,0.834839,9.704590,3.601074,9.216309
5633,-0.157593,-0.335938,1.024536,8.239746,3.784180,9.582520
5644,-0.182495,-0.576172,1.030273,5.065918,4.150391,9.826660
5653,-0.166504,-0.208984,1.069946,0.610352,4.882812,10.253906
5664,-0.133789,0.124756,1.060181,-2.014160,5.920410,11.291504
5673,-0.122437,0.323486,0.989014,-2.563477,7.080078,13.061523
5683,-0.107544,0.401855,0.997314,-1.037598,8.361816,14.770508
5693,-0.079102,0.084717,0.993896,1.403809,9.094238,16.967773
5705,-0.132202,-0.325562,1.098267,2.197266,8.605957,16.479492
5714,-0.169556,-0.127075,1.159424,0.854492,8.544922,15.502930
5724,-0.183594,0.090332,1.119629,-0.183105,8.850098,14.343262
5733,-0.188965,0.034302,0.917358,0.122070,10.009766,12.878418
5744,-0.140381,0.155518,0.883667,1.464844,10.742188,11.596680
5755,-0.171631,-0.297974,0.709229,3.784180,11.901855,10.009766
5764,-0.180786,-0.564941,0.963257,2.990723,12.695313,9.521484
5775,-0.276611,-0.428345,1.072510,0.732422,13.671875,8.789063
5784,-0.222778,-0.178101,1.196411,-1.403809,14.709473,7.690430
5794,-0.224487,-0.142578,1.027832,-2.136230,15.686035,6.652832
5803,-0.120361,0.093628,1.010254,-1.831055,16.235352,6.042480
5814,-0.127075,0.001831,0.880249,-0.549316,15.625000,4.943848
5823,-0.081665,-0.122803,0.873047,0.671387,14.587402,3.723145
5833,-0.015869,-0.127686,0.943481,1.281738,14.465332,3.051758
5845,0.845215,-0.730347,1.025146,-0.061035,14.221191,4.577637
5854,0.660156,-0.076416,0.878662,-1.464844,12.756348,8.666992
5863,0.416016,-0.130127,0.587524,-0.671387,8.850098,12.329102
5874,0.307983,-0.177490,0.907715,2.136230,5.310059,13.671875
5883,0.551270,-0.909912,1.341309,5.859375,4.333496,15.258789
5894,0.578247,-1.314331,1.181885,5.065918,4.455566,17.761230
5903,0.504272,-0.601929,1.149414,-0.549316,3.173828,22.766113
5915,0.658813,-0.044800,0.985718,-2.380371,0.549316,26.000977
5924,0.348633,-0.260498,0.835083,0.122070,-2.258301,31.127930
5934,0.260864,-0.101685,0.833252,0.488281,-4.638672,33.630371
5944,0.241943,0.013916,1.054688,0.061035,-5.126953,35.400391
5953,0.283813,-0.026001,1.138428,-0.305176,-4.089355,38.513184
5963,0.276611,-0.081543,1.155762,-0.915527,-2.807617,41.076660
5975,0.168945,0.035034,1.117065,-1.831055,-2.502441,43.090820
5984,0.095215,0.152954,1.093872,-1.464844,-5.676270,40.954590
5994,0.028442,0.003052,1.011353,-0.488281,-9.033203,36.132812
6003,0.069580,-0.034058,1.001709,0.488281,-11.779785,30.761719
6014,0.126221,-0.240479,0.983643,0.976562,-14.465332,25.512695
6023,0.143921,-0.306641,0.940796,0.488281,-16.967773,20.202637
6033,0.113281,-0.009155,1.162354,-0.488281,-19.104004,15.380859
6045,0.235107,0.207642,0.929077,-1.037598,-20.446777,7.629395
6055,0.227295,0.256226,0.933350,-0.427246,-23.071289,5.554199
6064,0.142334,0.010132,0.826416,0.671387,-24.108887,3.784180
6073,0.091187,0.151489,0.887939,1.159668,-24.230957,2.258301
6083,0.082031,0.129639,1.142334,1.037598,-23.986816,0.549316
6094,0.174072,-0.033325,1.057617,0.427246,-23.620605,-1.098633
6103,0.136475,0.048096,1.078003,-0.793457,-23.193359,-2.807617
6115,0.049194,0.092773,0.960449,-1.586914,-22.827148,-6.652832
6124,-0.043091,0.149780,0.907837,-1.953125,-23.071289,-8.972168
6134,-0.032593,-0.005127,0.875244,-1.953125,-22.949219,-12.023926
6143,0.000977,-0.047852,0.909424,-2.563477,-22.644043,-14.953613
6154,0.067505,-0.004761,0.960693,-3.112793,-22.827148,-17.639160
6163,0.077393,-0.111084,0.965454,-3.662109,-22.521973,-19.531250
6175,0.072388,-0.160767,0.925781,-4.211426,-21.911621,-21.423340
6184,0.055786,-0.123901,0.947876,-4.516602,-21.301270,-20.996094
6194,0.048218,-0.026001,1.006104,-4.577637,-20.568848,-20.324707
6203,0.017456,-0.244385,0.850098,-4.028320,-20.568848,-19.531250
6214,0.074219,-0.046997,0.789917,-3.112793,-19.653320,-18.737793
6223,0.124146,-0.121338,0.721924,-2.258301,-19.348145,-17.822266
6234,0.207764,-0.068481,0.800293,-1.220703,-19.042969,-16.784668
6243,0.208374,-0.315186,0.894287,0.000000,-18.981934,-15.197754
6255,0.190918,-0.407959,1.115479,0.183105,-18.554687,-10.925293
6265,0.118774,-0.406860,1.075562,-0.915527,-17.150879,-8.544922
6274,0.027954,-0.264648,1.054321,-1.220703,-16.540527,-7.263184
6284,-0.075439,-0.535034,0.926758,-0.854492,-15.502930,-6.530762
6294,-0.090820,-0.490112,0.924683,-0.671387,-14.282227,-6.347656
6304,-0.082397,-0.357422,0.953491,-0.854492,-13.549805,-6.713867
6313,-0.072266,-0.491089,0.896729,-1.220703,-13.854980,-8.361816
6323,-0.108643,-0.318237,1.012329,-1.037598,-14.343262,-13.244629
6333,-0.113647,-0.417114,1.056519,0.305176,-14.221191,-15.258789
6344,-0.166382,-0.419434,1.045654,1.281738,-13.732910,-16.479492
6354,-0.123535,-0.296753,1.060791,1.770020,-12.023926,-16.845703
6363,-0.093994,-0.268066,1.049316,1.647949,-9.826660,-16.479492
6373,-0.043945,-0.287720,1.069458,1.586914,-8.361816,-16.174316
6385,-0.017700,-0.321533,1.019897,2.136230,-7.751465,-16.052246
6395,-0.067383,-0.067261,0.977295,1.464844,-6.835937,-15.502930
6404,-0.084351,-0.085815,0.981934,0.610352,-5.432129,-14.648438
6414,-0.099121,-0.136841,0.919312,-0.366211,-3.723145,-13.610840
6424,-0.141357,-0.269409,0.780029,-1.220703,-2.624512,-12.695313
6434,-0.216064,-0.179321,0.773926,-1.831055,-1.159668,-11.352539
6444,-0.226196,0.067383,0.873901,-2.441406,0.122070,-9.765625
6454,-0.233887,0.044067,0.864380,-3.173828,1.403809,-7.873535
6463,-0.253540,-0.070557,0.900513,-3.784180,3.295898,-3.540039
6475,-0.236450,0.189697,1.013916,-4.150391,4.211426,-0.976562
6484,-0.243652,0.107910,1.025391,-3.967285,5.126953,1.892090
6494,-0.268188,-0.015625,1.054443,-3.662109,6.286621,4.272461
6503,-0.244263,-0.016724,1.122070,-3.417969,7.812500,6.713867
6514,-0.224365,0.006836,1.111938,-3.112793,8.728027,8.422852
6523,-0.253662,0.039917,1.087646,-2.624512,9.338379,9.216309
6536,-0.261719,0.209473,1.088989,-1.220703,10.864258,8.789063
6545,-0.181274,0.145264,1.112183,-0.915527,11.047363,8.117676
6554,-0.142456,0.073242,1.095093,-0.793457,11.230469,6.774902
6564,-0.112549,0.061646,1.074951,-0.366211,11.047363,5.493164
6573,-0.092651,0.118530,1.070435,-0.244141,11.169434,4.455566
6584,-0.055054,0.171875,1.094116,-0.061035,11.474609,3.784180
6593,-0.130371,0.028442,1.016968,-0.427246,12.145996,2.929688
6605,-0.038086,-0.047241,1.032349,-1.892090,13.366699,0.671387
6615,0.094604,-0.128296,0.972778,-2.502441,12.451172,-0.854492
6625,-0.017578,-0.133179,0.995361,-2.746582,9.887695,-2.380371
6634,-0.159912,-0.258667,0.797119,-2.746582,7.263184,-4.150391
6644,-0.154053,-0.219482,0.647095,-2.868652,7.751465,-4.394531
6654,-0.039429,-0.153931,0.781860,-3.601074,10.437012,-2.075195
6663,0.041626,-0.379272,0.843994,-4.699707,13.427734,0.183105
6676,-0.104126,-0.162354,0.998047,-5.615234,14.343262,-0.244141
6685,-0.200928,-0.275757,0.887085,-5.371094,13.610840,-2.136230
6695,-0.214355,-0.249512,0.915894,-5.065918,14.282227,-4.211426
6704,-0.161987,-0.038696,1.012695,-4.272461,15.380859,-5.676270
6714,-0.135620,-0.176758,0.985474,-3.540039,16.052246,-7.141113
6724,-0.140259,-0.289917,0.962769,-2.197266,16.662598,-8.361816
6733,-0.162842,-0.134399,0.983765,-0.671387,17.456055,-8.544922
6745,-0.094971,-0.215576,0.839722,1.098633,19.775391,-6.958008
6755,-0.090454,-0.367432,0.852417,3.723145,20.690918,-5.737305
6764,-0.058105,-0.429687,0.886108,3.540039,21.728516,-3.906250
6774,-0.084839,-0.401978,0.903687,2.990723,23.254395,-1.586914
6783,-0.049316,-0.428467,0.962646,2.319336,24.597168,0.732422
6793,-0.022583,-0.377930,1.040283,1.464844,25.390625,3.051758
6805,0.022827,-0.361450,0.959351,-0.061035,24.658203,6.042480
6814,0.060303,-0.450562,0.917114,-1.281738,23.925781,8.056641
6825,0.202148,-0.346436,0.925049,-2.441406,23.254395,10.437012
6834,0.246460,-0.183228,0.925781,-2.868652,22.094727,13.061523
6843,0.239136,-0.201416,0.964233,-2.197266,20.935059,16.479492
6854,0.222534,-0.227661,0.970703,-1.770020,19.836426,19.531250
6864,0.175537,-0.239746,0.961548,-1.708984,19.104004,22.277832
6873,0.203735,-0.229126,1.022705,-2.014160,18.798828,24.414062
6885,0.230347,-0.130981,0.965820,-2.502441,18.005371,28.503418
6894,0.324585,-0.059937,0.992554,-2.258301,15.869141,29.418945
6904,0.337280,-0.031250,1.039307,-1.831055,13.610840,29.968262
6913,0.327393,0.027954,1.003662,-1.037598,10.925293,30.090332
6923,0.283081,0.029541,0.962646,-0.061035,8.789063,30.273437
6934,0.276367,-0.055298,0.950684,0.732422,6.896973,30.517578
6943,0.269409,0.007935,0.949585,0.915527,5.249023,31.311035
6955,0.338989,0.052124,1.126221,0.976562,2.380371,32.958984
6965,0.311768,0.018311,1.112061,1.159668,0.854492,33.874512
6974,0.254395,0.015137,1.091797,0.976562,-0.183105,35.095215
6983,0.306274,0.028809,1.127686,0.915527,-1.342773,36.132812
6994,0.263916,0.088135,1.147339,1.159668,-3.479004,36.499023
7004,0.282349,0.074097,1.095337,1.342773,-5.493164,36.010742
7013,0.278076,0.064697,1.094604,1.281738,-7.568359,35.583496
7025,0.163696,0.144531,1.225464,0.671387,-11.962891,32.165527
7035,0.098022,0.150635,1.203369,0.671387,-13.793945,29.418945
7044,0.054443,0.187622,1.119629,1.159668,-14.770508,26.428223
7053,-0.020508,0.139526,1.036377,1.464844,-15.258789,23.315430
7064,-0.115356,0.016602,0.950073,1.953125,-14.770508,21.118164
7073,-0.139526,-0.026001,0.860596,2.258301,-14.282227,18.920898
7085,-0.131958,0.044312,0.855591,1.831055,-14.526367,13.305664
7094,-0.077271,-0.145874,0.730469,1.159668,-15.136719,10.192871
7105,-0.049194,-0.095093,0.792358,0.122070,-15.441895,7.080078
7115,-0.005859,-0.027954,0.895996,-0.732422,-15.991211,4.150391
7124,0.015747,-0.050171,0.934814,-1.281738,-16.052246,1.831055
7134,0.016357,-0.161865,1.004272,-1.220703,-15.991211,-0.122070
7143,0.037354,-0.179443,1.058105,-0.610352,-16.113281,-2.075195
7155,0.016235,-0.260132,1.067261,-0.427246,-15.747070,-4.943848
7164,0.003052,-0.254761,1.051880,-0.854492,-15.258789,-6.164551
7174,0.063110,-0.214844,1.047241,-0.976562,-15.014648,-6.896973
7184,0.131226,-0.119019,0.954346,-0.610352,-15.014648,-7.812500
7193,0.139648,-0.153931,0.900024,0.488281,-14.953613,-8.239746
7204,0.157715,-0.185791,0.813110,1.342773,-14.709473,-7.995605
7214,0.215332,-0.177856,0.832275,1.525879,-14.526367,-7.263184
7224,0.212769,-0.190430,0.804810,0.854492,-14.648438,-6.225586
7233,0.207153,-0.256836,0.855591,0.000000,-14.221191,-2.136230
7245,0.164795,-0.156006,1.057739,-0.366211,-14.953613,0.122070
7254,0.118286,-0.085083,1.215820,-0.854492,-15.380859,1.464844
7264,0.097534,-0.059448,1.263184,-0.915527,-15.808105,2.502441
7273,0.128418,-0.148071,1.148193,-0.061035,-16.479492,2.868652
7284,0.093628,-0.146606,0.998413,0.793457,-17.456055,2.014160
7293,0.054565,-0.219482,0.975708,1.647949,-18.127441,1.525879
7305,-0.022461,-0.285034,0.822876,2.075195,-17.944336,1.281738
7315,-0.117310,-0.329712,0.832520,1.342773,-15.563965,1.953125
7324,-0.097656,-0.379150,0.879883,0.244141,-13.732910,3.295898
7334,-0.115845,-0.304932,0.969482,-1.525879,-12.145996,4.333496
7343,-0.150024,-0.250854,1.100464,-2.258301,-11.535645,4.455566
7354,-0.134888,-0.175659,1.106445,-2.380371,-11.779785,3.540039
7363,-0.082886,-0.177734,1.015869,-1.708984,-11.901855,1.892090
7375,-0.117432,-0.200806,0.899658,-0.732422,-13.244629,-3.845215
7385,-0.151978,-0.158813,0.908081,1.586914,-13.366699,-6.896973
7395,-0.206299,-0.219116,0.948608,1.708984,-12.695313,-9.704590
7404,-0.263184,-0.252441,1.015259,1.342773,-11.962891,-12.817383
7414,-0.218506,-0.273560,1.002930,0.793457,-10.986328,-15.258789
7423,-0.239746,-0.249512,0.976074,0.122070,-10.070801,-17.517090
7433,-0.233276,-0.187744,0.975342,-0.488281,-9.155273,-19.287109
7445,-0.113525,-0.134521,0.958984,-0.671387,-6.042480,-20.935059
7455,-0.165649,-0.068115,1.014404,-1.281738,-4.760742,-21.789551
7464,-0.114136,-0.006592,1.055298,-1.037598,-3.906250,-23.254395
7474,-0.135132,-0.037109,1.046753,-0.488281,-2.990723,-25.085449
7484,-0.162109,-0.088257,0.971069,0.610352,-2.197266,-26.611328
7494,-0.163940,-0.086182,0.982422,0.915527,-1.159668,-27.282715
7503,-0.141113,-0.057861,0.978516,0.671387,0.488281,-26.916504
7515,-0.140259,-0.128174,0.829590,0.549316,4.577637,-23.254395
7525,-0.186279,-0.107178,0.839600,-0.122070,6.591797,-19.958496
7534,-0.148926,-0.087769,0.913330,-1.159668,9.216309,-15.930176
7544,-0.153809,-0.034546,1.059326,-2.319336,11.291504,-11.962891
7554,-0.110962,0.038818,1.121094,-3.051758,12.939453,-8.666992
7563,-0.078979,0.053833,1.087402,-2.746582,13.916016,-6.103516
7575,-0.052368,0.000488,1.031738,-1.831055,14.343262,0.549316
7584,-0.030273,-0.048706,0.926025,-1.708984,14.892578,4.394531
7594,-0.036743,-0.040894,0.899292,-1.892090,16.235352,9.155273
7604,-0.025513,-0.001831,0.873169,-2.441406,17.578125,14.099121
7613,-0.061035,0.051025,0.895264,-2.990723,18.676758,18.615723
7624,-0.079346,0.032349,0.971802,-3.173828,19.104004,22.216797
7634,-0.071289,-0.011230,1.046509,-2.929688,18.798828,24.108887
7643,-0.094482,-0.133423,1.052856,-2.502441,17.761230,24.963379
7655,-0.003174,-0.215332,0.950195,-2.258301,15.014648,24.291992
7665,0.026611,-0.234253,0.848877,-3.662109,13.671875,23.681641
7674,0.036377,-0.074951,0.809814,-4.394531,12.512207,23.498535
7683,0.098633,0.132324,0.863892,-4.333496,11.840820,23.437500
7694,0.086914,0.133545,0.854736,-3.234863,11.596680,23.681641
7703,0.076538,-0.032715,0.858032,-2.319336,10.559082,23.437500
7713,0.114014,-0.135742,0.933105,-2.502441,9.582520,23.193359
7725,0.076416,-0.110474,1.134521,-3.540039,8.666992,20.751953
7734,0.038696,-0.018921,1.066650,-5.432129,6.835937,18.310547
7744,0.002319,-0.011841,0.929687,-4.882812,6.286621,15.869141
7753,0.004395,-0.091187,0.819702,-4.638672,5.554199,12.878418
7764,-0.027344,-0.115723,0.853882,-4.699707,4.333496,10.009766
7774,-0.008545,-0.015991,1.016724,-5.249023,3.173828,7.385254
7784,0.028320,0.074707,1.142212,-5.371094,2.685547,6.042480
7795,0.117676,0.078735,1.118164,-4.272461,1.770020,7.507324
7805,0.151001,0.109985,1.104248,-3.723145,1.525879,9.155273
7814,0.137207,0.098877,1.134399,-2.807617,1.892090,11.291504
7824,0.107178,0.026611,1.078613,-2.136230,1.708984,13.061523
7833,0.124756,-0.028931,1.078491,-1.525879,1.281738,13.793945
7844,0.062500,-0.028687,1.034058,-0.915527,0.793457,13.610840
7853,0.024048,-0.040405,1.015747,-0.427246,0.061035,12.756348
7865,-0.001709,-0.090454,1.014404,0.000000,-0.915527,10.070801
7875,0.012451,-0.091309,1.037354,-0.427246,-1.647949,9.643555
7884,0.030273,-0.079956,1.039551,-0.732422,-1.525879,9.765625
7894,0.021118,-0.091187,1.000610,-1.647949,-1.464844,10.681152
7903,-0.022461,-0.075195,0.935913,-2.319336,-1.159668,12.084961
7913,0.009399,-0.017090,0.934082,-2.441406,-1.037598,13.122559
7924,-0.051758,0.088501,0.968262,-2.441406,-0.671387,14.404297
7933,0.011963,0.234497,1.113037,-0.549316,-0.732422,14.526367
7944,-0.013916,0.148560,1.234497,1.464844,-1.464844,13.549805
7954,-0.002197,-0.033325,1.161987,3.173828,-2.197266,12.268066
7964,0.038330,-0.172974,1.045166,4.211426,-2.685547,11.108398
7974,0.028198,-0.188721,0.959595,3.845215,-3.417969,10.437012
7983,0.073853,-0.160767,0.929199,2.990723,-3.417969,9.521484
7994,0.076172,-0.088379,0.936646,2.075195,-3.295898,8.544922
8005,0.105957,-0.117065,1.011108,1.953125,-3.845215,5.981445
8015,0.014526,-0.046997,1.004150,2.014160,-5.310059,2.868652
8024,0.006714,-0.032471,0.966553,2.685547,-6.347656,-0.549316
8034,0.033081,-0.099121,0.904785,3.112793,-7.324219,-3.723145
8043,0.053711,-0.220825,0.840454,2.990723,-7.568359,-6.164551
8054,0.095215,-0.213867,0.879517,2.014160,-7.690430,-7.934570
8064,0.133789,-0.133667,0.936279,1.037598,-7.690430,-9.826660
8076,0.114990,-0.107056,0.945923,0.793457,-6.469727,-9.765625
8085,0.050903,-0.157471,0.950806,0.427246,-6.347656,-9.399414
8095,0.058228,-0.125977,1.051636,-0.366211,-5.737305,-8.972168
8104,-0.006836,-0.026367,1.100586,-1.159668,-5.310059,-8.239746
8114,-0.003540,0.048462,1.057129,-1.098633,-4.699707,-7.446289
8124,-0.026611,-0.005493,0.949463,-0.854492,-4.211426,-6.347656
8134,-0.009644,-0.033936,0.957642,-0.305176,-3.295898,-4.516602
8143,-0.036865,0.013062,1.029053,0.061035,-2.197266,-0.549316
8154,-0.032837,0.035278,1.154785,0.366211,-1.464844,1.586914
8163,0.005615,-0.101074,1.111816,0.793457,-0.732422,3.417969
8174,0.017822,-0.174561,1.078003,1.464844,-0.427246,4.882812
8184,-0.008911,-0.274902,1.035889,1.586914,-0.488281,5.920410
8194,0.032715,-0.404419,0.968262,0.793457,-0.732422,6.286621
8203,-0.018555,-0.455200,0.844604,-0.305176,-0.915527,6.286621
8215,0.024780,-0.111572,0.902710,-1.647949,-1.159668,5.920410
8224,0.026611,-0.109741,0.952271,-3.967285,-1.403809,6.042480
8234,-0.008789,-0.076172,1.044922,-4.272461,-1.464844,6.103516
8244,0.016113,0.034424,1.147095,-4.028320,-1.525879,6.103516
8254,-0.037109,0.067871,1.230713,-3.356934,-1.647949,5.798340
8264,-0.005737,0.059448,1.220825,-1.647949,-1.770020,5.554199
8275,-0.038208,-0.047485,1.135254,1.892090,-1.586914,5.737305
8285,-0.008057,-0.204346,0.968384,2.380371,-1.770020,5.065918
8294,0.035156,-0.133545,0.906738,1.831055,-1.953125,4.028320
8304,0.021362,0.069092,0.857178,0.915527,-2.197266,2.929688
8313,0.027100,0.147827,0.827637,0.915527,-2.441406,1.892090
8324,0.004272,0.057617,0.861572,1.708984,-2.563477,1.037598
8334,0.040649,-0.044922,0.936401,2.563477,-2.868652,0.488281
8344,0.024048,-0.182617,1.002075,2.929688,-3.234863,-0.854492
8355,0.005981,-0.193359,0.975586,1.525879,-3.173828,-1.403809
8365,0.010620,-0.119995,0.965332,0.671387,-3.173828,-1.953125
8374,-0.022705,0.006592,1.015503,0.671387,-3.356934,-2.258301
8384,-0.027710,0.018311,1.014404,1.159668,-3.295898,-2.258301
8394,-0.017090,-0.101440,0.968994,1.220703,-3.051758,-2.136230
8403,-0.034912,-0.126709,0.929199,0.671387,-2.746582,-1.831055
8415,0.015869,-0.066284,0.927856,-0.732422,-1.342773,-0.061035
8425,0.041016,-0.069824,0.907227,-0.976562,-0.976562,0.976562
8434,0.029663,-0.171875,0.937500,-1.586914,-0.671387,2.014160
8444,0.058716,-0.200684,1.013550,-2.319336,-0.305176,2.563477
8453,0.003174,-0.101074,1.009399,-3.479004,-0.366211,2.807617
8464,-0.052490,0.012695,0.965698,-4.150391,-0.305176,3.051758
8474,-0.021240,0.152588,0.984253,-3.662109,-0.488281,3.234863
8483,-0.022461,0.201538,0.998779,-1.831055,-0.305176,3.479004
8495,-0.007813,-0.223145,1.014771,-0.671387,-0.854492,3.234863
8504,0.036011,-0.294067,1.052124,0.000000,-1.281738,2.746582
8514,0.010254,-0.245972,0.988403,-0.549316,-1.342773,2.502441
8524,0.036133,-0.244873,0.990356,-1.098633,-0.976562,2.502441
8534,0.066162,-0.269775,1.028076,-2.075195,-1.098633,2.319336
8543,0.016602,-0.265137,1.057373,-3.540039,-1.037598,2.380371
8555,0.046753,-0.201904,1.097046,-5.432129,-0.854492,2.319336
8564,0.011719,0.036743,1.030029,-5.004883,-0.793457,2.441406
8574,0.027832,0.113770,1.106201,-4.028320,-1.037598,2.441406
8583,0.034302,0.073242,1.176392,-2.685547,-1.220703,2.624512
8594,0.020020,-0.048828,1.160400,-1.586914,-1.586914,2.563477
8604,0.016602,-0.164307,1.099121,-1.281738,-1.953125,2.197266
8614,-0.005249,-0.254761,1.023438,-1.647949,-2.136230,2.075195
8623,-0.001343,-0.175659,0.991577,-2.624512,-1.892090,2.014160
8635,-0.007324,0.131836,1.053589,-2.868652,-1.464844,2.136230
8644,-0.003784,0.015869,1.010864,-1.098633,-1.159668,2.380371
8654,0.003296,-0.133667,0.951904,-0.549316,-1.464844,2.380371
8663,0.007202,-0.154663,0.939087,-1.037598,-1.953125,2.197266
8674,0.022095,-0.293457,0.641968,-2.197266,-2.258301,2.014160
8683,0.038330,-0.347046,0.458252,-4.516602,-2.319336,1.525879
8695,0.016479,-0.240601,0.346924,-9.704590,-2.014160,2.868652
8705,-0.065063,0.602905,1.247070,-10.437012,-1.647949,4.333496
8714,-0.074829,0.753662,1.647217,-7.629395,-1.342773,5.126953
8724,-0.036621,0.837280,2.118042,-2.380371,0.000000,6.469727
8733,-0.009888,0.063232,1.559692,4.943848,0.610352,8.850098
8744,-0.007324,-0.304199,1.207886,8.300781,1.464844,11.413574
8754,0.031494,-0.507935,0.826416,8.117676,1.525879,14.770508
8765,0.008545,-0.477417,0.342163,-0.976562,0.183105,16.845703
8774,-0.058228,0.366333,0.632690,-4.028320,-0.854492,17.822266
8785,-0.066284,0.442017,0.844482,-2.197266,-1.159668,17.333984
8794,-0.176147,0.036621,1.099609,2.014160,-0.244141,16.357422
8804,-0.154785,-0.485962,1.142944,4.516602,1.037598,17.395020
8813,-0.147583,-0.484619,1.087524,2.990723,1.831055,18.371582
8824,-0.140503,-0.129272,0.933350,-0.366211,2.319336,19.592285
8834,-0.053345,0.037476,0.616455,-2.136230,2.014160,20.874023
8845,0.063965,-0.412964,0.379395,0.549316,-2.807617,21.667480
8854,0.103149,-0.510498,0.714111,-0.610352,-5.859375,21.240234
8864,0.157715,-0.933350,0.372437,-2.868652,-7.385254,20.996094
8873,0.087402,-1.125732,-0.421021,-5.676270,-9.399414,19.409180
8884,0.022705,-0.968506,-0.722412,-10.009766,-10.009766,18.371582
8894,0.057495,-1.712524,-1.764038,-15.930176,-8.605957,18.371582
8904,0.085693,-1.557983,-1.358276,-27.282715,-7.263184,17.089844
8913,0.004395,-1.515015,-0.829590,-50.781250,-7.934570,11.596680
8924,0.027222,-0.731445,1.397339,-56.579590,-10.314941,7.751465
8933,0.191772,0.033936,2.592651,-56.579590,-12.878418,3.845215
8944,0.143677,1.106445,3.989502,-50.109863,-14.892578,1.770020
8953,0.300781,1.566162,3.999512,-35.034180,-15.808105,1.281738
8964,0.364380,0.527100,3.978638,-9.460449,-16.052246,4.089355
8975,0.426392,-1.325928,2.881836,23.132324,-19.531250,5.798340
8985,-0.032593,-2.147827,0.651855,12.268066,-23.071289,-0.305176
8994,-0.449097,-1.399902,0.254883,-2.563477,-23.315430,-6.774902
9004,-0.421997,-1.010010,1.030884,-9.399414,-19.836426,-11.535645
9014,-0.116577,-0.974365,1.909180,-9.155273,-17.883301,-17.578125
9024,-0.199829,-0.381958,1.924561,-8.239746,-17.578125,-23.925781
9034,0.128052,-0.039429,2.030029,-4.821777,-19.714355,-30.944824
9044,0.602783,1.155884,2.927612,1.281738,-21.606445,-49.011230
9055,0.413940,1.873047,3.995239,29.907227,-36.010742,-62.316895
9065,-1.014648,2.716431,3.999512,45.043945,-34.973145,-71.838379
9075,-1.261841,3.836304,3.999512,58.532715,-19.958496,-77.453613
9084,-0.284790,3.999512,3.999512,68.054199,-0.183105,-60.241699
9094,0.546387,3.999512,3.717285,77.575684,4.394531,-50.537109
9104,0.838867,2.962524,2.437256,96.740723,-3.723145,-49.499512
9115,0.655518,1.842896,1.577026,112.915039,-12.939453,-38.940430
9125,-0.034180,1.703003,0.273315,109.436035,-16.296387,-38.208008
9134,-0.416748,1.288208,-0.540649,107.299805,-16.052246,-39.855957
9144,-0.287109,0.766357,-0.473511,106.262207,-10.620117,-39.733887
9154,-0.460571,0.136353,-0.208740,104.003906,-5.981445,-35.461426
9164,-0.278564,-0.208252,-0.013428,96.496582,-1.342773,-30.029297
9174,-0.466431,-0.224976,-0.257202,85.144043,1.647949,-26.672363
9184,-0.208252,0.033447,-0.574951,75.256348,2.014160,-27.893066
9195,-0.039673,-0.057495,-0.358521,68.237305,4.089355,-26.916504
9205,-0.036987,-0.436035,-0.055054,66.284180,6.408691,-22.033691
9214,0.001953,-0.678955,-0.013550,60.668945,8.117676,-15.625000
9224,-0.137573,-0.644653,-0.165527,52.551270,9.643555,-9.948730
9233,-0.197144,-0.440308,-0.303467,44.738770,11.169434,-4.333496
9244,-0.179565,-0.319580,-0.295532,40.100098,13.427734,2.563477
9254,-0.086182,-0.483276,-0.274170,38.269043,16.357422,26.000977
9265,0.119385,-0.788940,-0.155029,31.616211,19.226074,23.193359
9275,0.078735,-0.885010,-0.238037,25.329590,19.165039,27.893066
9284,0.083374,-0.849854,-0.275635,19.104004,19.409180,32.714844
9294,0.085205,-0.825195,-0.255249,13.793945,19.348145,36.926270
9304,0.095215,-0.883057,-0.197266,9.094238,19.104004,40.222168
9314,0.094604,-0.946167,-0.165039,4.089355,18.554687,41.870117
9324,0.127930,-0.994019,-0.186035,-1.342773,17.333984,42.175293
9333,0.102173,-0.958130,-0.219971,-13.610840,15.136719,39.855957
9344,0.064575,-0.786133,-0.228027,-18.493652,13.427734,37.597656
9353,0.049805,-0.791382,-0.200317,-22.583008,12.390137,34.973145
9364,0.052002,-0.832397,-0.235840,-26.977539,11.047363,32.043457
9375,0.048218,-0.847412,-0.264771,-32.348633,9.643555,29.174805
9384,0.049438,-0.849609,-0.356812,-38.452148,8.239746,26.733398
9394,0.061157,-0.719360,-0.398926,-44.799805,7.080078,24.536133
9406,0.061401,-0.785156,-0.431274,-56.396484,4.455566,20.141602
9415,0.066040,-0.773682,-0.435425,-62.805176,3.662109,17.761230
9424,0.049072,-0.750854,-0.533813,-69.885254,2.441406,15.380859
9434,0.071167,-0.687622,-0.630737,-77.209473,1.281738,12.451172
9444,0.077148,-0.591797,-0.677856,-84.350586,0.000000,9.338379
9454,0.075439,-0.482544,-0.734253,-91.491699,-1.770020,6.347656
9466,0.092773,-0.402466,-0.791748,-105.407715,-4.699707,-0.122070
9476,0.068970,-0.367432,-0.832642,-112.670898,-6.347656,-3.845215
9486,0.053345,-0.306274,-0.888306,-120.422363,-7.690430,-7.263184
9496,0.032104,-0.259644,-0.967651,-127.990723,-8.666992,-10.559082
9505,0.026245,-0.073853,-0.984253,-135.620117,-9.765625,-14.343262
9515,-0.188354,3.984619,3.938721,-141.235352,-9.033203,-19.775391
9525,0.330566,3.999512,3.999512,-95.764160,-8.483887,-3.112793
9534,0.095093,-3.999512,1.567505,-40.222168,-15.869141,-21.789551
9544,-0.654053,3.969238,2.530884,-106.384277,-4.577637,-29.357910
9554,0.624512,3.999512,3.999512,-85.876465,-4.821777,-24.108887
9564,0.590088,-2.561768,-3.101929,1.708984,-22.338867,-18.981934
9574,-0.188965,-1.449219,3.999512,19.836426,-23.132324,-22.521973
9584,0.648560,1.220215,3.999512,-14.648438,-15.686035,-24.047852
9594,0.750977,-0.258667,1.883911,-16.723633,-18.432617,-17.272949
9606,0.187988,1.002563,0.820435,3.234863,-14.404297,-4.394531
9616,0.312744,-1.200684,1.640381,19.470215,-13.305664,-1.464844
9626,0.543457,-2.503418,1.465576,13.977051,-13.000488,-5.371094
9635,-0.179077,-1.050781,1.333984,-9.765625,-14.709473,-14.648438
9645,-0.440063,0.605957,1.013916,-23.681641,-14.282227,-25.146484
9654,-0.265625,0.880981,1.116333,-14.587402,-12.023926,-31.860352
9664,-0.267578,0.087524,2.005127,2.502441,-12.634277,-39.794922
9674,0.022095,-0.546143,2.382202,9.826660,-15.197754,-50.048828
9685,-0.255859,0.310913,1.524292,6.225586,-20.019531,-63.659668
9695,-0.447144,0.598877,1.102417,13.549805,-19.531250,-69.335937
9704,-0.435425,0.286133,0.939941,24.230957,-15.258789,-70.068359
9714,-0.242676,-0.102295,0.964722,29.357910,-8.972168,-67.932129
9724,-0.161865,-0.294434,0.876953,27.709961,-3.417969,-65.246582
9735,-0.176880,-0.047729,0.605347,24.108887,0.976562,-62.011719
9744,-0.303223,0.137939,0.379150,21.972656,9.826660,-47.424316
9754,-0.328491,0.030762,0.221924,23.132324,15.502930,-38.208008
9764,-0.300903,-0.016602,0.542603,21.667480,19.470215,-30.578613
9774,-0.282104,0.124878,0.715088,19.592285,22.277832,-25.024414
9784,-0.325684,0.130859,0.663330,18.249512,22.766113,-20.446777
9794,-0.372803,0.030151,0.492554,17.700195,23.437500,-16.662598
9804,-0.286011,-0.116455,0.375732,17.211914,25.085449,-11.657715
9814,-0.229370,-0.306152,0.383423,15.380859,26.977539,-2.502441
9826,-0.073242,0.067017,0.687012,9.826660,30.029297,3.723145
9835,-0.028198,0.124878,0.788208,8.239746,32.104492,11.474609
9844,-0.018677,0.004639,0.699341,7.629395,33.935547,19.836426
9854,-0.001465,-0.120239,0.626587,7.446289,35.766602,26.977539
9864,-0.029175,-0.098389,0.738281,6.164551,36.132812,32.470703
9874,-0.026855,-0.091309,0.795288,4.211426,35.278320,36.804199
9884,-0.049438,0.095703,0.898560,3.051758,34.484863,40.893555
9895,-0.071411,-0.142578,0.925415,4.089355,31.616211,41.503906
9905,-0.008057,-0.125488,1.000732,3.784180,30.517578,41.870117
9914,0.052124,-0.263062,0.940552,2.380371,28.503418,42.541504
9924,0.142212,-0.188354,0.904053,1.098633,26.977539,43.762207
9934,0.129639,-0.049805,0.861816,0.122070,25.634766,45.471191
9944,0.108154,-0.288452,0.778320,-0.366211,24.291992,47.119141
9956,0.015625,-0.526123,0.665405,-3.845215,21.057129,48.767090
9966,-0.056641,-0.391724,0.827515,-8.117676,19.592285,48.400879
9975,-0.113770,-0.176147,0.874146,-12.817383,18.005371,46.875000
9985,-0.112549,0.176270,0.975342,-15.258789,16.723633,44.555664
9994,-0.144653,0.486084,1.253418,-14.343262,15.991211,42.297363
10004,-0.163940,0.317627,1.456421,-10.864258,15.441895,40.039062
10014,-0.103149,0.130615,1.510498,-7.446289,15.014648,36.865234
10024,-0.081787,0.131592,1.482788,-5.859375,14.343262,30.029297
10035,-0.066284,-0.083862,1.222778,-3.479004,12.756348,27.526855
10045,-0.075806,0.086060,1.083252,-1.892090,12.390137,25.817871
10055,-0.108398,0.098633,1.084717,-1.342773,12.207031,24.841309
10064,-0.092285,-0.141479,1.043945,-1.464844,12.207031,24.841309
10075,-0.111328,-0.227905,0.984497,-2.197266,11.779785,24.414062
10084,-0.149170,0.110352,1.028809,-2.807617,11.047363,23.864746
10096,-0.041260,0.136475,1.087280,-1.464844,10.803223,25.207520
10106,-0.029907,-0.189697,0.687134,-0.366211,10.742188,26.428223
10116,-0.001221,-0.201538,0.664551,-0.671387,10.925293,28.381348
10125,0.048340,0.090332,0.901245,-2.807617,10.986328,31.066895
10135,0.079712,0.059082,0.970825,-4.028320,11.474609,34.057617
10144,0.063843,0.055298,1.041626,-4.333496,11.352539,36.376953
10155,0.017700,0.062134,1.009277,-4.089355,10.864258,37.719727
10164,-0.013550,-0.038818,0.965088,-3.234863,9.643555,39.184570
10176,0.026978,0.021606,1.131226,-3.356934,8.911133,38.818359
10185,0.044189,-0.082764,1.083862,-3.479004,7.385254,37.536621
10194,0.006592,-0.011475,0.927612,-2.380371,6.164551,35.400391
10204,0.021362,0.019287,0.944336,-1.098633,5.065918,33.325195
10214,0.015015,-0.229614,0.896240,-0.122070,4.333496,31.372070
10225,-0.003662,-0.287354,0.932617,-0.610352,3.479004,28.930664
10234,0.013672,-0.069458,1.064697,-1.464844,2.685547,26.672363
10246,0.037964,-0.363403,0.869141,-2.258301,2.441406,26.550293
10255,0.057007,-0.100952,0.973145,-2.807617,2.014160,26.611328
10264,0.025391,-0.140747,1.079224,-2.868652,1.098633,26.306152
10274,0.010620,-0.302368,0.992065,-3.356934,0.061035,25.268555
10284,0.001953,-0.071655,1.056030,-3.540039,-0.244141,24.658203
10294,0.053589,0.054077,1.097778,-2.990723,-0.671387,23.986816
10306,-0.000122,-0.231812,0.978638,-0.915527,-1.464844,23.803711
10316,0.021973,-0.074219,1.052368,-0.122070,-1.342773,24.108887
10325,0.071289,-0.143311,1.092651,0.427246,-1.342773,24.414062
10335,0.046265,-0.366699,0.951172,0.244141,-1.586914,25.024414
10344,0.063721,-0.279663,0.920776,-0.671387,-1.708984,25.146484
10354,0.018921,-0.083130,0.990112,-1.220703,-1.831055,25.390625
10365,0.005005,-0.067749,1.017334,-1.281738,-2.441406,25.817871
10374,-0.028687,-0.213135,0.995850,-1.708984,-2.929688,25.390625
10384,-0.066650,-0.082275,0.986938,-1.953125,-3.173828,25.878906
10394,-0.008789,0.041260,1.023438,-2.075195,-3.234863,25.878906
10405,-0.008179,0.048828,1.030518,-1.831055,-3.906250,25.451660
10414,0.028320,0.002930,1.053833,-0.366211,-4.638672,24.963379
10424,0.045776,-0.006714,1.022217,1.464844,-5.310059,24.414062
10435,0.075928,0.035278,1.028442,2.563477,-5.981445,22.766113
10444,0.093750,-0.179932,1.097168,2.258301,-7.446289,17.761230
10455,0.081177,-0.342896,0.984741,1.281738,-8.483887,14.587402
10465,0.116577,-0.101074,1.064209,0.183105,-9.094238,11.535645
10474,0.103516,0.117554,1.086304,-0.183105,-9.826660,9.155273
10484,0.157471,0.050049,1.063843,0.305176,-10.437012,7.324219
10494,0.153564,-0.070923,1.003540,0.854492,-10.925293,5.615234
10504,0.130371,-0.101685,0.953491,1.098633,-11.657715,4.272461
10514,0.125000,-0.033691,0.961914,1.464844,-11.718750,1.464844
10525,0.132812,-0.045532,0.972412,0.915527,-12.512207,-0.305176
10535,0.125977,-0.075562,0.887207,0.915527,-12.878418,-1.892090
10544,0.115479,0.022949,0.930298,0.854492,-13.244629,-3.051758
10555,0.072754,0.068359,1.020752,0.915527,-12.939453,-3.967285
10564,0.079102,0.038818,1.041992,1.220703,-12.573242,-4.333496
10575,0.021851,0.023437,1.066772,1.586914,-12.329102,-3.967285
10584,0.030884,-0.021362,0.985229,2.014160,-10.742188,-2.441406
10596,0.041870,-0.028076,1.042480,1.159668,-10.192871,-0.915527
10605,0.044800,-0.045288,1.025269,1.037598,-9.765625,0.366211
10614,-0.033325,0.028442,0.918823,1.037598,-9.277344,1.159668
10624,0.010742,0.064087,0.977783,1.159668,-8.789063,1.892090
10634,0.016357,-0.086670,0.936646,1.770020,-8.178711,2.685547
10644,0.058838,-0.201172,0.858765,1.770020,-8.117676,2.746582
10656,0.087646,-0.066040,1.042236,0.061035,-8.422852,2.990723
10666,0.025146,-0.236572,0.933716,-0.488281,-8.239746,3.356934
10675,0.033325,-0.087402,0.843140,-0.549316,-7.934570,3.906250
10685,-0.003418,0.047607,1.014160,-1.159668,-7.446289,5.065918
10694,0.019043,-0.243774,0.933838,-1.220703,-6.774902,6.347656
10704,-0.003296,-0.271484,0.903320,-1.342773,-6.469727,7.080078
10715,-0.015869,-0.026855,1.020508,-2.014160,-6.774902,6.835937
10724,-0.056519,0.043823,1.121948,-2.380371,-6.835937,4.211426
10736,-0.010254,-0.192383,0.923828,-1.342773,-7.263184,2.624512
10745,0.039307,-0.125366,0.882568,-0.793457,-7.507324,0.366211
10755,0.058960,-0.006592,1.140625,-1.403809,-7.690430,-1.892090
10764,0.024536,-0.142090,1.022705,-1.770020,-7.690430,-3.417969
10774,0.104614,-0.102661,0.923218,-1.831055,-7.690430,-5.187988
10785,0.083496,0.015991,1.119141,-1.525879,-7.690430,-6.286621
10794,0.069702,0.026245,1.140137,-0.366211,-7.812500,-8.911133
10804,0.075684,-0.142944,1.013428,0.000000,-8.117676,-10.131836
10815,0.089111,0.020264,0.983765,-0.061035,-8.178711,-11.657715
10824,0.118530,0.060181,1.013306,-0.183105,-8.117676,-12.756348
10835,0.118896,-0.149170,0.938721,0.183105,-7.873535,-13.061523
10844,0.107910,-0.119263,0.897217,0.671387,-7.446289,-12.939453
10854,0.118042,-0.043701,0.992798,0.610352,-7.019043,-12.451172
10866,0.094360,-0.287354,0.933350,-1.037598,-5.676270,-10.925293
10876,0.044189,-0.076050,0.974121,-2.014160,-5.249023,-10.375977
10885,0.062256,0.106323,1.058350,-2.319336,-4.760742,-9.582520
10895,0.047729,-0.082886,0.956909,-2.014160,-4.089355,-9.094238
10904,0.030151,-0.143066,0.896729,-2.136230,-3.662109,-8.483887
10914,-0.010376,0.068970,0.997925,-2.563477,-3.295898,-7.873535
10924,-0.005127,0.145142,1.081543,-2.502441,-2.929688,-7.568359
10934,-0.017334,-0.018066,0.975220,-1.586914,-2.563477,-6.408691
10946,0.038574,-0.036011,0.953613,-0.122070,-1.892090,-5.615234
10955,0.028442,-0.110718,0.986328,-0.244141,-1.586914,-4.211426
10965,0.031372,-0.166870,0.928223,-0.854492,-1.098633,-2.319336
10975,-0.001953,-0.035156,0.936646,-1.281738,-0.549316,-0.122070
10984,0.008911,0.042480,0.983765,-1.037598,0.244141,2.197266
10994,-0.016846,-0.034668,0.934204,-0.244141,1.098633,4.028320
11006,-0.075195,-0.063232,1.065796,0.671387,2.014160,6.835937
11016,-0.097290,-0.130249,1.020630,1.159668,2.197266,7.446289
11026,-0.095459,-0.282227,0.921631,1.037598,2.075195,7.385254
11035,-0.105957,-0.129395,1.024536,0.122070,2.502441,7.568359
11045,-0.024902,0.004395,1.030518,-0.244141,2.502441,7.568359
11054,-0.003052,-0.184814,0.896484,0.488281,2.868652,8.239746
11065,-0.007568,-0.309937,0.837769,0.244141,2.929688,8.911133
11074,-0.045654,-0.138794,0.983643,-1.708984,3.051758,9.216309
11084,-0.018799,-0.070435,1.135742,-1.708984,3.356934,8.789063
11094,-0.017700,-0.286987,0.930420,-1.403809,2.929688,7.995605
11105,0.005981,-0.104370,0.938232,-1.525879,2.807617,7.202148
11114,0.041748,0.079590,1.146362,-2.075195,2.319336,6.591797
11124,-0.001343,-0.063599,1.059204,-2.502441,1.892090,5.981445
11134,0.016602,-0.088135,0.966675,-1.708984,2.319336,5.554199
11146,-0.024170,0.059937,1.113647,-0.305176,2.441406,6.591797
11156,-0.004639,-0.143311,1.097168,0.305176,2.624512,6.713867
11165,-0.068970,-0.216309,1.069946,-0.122070,2.624512,7.019043
11175,-0.057373,-0.006104,1.026733,-0.305176,2.929688,7.751465
11184,-0.017578,0.151733,1.076050,0.183105,2.990723,8.544922
11195,-0.013672,-0.089478,0.983398,0.915527,2.990723,9.460449
11204,-0.029419,-0.283325,0.850098,1.037598,3.601074,10.253906
11214,-0.029907,-0.067383,0.929443,0.671387,4.699707,12.878418
11226,-0.037354,-0.052124,0.990723,-0.366211,4.577637,13.732910
11235,-0.042725,-0.145996,0.966919,-0.183105,4.821777,14.526367
11244,-0.039917,0.062256,1.004028,0.122070,4.943848,14.770508
11255,-0.032837,0.130249,1.100098,0.854492,4.699707,14.709473
11264,-0.036255,-0.153931,1.045166,1.708984,4.272461,14.831543
11274,-0.032715,-0.262329,0.890381,1.831055,4.150391,14.892578
11284,-0.051025,-0.091919,0.918091,1.281738,3.967285,15.258789
11295,-0.039429,-0.149292,0.932007,0.549316,4.272461,16.113281
11305,-0.010498,-0.151367,0.962769,-0.183105,4.455566,16.967773
11315,-0.023926,-0.048096,1.043335,-0.549316,4.333496,17.639160
11324,-0.021362,-0.012085,1.046265,-0.244141,4.089355,18.066406
11334,-0.035034,-0.133911,1.030273,0.061035,3.601074,18.066406
11345,-0.018188,0.018433,1.042725,0.000000,3.173828,17.456055
11356,0.005981,-0.110229,0.981812,0.549316,2.990723,16.296387
11365,-0.008667,-0.287598,0.886230,2.258301,2.319336,15.930176
11374,0.004883,-0.194336,0.960083,1.464844,2.624512,16.296387
11384,0.044800,-0.158813,1.029175,0.488281,2.990723,16.662598
11394,0.011963,-0.121216,1.034912,-0.671387,3.051758,17.028809
11405,0.002930,0.007690,1.065308,-0.793457,2.807617,16.845703
11414,0.009155,0.125977,1.121948,-0.122070,2.319336,16.113281
11426,0.026489,-0.276367,0.954712,1.281738,1.953125,13.244629
11435,0.044067,-0.216553,0.979248,0.915527,0.671387,11.230469
11444,0.056763,-0.029785,1.069092,0.244141,0.122070,10.131836
11455,0.060913,-0.139771,1.008789,0.000000,-0.610352,9.521484
11464,0.094727,-0.271484,0.913330,-0.061035,-0.732422,9.216309
11474,0.062500,-0.087280,0.979858,-0.793457,-0.671387,8.422852
11484,0.059204,0.027100,1.058716,-1.464844,-0.732422,8.178711
11497,0.001221,-0.024536,0.969604,-1.403809,-0.366211,7.385254
11506,0.004150,0.053833,0.997070,-0.915527,-0.732422,7.141113
11515,0.011719,-0.231445,0.822144,-0.549316,-0.976562,7.263184
11525,0.017212,-0.253052,0.796753,-1.464844,-1.586914,7.324219
11534,0.056274,-0.129150,0.838745,-2.685547,-2.136230,7.873535
11545,0.060547,-0.063477,0.887695,-3.723145,-2.014160,8.972168
11554,0.037109,-0.137817,0.848999,-4.272461,-2.014160,10.253906
11566,0.037964,0.011353,0.986328,-4.638672,-1.220703,12.329102
11575,0.023560,-0.025757,1.004639,-5.615234,-1.220703,13.000488
11585,0.040405,0.012329,1.047363,-5.554199,-1.220703,13.183594
11594,0.041870,0.089233,1.140625,-5.187988,-1.403809,13.549805
11605,0.045532,-0.048218,1.083862,-4.089355,-1.708984,13.610840
11614,0.048828,-0.007324,1.082397,-3.051758,-2.075195,13.305664
11626,0.068726,0.065063,1.102051,-1.342773,-3.417969,11.962891
11635,0.027222,-0.248413,0.898071,-1.586914,-3.356934,11.474609
11645,-0.010742,-0.056152,1.023438,-2.258301,-3.479004,10.864258
11654,0.017578,0.036133,1.106812,-2.502441,-3.479004,10.375977
11665,-0.007202,-0.113159,1.030396,-2.136230,-3.234863,10.437012
11674,0.024048,-0.055542,1.019531,-1.892090,-3.540039,10.009766
11685,-0.001831,0.074585,1.062744,-1.464844,-3.906250,9.582520
11694,-0.000854,-0.126831,1.043457,-1.464844,-4.028320,8.972168
11706,-0.005493,0.125610,1.078613,-1.892090,-3.662109,8.056641
11716,0.012451,0.004028,1.054199,-1.708984,-3.051758,8.666992
11725,0.009644,-0.237061,0.906860,-2.136230,-2.868652,9.033203
11734,-0.028076,-0.016968,0.986328,-2.380371,-2.929688,9.460449
11745,-0.046509,0.076782,1.107666,-2.563477,-2.990723,9.643555
11755,-0.069702,-0.123413,0.958252,-2.624512,-2.929688,9.033203
11766,-0.050537,-0.072876,0.880615,-2.624512,-2.929688,7.141113
11775,-0.079712,-0.213623,0.796997,-3.234863,-3.051758,6.286621
11785,-0.089111,-0.105835,0.856445,-4.821777,-2.685547,5.615234
11794,-0.083984,0.000977,0.975464,-5.676270,-1.831055,5.676270
11805,-0.084717,0.069458,0.967651,-5.310059,-1.098633,6.225586
11814,-0.059326,0.103027,0.967041,-4.516602,-0.610352,6.347656
11825,-0.031982,0.061279,0.953491,-3.723145,-0.122070,6.713867
11834,-0.026611,0.027100,0.947266,-3.479004,0.305176,7.202148
11846,0.032227,0.132568,1.020020,-3.051758,-0.183105,7.019043
11855,0.062866,-0.039917,0.937256,-0.732422,-0.915527,6.835937
11865,0.042725,-0.008057,0.972656,0.061035,-0.976562,7.019043
11874,0.047729,0.074951,1.013306,0.061035,-1.159668,7.080078
11885,0.005981,-0.012939,0.990967,0.122070,-0.732422,7.324219
11894,0.036133,-0.021973,1.054199,-0.061035,-0.732422,7.934570
11904,-0.003906,0.007202,1.030396,0.244141,-0.305176,9.033203
11916,0.007568,-0.089966,0.985107,-0.244141,0.366211,10.925293
11925,0.073730,-0.040649,1.010864,-1.708984,-0.183105,11.047363
11935,0.122070,0.141235,1.144775,-2.441406,-1.281738,10.070801
11944,0.087524,0.075928,1.112549,-1.831055,-2.563477,8.239746
11955,0.088379,0.058838,1.069458,-0.732422,-3.601074,6.591797
11964,0.129028,0.198730,1.217529,0.183105,-3.723145,5.615234
11976,0.116821,-0.136841,1.051880,0.427246,-3.112793,4.577637
11985,0.108765,0.083740,1.119263,0.000000,-2.929688,4.272461
11996,0.093384,-0.182129,0.947876,-0.244141,-2.685547,4.089355
12005,0.109253,0.075806,1.027954,-0.854492,-2.563477,3.906250
12014,0.129395,-0.079102,1.013062,-1.098633,-3.479004,3.601074
12025,0.055542,0.022461,0.980591,-1.831055,-4.699707,2.502441
12035,0.065552,0.099976,1.068237,-1.953125,-5.310059,1.953125
12045,0.010864,-0.029419,0.921753,-1.647949,-5.615234,2.014160
12056,-0.005737,-0.131226,0.868286,-0.183105,-4.943848,3.662109
12066,0.054687,0.003174,0.940308,0.122070,-4.211426,5.310059
12075,0.067383,-0.137817,0.978394,0.488281,-3.906250,7.080078
12085,0.085815,-0.086914,0.983398,0.610352,-3.540039,8.422852
12095,0.073242,-0.156250,0.984863,1.159668,-3.601074,9.399414
12105,0.002563,-0.355103,0.878296,2.075195,-3.601074,9.704590
12114,-0.006836,-0.225098,1.034912,2.319336,-3.845215,9.399414
12126,-0.061279,-0.332275,1.012573,2.258301,-4.028320,7.934570
12135,-0.043091,-0.218384,1.102173,1.525879,-4.577637,6.652832
12145,-0.010498,-0.427124,0.949463,1.770020,-4.699707,5.554199
12155,0.044800,-0.186646,1.014404,1.831055,-5.249023,4.638672
12165,0.075073,-0.291016,1.030640,1.525879,-5.859375,3.784180
12175,0.067383,-0.392700,0.969482,1.098633,-5.981445,2.929688
12185,0.058350,-0.054443,1.141357,0.427246,-6.042480,2.380371
12196,-0.036377,-0.400513,0.941040,0.610352,-5.432129,2.685547
12206,-0.021973,-0.172729,1.078247,-0.183105,-4.699707,2.990723
12215,-0.067139,-0.301147,1.060669,-1.098633,-4.150391,3.417969
12225,-0.080811,-0.248901,1.021240,-1.892090,-3.906250,3.234863
12234,-0.072510,-0.047485,1.136963,-2.075195,-3.967285,2.563477
12245,-0.055420,-0.068115,1.064819,-1.586914,-4.028320,2.014160
12255,-0.002686,-0.052734,1.042236,-0.915527,-4.455566,1.037598
12266,0.018066,-0.188477,0.895386,0.366211,-5.554199,-1.037598
12276,0.049316,-0.168457,0.899658,-0.122070,-5.310059,-1.464844
12285,0.067505,-0.271240,0.795044,-1.098633,-5.187988,-1.708984
12295,0.093994,-0.036987,0.816040,-2.563477,-5.310059,-2.197266
12305,0.124756,0.056152,0.867920,-3.112793,-5.737305,-2.624512
12315,0.087036,0.033813,0.841309,-3.295898,-6.286621,-3.479004
12325,0.075684,-0.010010,0.828247,-3.112793,-5.310059,-2.563477
12335,0.057495,0.098022,1.034058,-3.173828,-4.150391,-1.220703
12346,0.024780,0.015137,1.127686,-3.540039,-3.234863,0.671387
12355,0.017456,0.089233,1.188721,-3.479004,-2.807617,2.502441
12366,-0.004639,0.125732,1.107910,-2.929688,-2.075195,4.150391
12375,-0.044556,0.114990,1.054810,-2.014160,-1.159668,5.737305
12385,-0.062866,0.100464,0.954346,-0.915527,-0.854492,6.774902
12398,0.109131,-0.016357,0.855713,-0.732422,-2.441406,6.958008
12407,0.081787,0.005371,0.825684,-1.525879,-4.455566,5.920410
12417,0.103271,-0.007690,0.813354,-2.258301,-5.981445,5.432129
12426,0.142334,0.149170,0.910278,-2.929688,-6.530762,5.493164
12436,0.084106,0.003418,0.861450,-3.112793,-6.286621,6.103516
12445,0.048096,-0.001465,0.887573,-2.929688,-5.676270,7.080078
12455,0.099121,-0.152832,0.892334,-2.624512,-4.638672,8.850098
12468,-0.061890,-0.358154,0.912109,-2.014160,-4.821777,9.033203
12477,-0.044556,-0.306274,0.741089,-1.464844,-5.615234,7.690430
12487,-0.268555,-0.511108,0.367432,-0.671387,-6.835937,5.310059
12497,-0.252075,-0.840210,-0.116943,-0.549316,-5.310059,3.967285
12506,-0.049683,-3.026855,-2.910156,-0.427246,-3.601074,4.150391
12516,0.094849,-2.409790,-0.995239,-10.803223,-3.051758,2.136230
12525,0.036865,-2.751831,-1.193848,-31.616211,-5.249023,-2.868652
12535,0.099609,-1.736206,-1.057007,-70.922852,-8.728027,-12.207031
12545,0.171509,0.440674,3.995850,-58.654785,-10.253906,-15.869141
12556,0.217896,0.361938,3.999512,-38.146973,-12.695313,-19.470215
12565,0.006470,0.366455,3.999512,-16.784668,-12.207031,-18.798828
12575,0.388428,-1.257446,3.140137,4.211426,-8.972168,-15.380859
12586,-0.101807,-2.150146,0.853394,16.845703,-7.812500,-15.869141
12595,-0.009155,-1.812012,0.123901,11.047363,-6.347656,-18.066406
12605,-0.054810,-1.397705,-0.049927,-1.159668,-5.981445,-26.062012
12615,-0.035278,-1.066406,2.174561,0.366211,-5.981445,-27.709961
12625,-0.141968,-0.614746,2.308105,1.525879,-3.784180,-26.916504
12636,-0.388916,-0.170410,1.890747,2.990723,1.708984,-21.118164
12645,-0.319092,1.542358,3.411255,6.652832,9.704590,-13.427734
12655,-0.807495,2.038574,3.817383,17.517090,11.108398,-2.197266
12666,-1.350586,3.207886,3.999512,36.621094,9.887695,2.136230
12675,-1.277588,3.975220,3.999512,73.730469,14.831543,5.737305
12687,0.262085,3.999512,3.787842,83.496094,24.536133,16.845703
12696,1.162354,3.472046,2.710815,94.848633,46.142578,39.550781
12705,0.419922,1.917725,1.718872,109.008789,48.828125,49.377441
12715,0.939819,1.748535,1.143799,115.417480,36.560059,40.954590
12725,0.516846,1.479980,0.166748,113.891602,30.273437,37.658691
12736,0.564087,0.889526,-0.299805,108.398437,29.907227,42.175293
12745,0.338135,0.314453,-0.505371,96.374512,28.564453,47.058105
12757,0.018433,0.184814,-0.326660,90.820312,27.954102,46.081543
12766,-0.113525,0.062866,-0.301392,84.716797,27.954102,46.386719
12776,-0.061157,-0.189209,-0.337891,76.904297,27.282715,44.982910
12785,0.131958,-0.126709,-0.326904,68.969727,25.024414,40.588379
12796,0.274658,-0.043579,-0.238281,62.988281,21.667480,35.400391
12805,0.245239,-0.048828,0.011963,59.753418,19.104004,32.775879
12817,0.033691,-0.273682,0.287598,57.861328,16.906738,29.541016
12826,0.074463,-0.220825,0.164185,51.208496,11.169434,25.512695
12836,0.160034,-0.205933,0.020630,47.546387,7.568359,23.010254
12845,0.357544,-0.249390,0.056885,45.104980,3.906250,21.972656
12856,0.452881,-0.428345,0.118408,43.151855,-0.244141,21.606445
12866,0.485962,-0.723267,0.114258,39.916992,-5.981445,20.385742
12875,0.389282,-0.811157,0.123535,34.729004,-11.718750,17.700195
12888,0.127441,-0.728516,-0.206909,21.911621,-21.362305,9.277344
12897,0.106689,-0.627075,-0.220703,16.784668,-24.230957,4.455566
12907,0.122559,-0.686401,-0.192017,12.634277,-26.184082,-0.366211
12916,0.209473,-0.805786,-0.144531,8.056641,-27.526855,-4.028320
12926,0.272217,-0.964966,-0.142212,2.319336,-29.113770,-6.896973
12936,0.201660,-0.959106,-0.195679,-4.699707,-31.372070,-9.765625
12945,0.090576,-0.918213,-0.269653,-11.840820,-33.020020,-12.634277
12955,-0.047485,-0.859741,-0.269165,-23.498535,-33.508301,-17.395020
12965,-0.265991,-0.735229,-0.187500,-28.747559,-32.592773,-19.470215
12976,-0.359009,-0.674561,-0.268555,-34.362793,-30.334473,-21.057129
12985,-0.329956,-0.580322,-0.355347,-39.794922,-27.221680,-22.155762
12995,-0.275269,-0.534302,-0.347412,-44.616699,-23.559570,-22.277832
13006,-0.209839,-0.498413,-0.325562,-49.377441,-20.263672,-21.728516
13016,-0.187988,-0.568726,-0.295776,-54.443359,-16.540527,-19.165039
13026,-0.189575,-0.628906,-0.324829,-66.467285,-9.704590,-17.456055
13036,-0.159058,-0.443726,-0.438354,-72.753906,-6.408691,-15.441895
13046,-0.141235,-0.222412,-0.487305,-78.125000,-3.356934,-13.549805
13056,-0.147461,-0.165527,-0.489014,-82.336426,-0.122070,-10.986328
13065,-0.141235,-0.374634,-0.457764,-85.754395,2.807617,-8.911133
13075,-0.118774,-0.748291,-0.547852,-90.637207,5.737305,-7.263184
13087,-0.066284,-0.979858,-0.644165,-109.069824,9.948730,-5.187988
13097,-0.015381,-0.535034,-0.814453,-120.178223,10.864258,-5.554199
13107,0.028442,-0.171143,-0.857178,-129.577637,11.718750,-6.530762
13116,0.129272,0.171997,-0.886353,-136.108398,11.352539,-7.812500
13126,0.328857,3.999512,3.406982,-140.747070,11.352539,-11.169434
13136,0.703613,3.999512,3.999512,-94.787598,10.498047,-11.474609
13146,-0.295166,-3.884277,3.092651,-26.916504,-5.004883,0.427246
13156,-0.775635,-3.999512,-0.591309,-31.188965,0.427246,3.173828
13167,0.340210,3.999512,3.207764,-88.928223,-4.028320,-22.644043
13177,0.243408,1.605591,0.489624,-9.948730,-22.583008,-6.164551
13186,0.250244,-2.271240,2.797729,27.770996,-24.597168,-0.854492
13196,-0.663696,0.813599,3.999512,-15.380859,-7.080078,-13.488770
13206,-0.269775,-0.112793,2.889404,-21.484375,3.112793,3.540039
13216,0.360474,-0.436279,0.882568,-12.512207,10.986328,16.967773
13225,0.236816,-0.053955,-0.172729,-8.605957,10.681152,9.521484
13237,0.344116,-1.558472,1.456543,4.089355,7.324219,7.446289
13246,-0.090820,-1.299316,1.755615,-3.356934,-2.197266,-1.770020
13256,-0.102905,-0.101074,1.521729,-17.517090,-3.723145,-6.103516
13266,0.009888,0.349365,0.964478,-17.272949,-0.488281,-1.953125
13275,-0.146484,0.114502,1.084106,-5.859375,-1.647949,-2.258301
13286,-0.129761,-0.491821,1.404907,2.136230,-3.356934,-4.089355
13296,0.152588,-0.416992,1.600952,2.136230,-3.417969,-3.784180
13306,0.311646,0.233765,1.577759,2.502441,-6.958008,-4.211426
13316,0.289429,0.191040,1.194336,9.277344,-6.042480,-0.732422
13326,0.466064,-0.250488,1.268188,14.770508,-4.882812,3.295898
13336,0.324707,-0.323486,1.234863,14.892578,-4.699707,4.943848
13346,0.168701,-0.154663,0.975342,11.413574,-3.784180,5.004883
13356,0.094604,0.186279,0.771240,9.155273,-2.990723,5.126953
13366,-0.005127,0.192749,0.632446,10.803223,-3.784180,3.417969
13377,-0.157837,-0.194824,0.771729,14.282227,-6.958008,-4.455566
13387,-0.167969,-0.186035,0.914062,13.977051,-7.934570,-9.155273
13397,-0.104736,-0.081787,0.963257,11.657715,-8.544922,-13.854980
13406,-0.158325,-0.065918,0.832886,10.742188,-8.239746,-16.601562
13416,-0.058838,-0.193481,0.739868,10.986328,-6.896973,-17.028809
13426,-0.082153,-0.278564,0.728516,10.681152,-5.004883,-16.296387
13436,-0.076294,-0.225220,0.867065,9.277344,-3.479004,-15.747070
13447,-0.162476,-0.187622,0.825317,7.324219,-0.366211,-14.160156
13457,-0.160156,-0.035889,0.712158,4.760742,0.915527,-13.427734
13466,-0.186401,0.227661,0.820557,4.821777,2.197266,-12.329102
13476,-0.196167,0.015869,0.794312,6.042480,3.173828,-10.925293
13486,-0.178711,-0.234741,0.751221,6.896973,3.906250,-9.460449
13496,-0.092163,-0.088135,0.796753,6.835937,4.760742,-7.873535
13506,-0.087891,-0.115479,0.789307,5.615234,5.798340,-2.746582
13518,0.021240,-0.019165,0.787476,2.685547,7.385254,1.159668
13527,0.035400,0.081665,0.944580,2.197266,8.605957,5.432129
13536,0.072510,-0.122925,0.844604,1.892090,9.338379,9.277344
13546,0.031738,0.019775,0.961060,1.464844,10.131836,12.634277
13556,0.048828,0.146851,1.049561,1.953125,10.192871,14.648438
13565,0.033447,-0.019165,1.057861,2.685547,9.582520,15.747070
13577,0.006836,-0.221558,1.104126,3.540039,7.324219,14.160156
13586,-0.010010,-0.170898,1.107666,2.685547,6.347656,12.084961
13597,0.067261,-0.105713,1.142212,2.075195,5.126953,10.498047
13606,0.096191,-0.099731,1.003906,1.586914,3.967285,8.972168
13616,0.105469,0.089233,0.998047,1.525879,3.662109,8.483887
13626,0.084473,-0.161865,0.880615,1.953125,3.479004,9.155273
13636,0.094604,-0.259644,0.815552,1.403809,3.295898,10.253906
13645,0.152222,-0.095337,0.929810,-0.488281,3.173828,10.803223
13657,0.108643,0.064819,1.023071,-1.770020,2.563477,11.352539
13666,0.070435,-0.025269,0.978638,-1.892090,1.464844,10.559082
13676,0.010986,-0.070435,0.981812,-1.220703,1.220703,9.582520
13687,-0.029663,-0.184570,0.942627,-0.915527,0.793457,8.178711
13696,-0.100830,-0.217896,0.896851,-1.708984,0.305176,5.859375
13706,-0.091919,-0.129272,0.991699,-2.807617,0.732422,4.028320
13715,-0.071045,0.011353,1.095337,-3.479004,0.732422,2.441406
13727,-0.018188,0.151123,1.124146,-3.173828,1.403809,2.075195
13736,0.009155,0.001709,1.043945,-1.281738,2.014160,3.417969
13746,0.002075,-0.043945,0.995117,-0.915527,2.685547,5.554199
13756,0.043335,0.069458,1.151245,-0.427246,3.234863,7.446289
13766,-0.001343,0.002197,1.028320,0.122070,2.746582,8.850098
13776,0.010254,-0.112915,0.950806,0.366211,1.953125,9.277344
13786,-0.029175,-0.068481,0.901489,0.244141,1.525879,9.643555
13797,0.014648,0.020508,1.010010,-0.915527,1.098633,10.437012
13807,0.020996,0.106445,1.039063,-0.793457,0.976562,10.864258
13816,0.046387,0.052124,1.061279,-0.183105,1.159668,11.657715
13826,0.073853,-0.114380,0.924072,0.244141,1.403809,13.000488
13836,0.003296,-0.181763,0.910400,-0.244141,1.220703,14.221191
13846,0.004517,-0.067993,1.058960,-1.342773,1.342773,14.892578
13858,-0.013306,0.089355,1.135986,-2.258301,0.976562,15.075684
13868,0.010376,0.048584,1.095581,-1.281738,0.915527,15.197754
13877,0.018677,-0.104248,1.012695,-0.427246,0.549316,15.258789
13886,0.061523,-0.092407,0.961548,-0.488281,-0.183105,15.686035
13896,0.010620,-0.139648,0.957764,-1.098633,-1.037598,15.808105
13906,0.040039,-0.091675,0.965210,-1.708984,-1.770020,15.808105
13917,0.007813,-0.104736,0.920532,-1.831055,-1.892090,15.625000
13926,0.042603,-0.106934,0.937866,-2.380371,-2.319336,14.709473
13936,-0.003540,-0.098022,0.917480,-3.295898,-2.624512,13.610840
13947,-0.033447,0.064941,0.956909,-3.173828,-3.173828,12.023926
13956,0.007202,0.042725,0.965820,-2.563477,-3.417969,10.681152
13966,0.031494,-0.010010,0.984985,-1.647949,-3.601074,9.887695
13977,-0.008423,-0.015503,0.973633,-0.976562,-4.089355,9.155273
13986,-0.015015,-0.008423,0.991943,-0.488281,-4.150391,8.789063
13999,0.006714,-0.090088,0.986450,-0.183105,-3.845215,9.216309
14008,-0.020386,-0.056885,0.969604,-0.122070,-3.662109,9.155273
14018,-0.033447,-0.064941,0.921631,0.366211,-3.723145,8.789063
14027,-0.094238,-0.054810,0.914185,0.427246,-3.723145,8.056641
14037,-0.093506,-0.173950,0.932861,0.366211,-3.967285,7.019043
14046,-0.079102,-0.161377,0.984741,0.122070,-3.967285,6.164551
14056,-0.076782,-0.241943,0.894775,-0.610352,-3.967285,5.493164
14069,0.000977,-0.173706,0.947144,-2.441406,-4.028320,4.699707
14078,-0.014160,-0.112305,0.959106,-3.540039,-3.723145,4.333496
14088,0.043213,-0.030151,1.057373,-4.028320,-3.906250,4.211426
14097,0.047241,-0.092773,0.987305,-3.967285,-3.662109,4.028320
14107,0.017822,-0.054443,1.031128,-3.662109,-3.906250,3.356934
14116,0.025513,-0.065918,1.124512,-3.295898,-4.089355,2.685547
14126,-0.032227,-0.088379,1.103638,-3.417969,-4.394531,1.464844
14139,-0.000732,-0.137695,1.101074,-2.136230,-4.394531,-0.427246
14149,0.026978,-0.047363,1.076538,-1.403809,-4.577637,-1.403809
14158,0.056396,-0.220825,1.007080,-0.854492,-4.943848,-2.136230
14168,0.084351,-0.214966,1.038208,-1.037598,-5.187988,-2.868652
14178,0.108887,-0.209961,0.987305,-1.708984,-5.432129,-3.784180
14187,0.093262,-0.080688,1.015869,-2.441406,-5.615234,-4.882812
14197,0.069946,-0.111450,0.950684,-2.563477,-5.493164,-5.981445
14207,0.068848,-0.153809,0.927368,-2.807617,-5.065918,-7.568359
14216,0.016602,-0.157959,1.003662,-3.234863,-5.004883,-8.544922
14227,-0.024536,0.003784,1.020386,-3.479004,-4.760742,-9.399414
14237,0.010376,0.033081,0.930298,-3.051758,-4.211426,-9.643555
14246,-0.000122,0.050049,0.982788,-2.563477,-4.211426,-9.338379
14256,0.022827,-0.076538,0.953003,-1.770020,-3.784180,-8.483887
14267,-0.011719,-0.073364,0.893188,-1.464844,-3.295898,-7.568359
14276,0.016113,-0.072266,0.928101,-1.647949,-2.319336,-6.835937
14288,-0.007324,-0.017700,0.983643,-1.586914,-2.014160,-6.713867
14298,-0.017090,-0.008911,0.968384,-0.793457,-1.586914,-6.530762
14307,-0.039917,-0.154175,0.902100,-0.427246,-1.403809,-6.347656
14317,-0.031372,-0.285889,0.851318,-0.976562,-1.342773,-6.286621
14327,-0.016846,-0.151489,0.930298,-2.563477,-0.854492,-6.103516
14337,0.012085,-0.089478,0.995483,-3.723145,-0.427246,-5.371094
14346,0.021973,-0.003906,0.936646,-4.150391,0.366211,-2.136230
14358,0.032471,0.012939,0.985474,-2.868652,0.915527,0.122070
14368,0.001953,-0.046997,1.018188,-2.685547,1.098633,1.953125
14377,-0.017212,-0.134277,0.957275,-2.502441,1.281738,3.295898
14387,-0.035278,0.004272,1.092407,-2.685547,1.525879,4.211426
14397,-0.021362,-0.064209,1.081421,-2.380371,1.342773,4.760742
14406,-0.038696,0.015259,1.090576,-1.403809,1.525879,4.760742
14418,-0.015869,-0.184448,0.973389,-0.488281,1.464844,5.065918
14428,0.021729,-0.215576,0.957153,-1.159668,1.403809,5.187988
14437,-0.003296,-0.108154,0.976562,-1.892090,1.342773,4.943848
14447,0.010010,-0.165405,0.952759,-2.441406,1.098633,4.760742
14456,-0.012939,-0.090332,0.986206,-2.197266,1.098633,5.004883
14467,-0.019043,-0.126587,0.987915,-2.502441,1.342773,5.859375
14477,0.004761,-0.122192,1.027710,-2.929688,1.464844,6.652832
14488,-0.016846,-0.088867,1.019653,-3.417969,1.647949,8.300781
14498,-0.000610,0.059814,1.077759,-3.356934,1.525879,8.789063
14507,-0.002930,-0.012085,0.974609,-2.746582,1.342773,8.850098
14517,-0.020752,-0.029419,1.053223,-2.258301,1.098633,8.605957
14526,-0.030762,-0.204956,1.019531,-1.770020,0.793457,8.605957
14537,-0.054443,0.014648,1.092407,-2.136230,0.915527,8.422852
14546,-0.057495,-0.021851,1.039917,-2.441406,0.915527,8.544922
14558,-0.046997,-0.014526,0.983765,-2.075195,0.793457,9.094238
14568,-0.009399,-0.128296,0.983032,-0.427246,0.976562,9.521484
14577,-0.021973,-0.157104,0.956543,-0.488281,1.098633,9.582520
14587,0.014648,-0.096313,0.935181,-1.159668,1.037598,9.643555
14597,-0.023560,-0.139038,0.887695,-1.892090,0.671387,9.582520
14607,0.007935,-0.129883,0.916382,-2.319336,0.427246,8.972168
14616,-0.044800,-0.117920,0.879028,-2.258301,0.305176,8.483887
14630,-0.011841,-0.121216,0.960083,-3.356934,0.732422,7.751465
14640,-0.046997,-0.008423,0.965454,-4.028320,0.488281,7.446289
14649,-0.028687,0.014893,0.970459,-3.662109,0.366211,7.507324
14659,-0.001099,0.085205,0.981934,-2.929688,0.366211,7.446289
14669,-0.011597,-0.008179,0.931885,-1.831055,0.366211,7.690430
14678,0.006348,-0.110474,0.970459,-1.403809,0.183105,7.751465
14688,0.012695,-0.192505,0.974609,-1.281738,-0.122070,6.164551
14697,0.012573,-0.171265,1.041260,-2.563477,0.061035,5.249023
14707,0.006958,-0.037842,0.996704,-2.990723,-0.183105,4.211426
14717,-0.016846,-0.071289,0.981079,-2.502441,-0.610352,3.051758
14727,-0.023071,-0.055908,0.997681,-2.563477,-0.488281,2.075195
14737,0.005493,-0.040283,1.037476,-2.563477,-0.610352,0.854492
14747,0.002808,-0.031616,1.100830,-2.624512,-0.915527,-0.305176
14757,0.000977,-0.106323,1.010498,-2.563477,-0.976562,-0.610352
14768,-0.011475,-0.026733,1.078247,-2.502441,-0.671387,-0.122070
14778,-0.076538,0.052612,1.022705,-3.051758,-0.122070,0.549316
14788,-0.119629,0.051025,1.015015,-3.112793,0.549316,1.647949
14797,-0.133667,0.012695,1.024414,-2.502441,1.525879,2.807617
14807,-0.218018,-0.001831,0.956787,-1.831055,2.868652,4.150391
14817,-0.242554,-0.090454,1.001709,-0.976562,4.516602,5.615234
14829,-0.284668,-0.114258,0.977417,-0.854492,6.896973,5.615234
14838,-0.276611,-0.135376,0.920776,-1.098633,7.202148,4.699707
14847,-0.220215,-0.103882,0.908569,-0.854492,7.202148,2.990723
14857,-0.204834,-0.091797,0.830444,-0.366211,6.958008,1.037598
14868,-0.159668,-0.294189,0.874146,0.122070,7.141113,-1.098633
14877,-0.135498,-0.320923,0.960693,-0.366211,7.507324,-3.845215
14887,-0.099854,-0.219238,1.092407,-1.342773,7.873535,-6.713867
14897,-0.060059,-0.176880,1.084229,-2.563477,7.629395,-9.460449
14909,0.079468,0.007324,0.988525,-3.295898,7.202148,-15.808105
14918,0.110596,0.077148,0.946045,-2.502441,6.164551,-18.798828
14928,0.089600,0.001831,0.902466,-1.281738,5.920410,-20.629883
14937,0.043091,-0.035889,0.975586,-0.366211,6.347656,-20.874023
14948,-0.015625,-0.088989,1.043091,0.366211,7.507324,-20.324707
14957,-0.015747,-0.084229,0.984131,0.610352,9.277344,-19.287109
14967,0.047852,-0.106689,0.952026,1.037598,11.474609,-17.395020
14978,0.665283,-0.481079,0.919556,1.037598,12.268066,-12.390137
14988,0.626831,-0.227661,0.827148,0.122070,9.765625,-9.399414
14997,0.501709,0.004028,0.851562,-0.244141,5.737305,-7.080078
15008,0.324585,-0.288452,0.846558,1.281738,2.746582,-5.798340
15017,0.368530,-0.592529,1.174561,2.014160,2.075195,-4.272461
15028,0.421265,-0.690308,1.104858,0.915527,2.380371,-1.770020
15037,0.535767,-0.220215,1.124756,-1.708984,2.746582,0.793457
15049,0.437256,-0.006104,1.015381,-2.685547,-0.183105,4.577637
15058,0.293579,-0.111694,0.920410,-1.953125,-1.220703,7.141113
15068,0.208862,0.001953,0.990234,-1.708984,-0.793457,9.033203
15077,0.208618,-0.001465,1.024292,-1.708984,-0.427246,10.009766
15088,0.164551,0.048706,1.034790,-2.380371,-0.427246,9.643555
15097,0.211304,0.207275,1.267090,-2.624512,-0.976562,7.934570
15109,0.112671,-0.009277,1.098145,-1.831055,-4.272461,2.319336
15118,0.094482,-0.047974,1.004272,-1.647949,-5.859375,-1.220703
15128,0.120361,0.115845,1.040161,-1.892090,-7.141113,-4.272461
15137,0.203979,0.074585,1.046265,-2.197266,-8.178711,-6.347656
15148,0.228271,-0.026245,1.004395,-2.563477,-9.033203,-7.629395
15157,0.172852,0.108398,1.024536,-2.563477,-9.704590,-8.117676
15168,0.130737,0.123047,0.953125,-2.563477,-9.460449,-8.422852
15177,0.054321,0.120483,0.945923,-2.502441,-9.216309,-8.789063
15189,-0.095947,0.177612,0.970459,-2.929688,-7.873535,-9.033203
15199,-0.093750,0.289185,1.096558,-2.929688,-6.591797,-8.239746
15208,-0.070435,0.280029,1.004883,-2.563477,-5.737305,-6.896973
15218,-0.057617,0.130981,0.958862,-2.014160,-4.760742,-5.187988
15228,-0.009766,0.108765,1.086914,-1.770020,-3.540039,-2.563477
15237,0.032104,0.049072,1.041870,-1.770020,-2.685547,0.183105
15250,-0.059326,0.136963,0.965698,-2.807617,-3.051758,3.173828
15259,-0.085205,0.034668,1.045410,-2.807617,-3.051758,4.150391
15269,-0.059082,0.065308,1.036987,-2.380371,-2.197266,4.638672
15278,-0.068726,-0.057983,0.969727,-1.770020,-1.281738,5.187988
15288,-0.045654,-0.100220,1.023926,-1.647949,-0.610352,5.737305
15298,-0.037842,-0.135742,0.984497,-1.586914,-0.305176,6.469727
15307,-0.005493,-0.144165,0.997559,-1.464844,-0.488281,6.958008
15317,0.028687,-0.176880,0.965576,-1.159668,-0.549316,7.934570
15329,0.027954,-0.225464,0.919800,-0.671387,-1.342773,8.789063
15338,0.079956,-0.348511,0.939697,-0.732422,-1.098633,10.314941
15348,0.087036,-0.359375,0.980713,-0.976562,-1.159668,11.962891
15357,0.132568,-0.318726,0.921021,-0.915527,-1.525879,13.854980
15368,0.113037,-0.277588,0.873535,-0.793457,-1.953125,16.357422
15377,0.114380,-0.227173,0.931274,-0.549316,-2.563477,19.592285
15390,0.156616,-0.340454,0.977051,0.488281,-3.356934,26.062012
15399,0.164795,-0.390625,0.906616,0.366211,-4.089355,29.052734
15408,0.158569,-0.281128,0.972290,0.488281,-4.882812,31.616211
15418,0.155029,-0.419434,0.976807,0.488281,-5.920410,33.691406
15427,0.128174,-0.361328,1.045166,0.549316,-7.019043,34.973145
15437,0.094727,-0.355713,1.055054,0.976562,-8.117676,35.766602
15448,0.030640,-0.389771,0.911377,1.464844,-9.155273,36.010742
15457,0.053711,-0.340698,1.007202,1.586914,-9.948730,37.109375
15469,-0.023682,-0.434204,0.937622,0.610352,-11.169434,36.865234
15478,-0.089966,-0.624512,0.934937,-0.183105,-12.207031,35.888672
15488,-0.140259,-0.421143,0.972900,-1.281738,-13.061523,34.362793
15498,-0.216431,-0.355957,0.988892,-1.342773,-13.977051,32.348633
15508,-0.306885,-0.499634,0.842529,-0.976562,-14.404297,29.907227
15518,-0.373169,-0.511597,0.826538,-0.488281,-13.916016,27.832031
15527,-0.376831,-0.638672,0.816406,-0.549316,-12.512207,23.132324
15537,-0.413086,-0.594238,0.839355,-1.464844,-11.962891,20.446777
15548,-0.416138,-0.651123,0.839111,-2.014160,-11.413574,17.944336
15557,-0.362061,-0.520752,0.854004,-2.624512,-10.925293,14.526367
15567,-0.426025,-0.567749,0.836182,-3.662109,-9.826660,11.779785
15578,-0.537476,-0.436157,0.924438,-4.943848,-8.056641,9.643555
15587,-0.480591,-0.339966,1.046509,-5.371094,-5.737305,7.568359
15597,-0.442017,-0.321289,1.008545,-5.310059,-4.089355,2.075195
15609,-0.413330,-0.295044,1.130127,-5.249023,-1.342773,-0.793457
15619,-0.294067,-0.101196,1.198120,-5.126953,-0.488281,-3.784180
15628,-0.253296,-0.046387,1.157471,-4.882812,-0.793457,-6.774902
15638,-0.289673,-0.120239,1.063843,-4.760742,-1.342773,-10.009766
15648,-0.257690,-0.111938,1.033813,-5.310059,-1.159668,-13.000488
15657,-0.249878,-0.050659,1.066040,-5.737305,-0.244141,-15.747070
15667,-0.185303,0.018677,1.139160,-5.981445,1.159668,-20.019531
15679,-0.101685,0.162476,1.176758,-4.760742,1.892090,-20.446777
15689,-0.139648,0.141602,1.144287,-3.479004,2.868652,-19.836426
15698,-0.109375,0.092773,1.088013,-2.624512,4.882812,-18.066406
15708,-0.082886,0.083008,1.024048,-2.441406,7.507324,-14.770508
15717,0.042603,0.076538,1.016113,-2.807617,9.338379,-11.291504
15727,0.045654,0.041382,0.986450,-3.356934,10.253906,-8.483887
15737,0.051880,0.014771,0.945312,-3.540039,11.047363,-2.624512
15749,0.129272,0.181641,1.181396,-2.868652,11.962891,0.366211
15758,0.155029,0.071655,1.152344,-1.770020,11.230469,3.112793
15767,0.170288,-0.090576,1.011230,-0.305176,10.375977,5.554199
15778,0.124146,-0.111694,0.886841,0.549316,9.948730,8.361816
15788,0.121948,0.008789,0.878784,1.098633,9.765625,11.413574
15798,0.097168,0.101563,0.927734,0.976562,9.643555,14.465332
15808,0.059082,0.086792,0.971313,2.014160,8.972168,17.822266
15819,-0.023437,0.092163,0.934570,3.112793,8.300781,18.066406
15828,-0.010376,-0.043457,1.029419,3.967285,7.507324,17.822266
15838,0.003418,-0.093018,1.095947,5.065918,6.469727,16.784668
15847,0.066772,-0.056030,1.188110,5.493164,5.249023,15.075684
15858,0.060303,-0.150391,1.042114,5.859375,4.089355,13.061523
15867,0.134277,-0.169067,0.961914,5.920410,2.929688,11.108398
15880,0.176392,-0.156738,0.954346,4.211426,0.305176,6.347656
15889,0.146240,0.070679,0.993530,3.662109,-0.915527,3.356934
15898,0.116821,0.136475,0.967163,3.845215,-1.953125,0.549316
15908,0.099121,0.005371,0.936768,5.004883,-1.953125,-1.953125
15917,0.076782,-0.121826,0.947144,5.187988,-2.319336,-4.638672
15928,0.026245,-0.117676,1.003906,5.126953,-2.258301,-6.713867
15938,0.017700,-0.123657,1.029175,4.333496,-2.136230,-8.544922
15947,0.016113,-0.174561,1.003784,3.479004,-1.953125,-10.803223
15959,0.068848,-0.026855,0.941650,2.746582,-1.525879,-11.596680
15968,0.089600,-0.015625,0.979736,2.441406,-1.281738,-11.413574
15978,0.108276,-0.160889,0.887573,2.197266,-1.403809,-10.559082
15987,0.123047,-0.021606,0.901123,1.647949,-0.793457,-9.277344
15998,0.167847,0.150146,1.040039,1.281738,-0.488281,-7.629395
16007,0.161011,0.013916,0.970459,1.159668,-0.549316,-6.103516
16020,0.050781,-0.045654,0.932373,0.305176,-0.366211,-2.685547
16029,0.014282,-0.006836,0.962036,-0.366211,0.061035,-1.098633
16039,-0.038574,-0.082764,0.972412,-0.732422,0.488281,0.000000
16048,-0.035522,0.014771,1.048584,-1.342773,0.610352,0.549316
16058,-0.050415,-0.006958,1.052002,-1.464844,0.366211,0.854492
16067,-0.047607,-0.107666,1.014160,-1.525879,0.427246,1.342773
16078,-0.020874,-0.106079,1.005493,-2.136230,0.610352,1.892090
16087,-0.036743,-0.103394,1.004883,-4.028320,1.037598,2.502441
16097,-0.031250,-0.046387,1.094727,-3.967285,1.525879,2.563477
16108,0.017456,-0.008667,1.015747,-3.234863,1.586914,2.258301
16118,-0.002808,-0.132568,0.923462,-3.051758,1.403809,1.892090
16127,0.038086,0.057007,1.013916,-3.601074,1.220703,1.281738
16138,0.023926,-0.019287,0.969727,-3.906250,1.037598,1.708984
16147,0.039551,-0.075073,0.918579,-3.906250,0.976562,2.380371
16160,0.050415,-0.165649,0.940308,-3.540039,0.732422,3.906250
16169,0.069092,-0.169800,1.007080,-3.967285,0.671387,5.187988
16179,0.084961,0.039551,1.182373,-4.638672,1.098633,6.958008
16188,0.021606,-0.164185,1.087769,-4.394531,1.586914,8.483887
16198,-0.033447,-0.157593,0.953613,-4.333496,1.708984,9.399414
16207,-0.065430,0.021118,1.061401,-4.455566,1.525879,10.375977
16218,-0.081055,-0.117188,1.047363,-4.272461,1.525879,10.742188
16227,-0.106323,-0.132935,1.039917,-3.845215,1.037598,11.047363
16239,-0.056519,-0.018066,1.066040,-2.929688,1.159668,11.657715
16249,-0.067871,-0.106445,0.942627,-2.502441,1.342773,12.023926
16258,-0.000366,-0.081787,1.019409,-2.136230,1.647949,12.512207
16268,-0.023682,-0.001343,0.976929,-2.319336,1.464844,12.207031
16277,0.021118,-0.048462,1.025024,-2.563477,0.915527,11.108398
16288,-0.002441,-0.178467,0.964844,-2.441406,0.183105,9.826660
16297,-0.035645,0.016846,0.961548,-2.380371,-0.610352,6.896973
16309,-0.022827,-0.148315,0.854736,-3.112793,-0.915527,5.737305
16318,-0.016479,0.131348,0.958130,-3.662109,-0.976562,4.882812
16328,-0.013184,0.017944,0.891968,-3.967285,-1.037598,4.211426
16337,-0.016602,0.027344,0.880127,-3.906250,-0.976562,4.089355
16348,-0.005615,0.064087,0.921387,-3.540039,-0.793457,4.333496
16358,-0.013306,0.001099,0.923462,-3.356934,-0.671387,4.333496
16369,0.009155,0.073242,1.018311,-3.479004,-0.671387,3.906250
16379,0.032715,0.114380,1.069214,-4.089355,-0.549316,3.967285
16388,0.031006,0.159546,1.028076,-3.234863,-0.671387,3.723145
16398,0.007568,0.024902,0.950439,-2.685547,-1.037598,4.211426
16408,0.003418,-0.064453,0.892578,-2.624512,-0.854492,5.371094
16418,-0.016357,0.095825,1.006226,-3.417969,-0.610352,7.202148
16429,0.032227,0.144531,1.039429,-3.356934,0.061035,10.864258
16439,0.088257,0.064087,0.987915,-2.075195,-0.122070,12.145996
16448,0.039551,0.049072,0.879517,-0.915527,-0.488281,12.207031
16458,-0.018799,-0.115234,0.809448,-0.549316,-1.098633,12.023926
16467,-0.162842,-0.034668,0.808716,-0.854492,-0.732422,11.657715
16477,-0.239624,-0.099243,0.860962,-1.525879,-0.122070,10.803223
16488,-0.208740,-0.223389,0.949341,-1.647949,0.732422,9.704590
16498,-0.002075,-0.278809,1.019897,-1.281738,0.427246,7.690430
16509,0.100830,-0.622681,0.938110,-1.159668,-2.319336,1.220703
16519,-0.010010,-0.567871,0.952881,-1.831055,-5.920410,-1.708984
16529,-0.238403,-0.615845,0.622192,-1.647949,-4.577637,-4.333496
16538,-0.320435,-0.935181,0.142578,-1.159668,-1.403809,-5.798340
16548,-0.376587,-2.988159,-2.593872,-0.854492,1.708984,-5.187988
16558,-0.086548,-2.362427,-0.705322,-9.094238,5.493164,-3.417969
16568,-0.035278,-2.874756,-1.474243,-27.160645,5.432129,-4.272461
16577,0.069458,-1.799927,-1.123901,-48.034668,1.464844,-10.864258
16589,0.336670,0.418823,2.763672,-53.039551,-0.549316,-10.314941
16599,0.162842,0.366943,3.999512,-37.414551,-2.136230,-8.056641
16609,0.323975,0.376953,3.999512,-21.667480,-1.342773,-2.136230
16619,0.379150,-0.256592,3.767090,-3.417969,-0.732422,3.662109
16628,0.387939,-1.360474,1.613525,13.977051,-1.708984,8.056641
16638,0.526978,-1.746216,0.497925,17.089844,-4.882812,10.864258
16649,0.131714,-0.871704,1.107544,8.178711,-9.582520,14.465332
16659,0.343384,-0.435303,1.873047,-4.333496,-4.638672,21.362305
16668,0.554810,-0.496948,2.150146,-0.366211,-0.732422,25.817871
16678,0.509888,-0.743774,1.706299,4.821777,-3.295898,25.085449
16688,0.515137,-0.352905,1.681030,7.507324,-10.437012,18.127441
16697,0.206299,1.345703,3.569946,9.887695,-17.883301,5.432129
16708,-0.486816,2.455078,3.882935,18.066406,-21.057129,-3.662109
16718,-1.129883,3.295044,3.999512,57.861328,-4.516602,-8.483887
16729,-2.661133,3.999512,3.999512,77.758789,12.145996,0.976562
16738,-0.625854,3.999512,3.397949,86.547852,28.198242,13.916016
16749,0.488770,2.753418,1.829956,94.299316,49.133301,33.020020
16758,0.268066,1.140625,0.881836,101.013184,59.936523,51.452637
16768,0.837769,1.281372,1.026611,101.379395,49.011230,46.813965
16777,0.623657,1.061523,0.336426,96.923828,33.752441,37.536621
16789,0.511230,0.450562,-0.143555,90.270996,25.512695,32.897949
16799,0.355469,0.329224,-0.017822,79.406738,18.005371,29.541016
16808,0.235840,0.210693,0.074829,75.012207,14.953613,24.414062
16818,0.177246,0.108154,0.149292,69.946289,13.122559,19.958496
16828,0.465454,0.169312,0.102295,64.147949,10.498047,13.366699
16838,0.676147,0.207397,0.044800,59.204102,6.835937,5.004883
16848,0.778076,0.189697,0.103760,56.762695,2.319336,-2.624512
16859,0.532837,-0.062134,0.336548,55.908203,-4.638672,-6.530762
16869,0.369873,-0.085815,0.245728,52.185059,-8.117676,-6.652832
16879,0.069458,-0.188843,0.025879,48.095703,-11.718750,-7.202148
16888,-0.097046,-0.169189,-0.038086,43.945312,-13.549805,-8.117676
16898,-0.258423,-0.376587,-0.156616,40.527344,-14.160156,-8.422852
16908,-0.225830,-0.679932,-0.155884,36.804199,-14.465332,-8.666992
16919,-0.234619,-0.766724,-0.142700,24.841309,-13.732910,-9.704590
16929,-0.226074,-0.751709,-0.291382,17.944336,-13.244629,-10.742188
16939,-0.217041,-0.726807,-0.329468,11.779785,-12.695313,-11.291504
16948,-0.301758,-0.813110,-0.335083,6.591797,-11.230469,-11.352539
16958,-0.306885,-0.945923,-0.297852,2.197266,-9.582520,-10.986328
16968,-0.279541,-1.068848,-0.281250,-2.990723,-7.568359,-10.925293
16978,-0.301270,-1.101929,-0.308716,-9.399414,-5.432129,-10.864258
16988,-0.299194,-0.984253,-0.377808,-16.113281,-2.807617,-10.314941
17000,-0.197632,-0.867310,-0.389160,-28.198242,1.831055,-8.361816
17009,-0.134155,-0.796387,-0.427734,-33.142090,4.089355,-7.263184
17019,-0.096191,-0.773193,-0.423706,-37.475586,6.225586,-5.981445
17029,0.006470,-0.863037,-0.379517,-41.687012,7.812500,-5.004883
17038,0.040894,-0.932251,-0.334351,-46.813965,8.544922,-4.455566
17048,0.099731,-0.961426,-0.317383,-52.734375,8.483887,-4.638672
17059,0.127197,-1.025024,-0.239136,-67.687988,5.676270,-7.080078
17069,0.263916,-0.714355,-0.517212,-75.073242,4.516602,-8.422852
17079,0.306274,-0.571533,-0.549683,-80.871582,2.807617,-10.131836
17088,0.353882,-0.571411,-0.539062,-85.510254,0.793457,-12.512207
17098,0.318848,-0.600830,-0.587646,-90.332031,-1.281738,-14.404297
17109,0.321899,-0.725220,-0.609863,-95.825195,-3.845215,-17.028809
17118,0.260742,-0.828857,-0.649414,-102.539062,-6.530762,-20.202637
17128,0.225098,-0.729858,-0.684937,-110.229492,-9.277344,-24.230957
17140,0.124268,-0.157349,-0.850708,-124.755859,-13.671875,-33.020020
17150,0.089722,1.705688,0.790283,-129.699707,-14.465332,-37.902832
17159,-0.313843,3.518311,3.999512,-111.572266,-13.000488,-41.503906
17169,0.350342,-0.423950,3.999512,-50.720215,-11.413574,-29.968262
17178,-0.921875,-3.999512,0.640015,-14.404297,-4.455566,-7.690430
17188,0.052612,-0.443237,1.924316,-61.340332,9.826660,-19.592285
17198,0.479980,3.999512,1.628174,-93.444824,6.286621,-29.968262
17209,-0.219238,-3.988892,-0.734131,-37.597656,-1.953125,-1.525879
17219,-0.401489,1.038696,3.999512,-3.601074,-1.647949,-11.840820
17228,-1.059814,-0.541992,3.813965,-19.958496,4.821777,-3.051758
17238,-0.423218,-0.205811,2.263428,-15.991211,10.681152,6.042480
17248,-0.685425,0.044189,-0.130737,-13.488770,15.930176,5.187988
17258,-0.552368,1.643921,1.420410,1.220703,17.089844,11.291504
17268,0.305908,-0.841553,2.211426,16.662598,21.972656,21.362305
17280,-0.367432,-0.980347,1.288330,-3.112793,16.113281,20.874023
17289,0.017456,1.023926,1.191162,-17.456055,22.460937,27.282715
17299,-0.194214,0.818115,0.832764,-8.544922,25.390625,34.790039
17308,-0.195435,0.124634,1.203857,8.300781,24.719238,37.597656
17318,0.279907,-0.644653,1.814209,15.502930,25.451660,40.283203
17329,0.488403,-0.261353,1.901978,10.864258,22.827148,43.945312
17338,0.521851,0.318726,1.090942,6.347656,15.930176,44.555664
17349,0.728149,0.431152,0.890991,9.338379,11.962891,54.199219
17359,0.797607,-0.059692,1.139038,24.780273,5.065918,58.776855
17368,0.604980,-0.148315,1.213013,22.705078,0.976562,60.607910
17378,0.600464,0.209839,1.061768,17.822266,-0.854492,61.279297
17388,0.507324,0.379517,0.691895,15.625000,-1.708984,60.729980
17398,0.492187,0.180054,0.479614,17.272949,-4.455566,58.349609
17408,0.369385,-0.234985,0.452637,18.981934,-9.887695,50.964355
17419,0.002808,-0.145264,0.897461,17.700195,-17.089844,28.381348
17429,0.003784,0.127808,0.972900,11.413574,-25.878906,18.737793
17438,0.118774,0.050415,0.816284,11.291504,-26.916504,11.840820
17448,0.207520,-0.204956,0.573242,12.084961,-27.404785,5.737305
17458,0.321533,-0.232666,0.621094,11.779785,-28.442383,-0.732422
17469,0.222168,-0.295898,0.704468,9.948730,-29.968262,-6.591797
17478,0.176147,-0.349976,0.765503,7.568359,-46.752930,-20.629883
17488,0.050049,-0.192139,0.798950,4.150391,-33.020020,-28.747559
17498,0.033936,-0.327881,0.562256,2.807617,-33.020020,-36.010742
17508,-0.083130,-0.146118,0.691040,1.220703,-32.226562,-42.785645
17518,-0.135010,-0.129761,0.830566,-0.244141,-30.456543,-47.851562
17529,-0.115723,0.029541,0.943481,-1.281738,-28.564453,-51.086426
17538,-0.109741,0.072998,1.011719,-0.915527,-26.367187,-52.673340
17548,-0.110840,-0.060425,0.804810,-0.366211,-24.169922,-52.551270
17558,-0.081543,0.143921,0.954346,0.488281,-19.287109,-48.950195
17569,0.066650,-0.081665,0.953369,0.671387,-17.150879,-46.447754
17579,0.126587,0.025024,1.111084,0.610352,-16.784668,-45.104980
17588,0.097656,-0.128174,1.000977,0.732422,-17.089844,-44.738770
17598,0.017578,-0.134766,1.000732,0.915527,-16.357422,-44.189453
17608,0.037964,-0.097656,1.074341,0.610352,-15.258789,-43.518066
17621,-0.119019,-0.098022,1.027100,-0.061035,-13.000488,-41.503906
17631,-0.180786,0.070679,1.025757,-0.488281,-10.986328,-39.062500
17640,-0.167480,0.021973,0.987427,-0.366211,-8.178711,-35.705566
17650,-0.196167,-0.091553,0.836914,-0.183105,-5.859375,-32.409668
17660,-0.093384,0.000366,0.990845,-0.244141,-3.906250,-29.174805
17669,-0.027710,-0.173218,0.952881,-0.671387,-2.807617,-26.794434
17679,-0.005615,-0.027466,1.101440,-1.220703,-2.136230,-24.841309
17689,0.020020,-0.069092,1.113770,-0.610352,-0.671387,-21.362305
17699,0.023560,0.084839,1.185669,-0.671387,0.061035,-20.324707
17708,0.039063,-0.127197,1.076904,0.122070,0.305176,-19.714355
17718,-0.026611,-0.194092,0.901978,0.549316,0.366211,-19.470215
17729,0.022949,0.041016,1.097168,0.549316,0.244141,-19.592285
17738,0.006958,-0.187378,0.956543,0.671387,0.305176,-19.470215
17749,0.058960,-0.185303,0.900635,0.366211,0.671387,-19.226074
17758,0.128418,-0.143066,0.857056,-0.671387,1.953125,-15.319824
17768,0.179932,-0.096924,0.911377,-1.953125,2.075195,-12.329102
17779,0.128174,0.027710,0.870361,-1.647949,2.502441,-8.911133
17788,0.061157,-0.206665,0.653809,-1.037598,3.051758,-6.225586
17799,0.045532,-0.081299,0.834106,-2.075195,3.784180,-3.845215
17808,0.008545,-0.107544,1.002930,-3.173828,3.662109,-1.953125
17819,-0.051270,0.018677,1.096436,-3.723145,2.990723,-0.915527
17828,-0.052002,0.192017,1.296753,-3.540039,1.953125,-0.549316
17840,-0.080566,-0.142822,1.016724,0.122070,1.831055,-0.305176
17850,-0.054810,-0.204590,0.977173,0.732422,1.647949,-0.305176
17859,-0.037598,-0.074463,0.994141,0.305176,1.403809,0.000000
17868,-0.017944,-0.042603,0.975220,-0.244141,1.953125,0.854492
17878,-0.074951,-0.021118,0.891724,-0.305176,2.319336,2.258301
17889,-0.107910,-0.087524,0.849121,0.000000,2.990723,3.417969
17898,-0.161987,-0.122559,0.895386,-0.427246,4.150391,4.821777
17908,-0.161133,-0.107910,1.025635,-2.136230,5.126953,4.211426
17919,-0.213379,0.121704,1.110596,-2.014160,4.882812,3.051758
17928,-0.173218,-0.098145,1.011841,-1.281738,4.882812,1.281738
17938,-0.153564,-0.036377,1.075562,-0.671387,4.638672,-0.610352
17949,-0.107422,-0.221069,0.989380,-0.549316,4.455566,-1.464844
17958,-0.121338,-0.156860,0.996094,-1.586914,5.187988,-1.342773
17968,-0.164307,-0.000122,1.066772,-2.685547,6.225586,0.488281
17980,-0.257568,0.199097,0.998413,-2.319336,8.544922,1.831055
17989,-0.303101,-0.019775,0.851685,-0.976562,9.826660,3.417969
17999,-0.288208,0.060303,0.877319,-0.366211,11.230469,4.638672
18008,-0.254761,0.061279,1.032471,-0.305176,12.207031,5.554199
18019,-0.275269,-0.082275,0.983521,-0.793457,12.817383,6.713867
18029,-0.291016,-0.113403,0.990845,-1.953125,13.427734,7.385254
18039,-0.268799,-0.153320,1.042847,-4.821777,14.831543,7.995605
18049,-0.233276,0.073853,1.143188,-6.225586,15.502930,8.605957
18059,-0.155273,0.172852,1.039551,-6.286621,16.357422,8.666992
18069,-0.162964,0.259033,0.914795,-5.859375,17.089844,8.178711
18078,-0.166138,0.212646,0.790771,-3.967285,17.578125,7.507324
18089,-0.157104,0.106812,0.797485,-1.464844,17.456055,5.859375
18099,-0.197632,0.097046,0.810181,0.854492,16.784668,3.784180
18108,-0.264282,-0.053345,0.877808,2.990723,16.601562,-1.098633
18120,-0.243896,-0.331543,0.916870,2.746582,16.601562,-3.967285
18129,-0.157471,-0.193115,0.962402,0.488281,16.967773,-6.652832
18139,-0.067017,-0.052368,0.885986,-0.976562,17.211914,-8.728027
18148,-0.061279,0.022339,0.844360,-1.831055,17.211914,-10.192871
18159,0.063843,-0.003418,0.917603,-2.319336,17.272949,-10.498047
18169,0.705566,-0.423950,1.017578,-2.563477,18.066406,-9.033203
18178,0.849487,-0.442627,1.017456,-4.333496,12.695313,-1.342773
18188,0.690918,0.087402,0.842407,-3.234863,7.385254,0.793457
18199,0.082275,-0.320557,0.972778,0.915527,5.554199,1.586914
18208,0.394287,-0.905762,1.389893,2.563477,7.690430,1.831055
18219,0.455566,-0.677368,1.491455,0.854492,9.399414,2.136230
18229,0.307983,-0.471191,1.251221,-1.953125,6.835937,0.122070
18239,0.433105,-0.376709,1.022339,-3.173828,2.563477,-4.272461
18248,0.552368,-0.284424,1.075195,-2.990723,-2.807617,-7.507324
18260,0.249268,-0.200806,0.875122,-1.098633,-3.417969,-8.422852
18270,0.258911,-0.226807,1.004517,-0.793457,-2.136230,-8.239746
18279,0.236572,-0.136108,1.067505,-1.098633,-0.732422,-7.812500
18289,0.239014,-0.111694,1.080811,-2.441406,0.061035,-7.751465
18299,0.234253,-0.020142,1.034424,-3.112793,0.183105,-8.483887
18308,0.238770,-0.016113,1.019775,-3.234863,-0.732422,-10.253906
18321,0.163208,-0.049438,1.087158,-3.845215,-5.432129,-16.540527
18330,0.135376,0.067017,1.074341,-4.028320,-6.774902,-19.165039
18340,0.096558,0.134766,1.072510,-3.723145,-7.141113,-20.629883
18350,0.062012,0.130859,0.995605,-3.051758,-6.469727,-21.057129
18359,0.081787,0.133057,1.021606,-2.136230,-5.798340,-20.507812
18369,0.013184,-0.028564,0.874634,-1.770020,-4.821777,-19.409180
18379,0.007324,0.159790,1.007080,-1.770020,-3.540039,-17.639160
18388,0.013306,-0.013550,0.877319,-1.525879,-0.732422,-12.817383
18400,0.036865,0.029175,0.879150,-2.014160,0.122070,-10.070801
18410,0.042114,0.008911,0.887329,-2.746582,0.549316,-7.446289
18419,0.039551,0.059692,0.929077,-3.234863,0.915527,-4.821777
18428,0.069946,-0.022827,0.958130,-3.356934,0.854492,-1.037598
18439,0.062744,0.095703,0.914917,-3.662109,1.464844,3.051758
18449,0.041504,0.089844,0.983887,-3.662109,2.014160,6.774902
18461,0.086060,0.120850,1.085205,-2.990723,3.356934,13.549805
18470,0.124634,-0.041626,1.036499,-2.014160,2.990723,15.930176
18480,0.136597,-0.019653,1.073853,-1.098633,2.319336,17.456055
18489,0.121704,-0.293945,0.975220,-0.610352,1.525879,18.493652
18499,0.104126,-0.100952,1.118774,-1.281738,-0.366211,18.371582
18509,0.076782,-0.183105,1.084717,-1.464844,-2.258301,17.700195
18519,0.026123,-0.208008,1.051880,-1.647949,-3.540039,16.601562
18529,0.025513,-0.033936,1.155273,-0.854492,-5.310059,14.770508
18538,0.023682,-0.222900,1.050781,-0.610352,-5.065918,13.793945
18549,0.071289,-0.288818,0.982910,-0.305176,-5.004883,13.305664
18558,0.079468,-0.236816,1.030884,-0.427246,-5.493164,12.390137
18569,0.130493,-0.257202,1.067139,-0.122070,-6.225586,11.108398
18579,0.120728,-0.330444,0.932739,-0.183105,-7.324219,9.582520
18589,0.114014,-0.182007,0.968506,-0.244141,-8.911133,7.202148
18599,0.131714,-0.393188,0.885864,0.183105,-11.352539,3.417969
18610,0.069214,-0.427002,0.829956,0.244141,-12.145996,2.746582
18620,0.028076,-0.302246,0.796875,-0.122070,-11.657715,3.417969
18629,0.035034,-0.383789,0.812378,-0.610352,-10.925293,5.798340
18639,0.071655,-0.367676,0.796143,-1.342773,-10.009766,8.850098
18649,0.068970,-0.248657,0.956665,-1.770020,-9.826660,11.901855
18659,0.011963,-0.389893,0.900757,-1.464844,-10.009766,14.953613
18668,-0.001953,-0.216675,1.069092,-0.854492,-10.253906,21.423340
18680,-0.092529,-0.627930,0.957031,1.220703,-10.437012,24.597168
18690,-0.149292,-0.505005,0.911011,0.793457,-9.521484,28.198242
18700,-0.143311,-0.461792,0.932129,0.244141,-8.728027,31.799316
18709,-0.182861,-0.600586,0.838989,-0.671387,-8.666992,34.606934
18719,-0.276367,-0.467041,0.827759,-1.037598,-8.544922,36.010742
18729,-0.284424,-0.317505,0.921265,-0.610352,-7.873535,36.926270
18739,-0.314575,-0.489868,0.911987,0.488281,-7.446289,35.461426
18750,-0.519897,-0.468872,1.004761,0.915527,-7.080078,32.775879
18760,-0.466553,-0.391235,0.990112,1.220703,-6.652832,29.357910
18770,-0.503906,-0.512939,0.897339,1.342773,-6.042480,25.817871
18779,-0.500854,-0.539795,0.942383,0.854492,-5.859375,20.874023
18789,-0.409180,-0.573364,0.910889,0.366211,-5.371094,15.563965
18801,-0.366821,-0.409912,0.971069,-1.342773,-5.126953,5.737305
18810,-0.421509,-0.074585,1.162842,-2.319336,-4.150391,0.610352
18820,-0.350464,-0.028442,1.208740,-2.563477,-3.540039,-3.662109
18829,-0.361328,-0.096313,1.228271,-2.380371,-2.807617,-7.751465
18839,-0.443237,-0.093994,1.264526,-2.319336,-2.380371,-11.657715
18849,-0.364136,0.014038,1.175171,-2.197266,-1.647949,-14.770508
18859,-0.289185,0.031860,1.062744,-2.014160,-0.549316,-16.723633
18869,-0.313477,0.053223,0.996582,-1.647949,-0.061035,-18.554687
18879,-0.279663,0.084473,0.962646,-1.647949,2.868652,-17.761230
18888,-0.219849,0.025513,0.937744,-2.197266,4.699707,-15.869141
18899,-0.164673,0.016235,0.978394,-2.502441,6.286621,-13.610840
18909,-0.128296,0.036255,0.965698,-2.319336,7.751465,-10.437012
18919,-0.116821,0.082397,0.938232,-2.075195,9.521484,-7.141113
18929,-0.087891,0.045776,0.940674,-1.525879,10.803223,-4.333496
18939,0.020508,-0.097534,0.936157,-1.342773,12.023926,-1.220703
18950,0.090698,-0.057617,0.943848,-1.464844,11.169434,2.929688
18960,0.101440,0.042847,1.013184,-2.075195,11.047363,4.638672
18969,0.134888,0.033569,1.077881,-1.586914,11.108398,6.835937
18979,0.132568,-0.031738,1.077759,-0.183105,10.864258,8.850098
18989,0.114624,-0.055298,1.030151,0.915527,10.375977,9.948730
18999,0.086304,-0.105347,0.955322,1.525879,9.826660,11.596680
19008,0.102051,-0.145630,0.883911,1.892090,9.277344,12.634277
