timestamp,accX,accY,accZ,gyrX,gyrY,gyrZ
11,-0.033325,-0.004150,0.932373,-2.990723,2.014160,8.666992
21,-0.083374,0.045288,0.928955,-2.990723,0.915527,8.361816
32,-0.018188,-0.110840,0.894653,-2.563477,0.183105,7.446289
42,-0.010254,-0.129395,0.911987,-1.831055,0.671387,8.666992
51,-0.028076,-0.114624,0.921509,-1.953125,1.098633,10.253906
61,-0.007568,-0.139038,0.906860,-2.197266,1.342773,11.596680
70,0.045532,-0.046509,0.958740,-2.136230,1.098633,12.207031
81,0.036377,-0.035034,0.978516,-1.647949,0.366211,12.512207
91,0.091675,-0.160767,0.947632,-1.159668,-0.183105,12.756348
102,0.017944,-0.170898,0.897949,-1.220703,-0.427246,12.512207
112,-0.041626,-0.016602,1.019653,-1.525879,-0.732422,11.657715
122,0.026978,0.010498,1.124878,-1.220703,-1.647949,9.887695
131,0.016968,-0.061768,1.168701,-0.549316,-2.197266,9.216309
142,0.054443,-0.111816,1.167236,0.366211,-2.502441,9.826660
151,0.011230,-0.139404,1.123901,0.671387,-2.136230,11.108398
161,0.014404,-0.095215,1.112305,0.122070,-1.831055,12.329102
172,0.001709,-0.267334,0.927490,-0.061035,-1.953125,11.291504
182,0.032104,-0.306030,0.867920,-1.525879,-3.356934,9.216309
191,0.010010,-0.204102,0.940063,-2.746582,-3.723145,6.591797
201,0.102783,-0.032593,1.075806,-4.150391,-4.211426,3.540039
211,0.127808,-0.033569,1.157959,-4.638672,-5.065918,1.220703
222,0.128418,-0.124146,1.019287,-3.723145,-6.652832,-0.366211
231,0.050171,-0.026611,0.945679,-2.868652,-7.263184,-0.671387
241,0.050781,-0.035156,0.947388,-3.051758,-4.699707,-1.220703
251,0.028320,-0.172363,1.012451,-3.356934,-5.737305,-3.967285
262,0.026611,-0.075562,0.987793,-3.479004,-6.958008,-6.958008
271,0.083130,-0.032959,0.953491,-3.540039,-7.507324,-8.666992
281,0.141846,-0.097534,0.954590,-3.173828,-7.080078,-8.972168
292,0.113647,-0.092163,0.874390,-3.173828,-6.164551,-8.300781
301,0.119019,0.000244,0.922729,-2.563477,-6.225586,-7.751465
311,0.115356,-0.000244,0.997314,-2.075195,-7.019043,-7.812500
321,0.110596,-0.236572,0.782959,-2.563477,-7.080078,-8.422852
331,0.098022,-0.067749,0.897949,-3.173828,-7.629395,-9.948730
341,0.129272,-0.014404,0.970337,-3.295898,-7.995605,-11.657715
351,0.121948,-0.184204,0.946777,-2.990723,-8.239746,-12.756348
361,0.105347,-0.106812,0.961670,-2.563477,-8.666992,-13.671875
372,0.088379,0.097900,1.059692,-1.647949,-8.178711,-12.756348
382,0.175049,-0.174561,1.005859,-1.708984,-7.934570,-12.084961
392,0.070190,-0.119019,0.959961,-1.647949,-8.178711,-12.084961
401,0.069336,-0.038086,1.011841,-1.464844,-8.178711,-12.023926
411,0.073364,-0.093018,0.994629,-1.403809,-7.995605,-12.512207
421,0.073364,-0.244019,0.976318,-1.770020,-7.690430,-13.244629
432,0.067871,-0.238892,1.058838,-2.075195,-7.690430,-13.977051
441,0.094482,-0.099365,1.139038,-2.319336,-8.178711,-14.892578
451,0.093994,-0.077393,1.126099,-2.380371,-7.690430,-14.038086
461,0.036865,-0.158447,0.963257,-2.807617,-6.713867,-12.695313
471,0.023071,-0.049683,1.006470,-3.112793,-6.164551,-12.145996
481,-0.034058,0.019531,1.031128,-3.234863,-6.286621,-12.329102
491,-0.075195,-0.111206,0.926392,-2.990723,-6.042480,-12.573242
502,-0.092407,-0.112305,0.926392,-2.990723,-5.493164,-13.122559
512,-0.065674,0.071045,1.010986,-2.624512,-3.540039,-11.230469
522,-0.047241,0.133179,1.054565,-1.831055,-2.868652,-10.253906
531,-0.136719,-0.187256,0.855469,-1.586914,-1.770020,-8.911133
541,-0.030151,-0.149414,0.871582,-1.342773,0.244141,-6.530762
551,0.010986,0.057861,1.012451,-1.647949,0.976562,-5.310059
561,-0.140747,0.004272,0.946777,-1.708984,0.000000,-4.882812
571,-0.155029,-0.227783,0.825317,-1.953125,0.366211,-4.882812
581,-0.091309,-0.088379,0.866821,-2.075195,0.915527,-4.699707
592,-0.065430,0.010132,1.020386,-2.136230,1.708984,-2.624512
602,-0.060547,-0.077148,1.025269,-1.098633,2.380371,-0.305176
612,-0.016968,0.037598,1.069824,-0.305176,3.112793,2.990723
621,0.014282,0.046631,1.078979,0.488281,3.479004,5.920410
631,0.006958,-0.114014,1.029053,1.037598,3.662109,9.033203
641,-0.047729,-0.219482,0.872559,1.342773,4.089355,10.742188
653,-0.036011,-0.141602,0.945923,0.549316,3.662109,11.047363
662,0.015869,-0.059570,1.050903,0.427246,2.563477,10.375977
672,0.014771,-0.158203,1.032715,0.610352,1.525879,10.192871
681,0.001831,-0.045044,1.129639,0.854492,1.342773,11.169434
692,0.026489,0.050903,1.194580,1.220703,1.770020,13.427734
701,-0.023071,0.034668,1.176636,1.708984,1.953125,15.441895
711,-0.011108,-0.125244,1.139771,2.441406,1.953125,16.784668
722,-0.077759,-0.235840,0.990356,2.441406,0.976562,15.747070
732,-0.150024,-0.258423,0.760376,1.464844,1.220703,13.488770
742,-0.203857,-0.280884,0.702393,-0.427246,1.770020,9.826660
752,-0.155762,-0.395752,0.652222,-2.746582,1.586914,4.516602
761,-0.048096,-0.131104,0.849487,-4.150391,0.244141,-0.671387
771,0.122437,0.032837,1.013550,-4.394531,-1.708984,-4.577637
781,0.110840,0.005371,0.984375,-4.272461,-2.990723,-5.798340
791,0.092407,0.068237,1.012573,-4.211426,-2.197266,-3.112793
802,-0.003540,0.012573,1.164185,-3.967285,1.220703,3.173828
812,-0.069824,-0.186768,1.085815,-2.075195,1.281738,3.784180
821,-0.082764,-0.285645,0.934448,-1.220703,0.122070,2.075195
831,-0.053833,-0.079468,0.957520,-1.037598,-0.732422,0.000000
842,0.040771,0.067261,1.101318,-1.281738,-0.671387,-0.915527
851,0.059570,0.015259,1.044312,-0.854492,-0.549316,-0.549316
861,0.058960,-0.061401,1.004028,-0.366211,-0.549316,0.244141
873,0.015259,-0.057373,1.017334,-0.183105,-0.122070,1.037598
882,0.082275,-0.149292,1.071533,-0.610352,-0.183105,-0.488281
892,0.033691,-0.317017,1.019775,-0.427246,-0.976562,-2.868652
902,0.081421,-0.257324,1.008911,-0.122070,-2.319336,-5.493164
912,0.028076,-0.076538,1.000977,0.305176,-3.356934,-7.202148
921,0.080933,-0.062622,1.013428,-0.122070,-3.906250,-8.361816
931,0.103638,-0.183228,0.970825,-0.854492,-3.356934,-7.629395
943,0.031006,0.045776,0.967041,-1.892090,-2.136230,-5.065918
952,0.037109,0.039795,1.010376,-1.770020,-1.831055,-2.807617
962,0.001099,-0.119141,1.030762,-1.586914,-1.586914,-0.549316
971,0.010010,-0.081665,1.079346,-2.136230,-1.770020,1.464844
981,-0.037231,0.062866,1.056641,-2.685547,-1.220703,4.150391
992,-0.048584,0.029785,1.027954,-2.807617,-1.342773,5.981445
1001,-0.084351,-0.290894,0.866943,-2.685547,-0.793457,7.873535
1011,-0.116333,-0.243652,0.759644,-4.638672,0.000000,7.385254
1022,0.011963,0.009521,1.057983,-5.126953,-0.732422,6.225586
1031,-0.023560,-0.081299,0.963745,-5.004883,-2.136230,4.638672
1041,0.027954,0.113159,1.004272,-3.967285,-2.563477,3.784180
1051,-0.004150,0.040161,0.940796,-2.075195,-2.746582,3.601074
1062,-0.043701,-0.271729,0.826660,-1.159668,-2.319336,3.662109
1072,-0.060669,-0.250000,0.847168,-1.525879,-1.220703,2.380371
1081,0.045166,0.036255,1.063232,-1.037598,-2.319336,0.976562
1092,-0.007690,-0.135132,0.962891,0.183105,-3.479004,-0.671387
1102,0.006836,-0.180908,1.013184,0.366211,-3.173828,-0.976562
1111,0.065063,-0.157837,1.069702,0.061035,-3.112793,-1.037598
1122,0.034302,-0.081299,1.086792,-0.061035,-3.295898,-1.464844
1131,0.010376,-0.179687,0.968872,0.000000,-4.028320,-2.075195
1141,0.040771,-0.262329,0.912109,-0.305176,-3.845215,-3.479004
1152,0.078613,-0.141602,1.137939,-0.610352,-4.150391,-7.080078
1162,0.058350,-0.116333,1.243042,-1.831055,-5.249023,-9.582520
1171,0.083496,-0.139893,1.170288,-0.976562,-6.347656,-12.390137
1181,0.074829,-0.111084,1.078857,-0.305176,-6.652832,-14.831543
1192,0.066406,-0.118896,1.089111,0.244141,-5.981445,-16.357422
1201,0.067383,-0.109131,1.107056,0.427246,-5.187988,-17.578125
1211,0.096924,-0.127197,1.070923,0.427246,-5.249023,-18.066406
1222,0.040649,-0.011353,1.051392,0.793457,-6.347656,-19.653320
1232,0.029785,-0.090210,1.017334,1.159668,-5.798340,-18.981934
1241,0.059814,-0.105469,0.988281,0.976562,-4.821777,-17.578125
1251,0.022095,-0.219116,0.895020,0.854492,-4.089355,-16.845703
1261,-0.026245,-0.266846,0.818237,0.305176,-3.662109,-16.052246
1272,-0.032349,-0.009521,0.891357,-0.549316,-3.051758,-14.892578
1281,-0.026611,0.089966,0.965698,-0.915527,-2.441406,-12.451172
1293,-0.057495,-0.067749,0.899902,-0.915527,-1.098633,-11.169434
1303,-0.043945,0.030396,0.940186,-0.427246,-0.732422,-10.314941
1313,-0.050781,-0.076294,0.848145,-0.061035,-0.061035,-9.399414
1322,-0.053467,-0.213013,0.791748,0.000000,0.732422,-8.422852
1332,-0.058228,-0.030640,0.878906,-0.061035,1.281738,-7.812500
1341,-0.010132,0.035645,0.952271,0.244141,1.525879,-7.141113
1354,-0.043823,-0.220459,0.862305,0.427246,2.380371,-5.004883
1363,-0.045288,-0.076172,0.974487,0.000000,2.929688,-3.784180
1373,-0.057251,-0.019897,1.060425,0.061035,3.173828,-2.929688
1382,-0.074097,-0.098267,1.080322,0.122070,3.295898,-2.502441
1392,-0.045654,-0.181396,1.028198,0.122070,3.601074,-2.563477
1401,-0.084351,-0.157471,0.984497,0.000000,3.723145,-2.868652
1412,-0.033813,0.169189,1.105103,-0.915527,3.479004,-3.295898
1421,-0.035034,0.046021,1.151245,-0.366211,3.051758,-3.723145
1433,-0.044800,-0.250000,0.890869,0.305176,3.051758,-3.540039
1443,-0.003052,-0.085449,1.063232,-0.305176,3.601074,-2.075195
1452,-0.036499,-0.045654,1.104858,-0.732422,4.577637,-0.305176
1462,-0.039185,-0.065674,1.128784,-1.159668,4.821777,1.220703
1471,-0.046997,-0.023315,1.141846,-1.342773,5.249023,2.441406
1482,-0.077393,-0.044189,1.112915,-1.037598,5.371094,3.112793
1491,-0.025146,-0.078003,1.022095,-1.342773,5.371094,3.234863
1503,-0.027100,-0.041992,1.012695,-1.770020,5.371094,3.601074
1512,-0.039917,-0.021484,1.029175,-2.197266,5.310059,4.516602
1522,0.007324,0.002563,1.005737,-2.502441,5.981445,6.042480
1531,-0.012451,-0.064087,1.014526,-2.929688,5.920410,7.080078
1544,-0.003784,-0.181763,0.972534,-2.868652,3.906250,7.080078
1554,-0.034424,0.148071,1.027954,-2.075195,4.699707,6.225586
1564,-0.015747,-0.086426,0.988525,-1.647949,4.577637,5.371094
1574,-0.009399,-0.237061,0.906250,-1.647949,4.089355,4.577637
1583,0.007202,0.009277,0.922729,-1.831055,4.272461,3.967285
1592,-0.026489,0.023071,0.907715,-1.464844,3.723145,3.723145
1601,-0.013184,-0.154175,0.805054,-1.098633,3.295898,3.356934
1612,-0.011719,-0.111572,0.845703,-1.098633,3.662109,3.234863
1621,0.010742,-0.106201,0.920044,-0.915527,3.723145,3.112793
1634,-0.017700,-0.184692,0.901123,-0.671387,3.051758,2.685547
1643,-0.007813,-0.052246,0.997803,-0.915527,2.807617,2.502441
1653,0.026611,-0.154541,0.973145,-0.488281,3.234863,1.831055
1662,0.005371,-0.297119,0.883667,-0.488281,2.807617,1.098633
1671,0.030762,-0.137817,0.959717,-1.159668,2.197266,0.244141
1682,0.043213,0.015747,1.111816,-1.708984,1.708984,-0.793457
1691,0.060547,-0.149536,1.080811,-1.770020,1.525879,-1.831055
1704,0.017700,-0.090820,1.020508,-0.854492,0.915527,-3.967285
1713,0.035034,-0.035400,1.088013,-0.732422,0.854492,-4.699707
1723,0.038330,-0.192749,1.029419,-0.793457,0.793457,-4.882812
1733,0.017944,-0.176880,1.028076,-1.281738,0.671387,-4.577637
1742,0.022461,-0.046265,1.047974,-1.220703,0.793457,-3.662109
1752,0.012573,-0.041870,1.004150,-1.159668,1.098633,-2.502441
1761,0.015259,-0.129517,0.992676,-1.403809,1.770020,-0.976562
1773,-0.015381,-0.180298,0.991821,-2.868652,1.770020,0.366211
1782,-0.058472,0.037842,1.047241,-3.051758,1.831055,1.037598
1792,-0.016602,-0.020630,1.000732,-3.051758,1.831055,1.708984
1801,-0.011963,-0.078003,0.963501,-3.051758,2.136230,2.502441
1812,-0.025024,0.053467,1.048096,-2.929688,2.563477,3.601074
1821,0.002930,0.023071,1.025879,-3.173828,2.624512,4.211426
1832,-0.025269,-0.124268,0.971680,-3.356934,2.441406,4.455566
1841,0.004639,-0.022339,0.973022,-3.540039,2.258301,4.638672
1853,0.007813,-0.089844,0.991821,-3.051758,1.342773,3.967285
1862,-0.023315,-0.284180,0.869995,-2.990723,1.037598,3.479004
1872,-0.001953,-0.061890,0.962280,-3.234863,1.037598,3.051758
1881,0.027466,0.105103,1.092285,-3.173828,1.098633,2.685547
1892,0.020386,-0.079590,1.022827,-2.685547,0.915527,2.624512
1901,-0.008423,-0.170654,0.970093,-2.319336,0.976562,2.380371
1914,-0.010864,-0.073608,1.021362,-1.098633,1.220703,2.380371
1923,0.020020,-0.259766,0.902100,-0.549316,1.098633,1.770020
1933,0.011719,-0.195068,0.886841,-0.122070,0.305176,1.098633
1942,0.025757,-0.068726,0.968140,-0.183105,-0.244141,0.549316
1952,0.015991,-0.232178,0.834595,-0.061035,-0.183105,0.732422
1961,-0.009766,-0.217163,0.841187,-0.305176,0.061035,0.732422
1972,0.027588,-0.035889,0.941162,-0.671387,0.366211,0.549316
1981,-0.008545,-0.028320,1.005249,-1.098633,0.244141,-0.061035
1993,-0.000977,-0.040039,1.016479,-1.708984,-0.183105,-1.342773
2002,0.020020,-0.024048,1.069214,-1.403809,-0.366211,-1.831055
2012,0.012451,-0.157837,1.067261,-1.220703,-0.427246,-1.770020
2021,0.010010,-0.077515,1.103638,-1.037598,-0.366211,-1.770020
2032,0.015015,0.013306,1.182983,-0.427246,-0.183105,-1.281738
2041,-0.002319,-0.067261,1.073242,0.488281,-0.122070,-0.854492
2054,0.061768,-0.199707,1.004761,0.610352,0.427246,0.122070
2063,0.020508,-0.088867,1.058594,0.427246,0.305176,0.366211
2072,-0.012939,-0.012329,1.032349,0.305176,-0.305176,0.183105
2082,0.030762,-0.170776,1.008667,0.183105,-0.305176,0.183105
2092,-0.001465,-0.312744,0.947266,-0.061035,-0.549316,0.366211
2101,-0.031494,-0.066040,0.970825,-0.549316,-0.244141,0.122070
2112,-0.021729,0.125610,1.067261,-0.671387,-0.122070,0.305176
2121,-0.013184,0.004761,1.059814,-0.732422,0.122070,0.610352
2133,-0.013428,-0.113647,0.906250,-0.549316,0.183105,0.915527
2142,0.013428,0.036377,1.002930,-0.549316,0.427246,1.037598
2152,0.003784,-0.011963,1.022949,-0.732422,0.183105,0.610352
2162,0.011719,-0.153320,0.979126,-0.427246,0.061035,0.183105
2172,0.008423,-0.140259,0.950562,-0.183105,-0.183105,-0.244141
2181,0.037598,-0.124634,0.940796,-0.061035,-0.427246,-0.732422
2194,0.021851,-0.025513,0.943848,-1.342773,-0.305176,-0.732422
2204,0.027832,0.134033,1.064575,-1.831055,-0.366211,-0.793457
2213,0.013550,-0.158813,0.924561,-1.770020,-0.427246,-0.915527
2223,-0.021484,-0.164917,0.886475,-1.708984,-0.244141,-0.854492
2232,0.013672,0.068848,1.050415,-1.342773,-0.122070,-0.915527
2242,0.030762,-0.019165,1.096313,-0.976562,-0.366211,-1.403809
2252,-0.005859,-0.235352,1.027710,-0.671387,-0.610352,-1.586914
2261,0.000122,-0.167725,1.026978,-0.122070,-1.220703,-2.624512
2273,0.014771,-0.076782,1.046509,0.732422,-0.915527,-2.929688
2282,0.010498,-0.247803,0.938477,0.488281,-0.793457,-3.051758
2292,0.020386,-0.151001,0.950684,0.244141,-0.244141,-2.441406
2302,0.022217,0.008545,1.008667,0.061035,-0.488281,-1.770020
2312,0.016479,-0.127319,0.958740,-0.122070,-0.427246,-1.586914
2321,-0.005005,-0.273560,0.910400,-0.427246,-0.244141,-1.037598
2334,0.011719,-0.049683,1.078857,-1.281738,0.000000,-0.976562
2344,-0.011230,-0.092529,1.041260,-1.647949,-0.488281,-1.220703
2353,-0.017822,-0.066528,1.049194,-1.403809,-0.488281,-1.464844
2364,0.008789,-0.016602,1.054565,-0.915527,-0.366211,-1.647949
2373,-0.006958,-0.118408,0.997070,-0.854492,-0.427246,-1.647949
2383,-0.014404,-0.196533,0.977539,-0.854492,-0.366211,-1.770020
2393,-0.024536,-0.053711,0.996216,-0.549316,-0.183105,-1.403809
2403,-0.027588,-0.197266,0.986816,-0.183105,0.427246,-0.793457
2413,0.045044,-0.341187,0.934326,-0.122070,0.305176,-0.671387
2422,0.001831,-0.114136,0.995361,-0.244141,0.305176,-0.366211
2432,0.030029,0.123657,1.217285,-0.427246,-0.061035,-0.732422
2441,0.021362,-0.034424,1.206787,-0.305176,0.061035,-1.342773
2452,0.007324,-0.299316,0.973999,0.122070,-0.244141,-2.014160
2461,-0.012817,-0.119141,0.883423,0.366211,-0.671387,-2.929688
2473,0.023682,-0.213501,0.675781,0.183105,-0.610352,-3.234863
2483,0.045654,0.034668,0.834595,-1.586914,-0.305176,-3.417969
2492,0.067383,0.123535,0.983521,-2.624512,-0.244141,-3.479004
2502,0.029541,-0.131836,0.843872,-3.295898,-0.427246,-3.662109
2512,0.021118,0.074341,0.925537,-4.089355,-0.610352,-4.455566
2521,0.036865,0.123901,1.020142,-4.394531,-0.305176,-4.455566
2532,0.013062,-0.154663,0.820557,-3.967285,-0.549316,-4.821777
2542,0.021118,0.045898,0.905518,-4.882812,-0.488281,-4.638672
2553,0.018311,-0.076782,0.940796,-5.371094,-0.549316,-4.455566
2563,0.010864,0.157471,1.110352,-6.164551,-0.305176,-4.272461
2572,-0.001221,0.099243,1.034912,-6.164551,-0.244141,-3.845215
2582,-0.003052,0.083008,1.033081,-5.065918,0.122070,-3.662109
2592,-0.008057,-0.010376,1.060791,-3.479004,0.488281,-3.417969
2603,-0.012939,-0.019165,1.110229,-2.014160,-0.061035,-3.356934
2613,0.024780,-0.049805,1.188477,-2.502441,0.000000,-3.173828
2622,-0.064941,0.101563,1.050903,-3.784180,0.427246,-2.685547
2632,-0.025024,0.248901,0.980347,-3.601074,0.854492,-2.258301
2642,0.000122,0.065918,0.922607,-1.098633,1.403809,-1.525879
2652,-0.041016,-0.024170,0.938477,0.488281,1.342773,-0.732422
2662,-0.006958,-0.023560,1.112061,1.159668,0.671387,-0.732422
2672,0.024536,-0.237549,1.080811,-0.488281,0.122070,-1.525879
2682,-0.010132,0.140991,1.104614,-4.455566,0.671387,-0.671387
2693,0.009033,0.005737,0.653687,-3.723145,1.159668,-0.488281
2702,-0.029053,0.174194,0.943604,-2.563477,1.525879,0.244141
2712,0.013550,-0.121094,0.977783,-1.647949,1.708984,0.915527
2723,0.015259,-0.054810,1.153198,-2.380371,1.342773,0.305176
2732,0.001465,-0.045776,1.180176,-4.211426,1.586914,-0.183105
2742,-0.055054,-0.050781,0.818359,-5.126953,1.464844,-0.061035
2752,-0.026001,-0.061279,0.535034,-3.784180,1.831055,-0.122070
2763,0.074097,0.069946,0.922607,-5.249023,1.647949,-0.305176
2773,0.006836,0.054321,0.843018,-7.446289,0.915527,-1.342773
2783,-0.023926,0.350220,1.009155,-9.277344,0.854492,-1.953125
2792,-0.024414,0.217163,0.985107,-7.812500,1.037598,-1.281738
2802,-0.005859,0.105225,0.981445,-6.286621,1.342773,-1.098633
2814,-0.035645,0.057251,1.014893,-5.920410,1.403809,-1.342773
2823,-0.019287,0.172241,1.071533,-3.967285,1.281738,-1.098633
2832,0.003174,-0.041138,1.060669,-1.281738,1.586914,-0.549316
2842,-0.037964,-0.075317,1.133057,-0.305176,1.831055,-0.305176
2852,-0.037476,0.040649,1.132935,-1.037598,2.014160,0.000000
2862,-0.011597,-0.049316,1.012695,-0.976562,2.563477,0.671387
2873,0.027100,0.008179,0.985229,0.427246,2.868652,1.037598
2882,-0.008423,-0.078491,0.909668,1.342773,2.319336,1.342773
2894,-0.006470,-0.108276,1.090942,2.380371,1.647949,1.708984
2903,0.039917,0.012451,1.125366,0.915527,1.403809,1.708984
2912,-0.056519,-0.007935,0.950439,-0.610352,1.586914,2.380371
2922,0.002075,0.125977,0.880127,-1.403809,2.014160,3.295898
2932,-0.023926,0.154053,0.883179,-0.976562,2.502441,3.967285
2942,0.055908,0.109253,0.987061,-0.366211,2.197266,4.211426
2953,-0.041504,0.023315,1.154785,-0.854492,1.525879,4.089355
2963,-0.074219,0.038940,1.207275,-2.197266,1.953125,4.272461
2973,-0.006226,0.095947,1.131836,-3.356934,2.197266,4.211426
2983,-0.019043,0.166748,1.062866,-2.624512,2.380371,4.272461
2992,0.023071,0.031006,0.877563,-0.671387,2.136230,3.784180
3002,0.006958,0.068359,1.003052,0.427246,1.647949,3.417969
3012,0.044189,-0.057617,1.020874,0.610352,1.098633,2.807617
3022,0.019287,0.100586,1.103882,-1.525879,0.793457,1.892090
3033,0.019165,0.222534,0.897339,-3.295898,0.793457,1.342773
3043,0.033081,0.229980,0.888184,-2.929688,0.793457,0.732422
3052,0.006836,0.150513,0.882446,-0.488281,0.122070,0.000000
3062,0.035156,0.003662,0.988281,0.305176,-0.183105,-0.244141
3072,0.033936,-0.012573,0.989746,-0.061035,-0.244141,-0.671387
3082,0.028931,-0.048096,0.987183,-1.342773,-0.183105,-1.037598
3094,0.030518,0.002197,0.984863,-3.723145,-0.244141,-1.831055
3103,0.037109,0.075806,0.856934,-2.746582,-0.183105,-1.953125
3113,0.039307,-0.042114,0.964355,-0.549316,-0.366211,-2.319336
3123,0.045532,-0.000244,1.057739,0.488281,-0.671387,-3.112793
3132,0.045776,-0.089355,1.051636,0.305176,-1.037598,-3.295898
3142,0.044922,-0.040039,1.090576,-0.183105,-1.159668,-3.356934
3152,0.040649,0.062988,1.065552,-1.525879,-1.098633,-3.173828
3162,0.037720,0.033447,0.933960,-2.014160,-0.793457,-3.173828
3174,0.029053,0.083984,0.991211,-1.647949,-1.037598,-3.356934
3183,0.002075,-0.051880,1.000732,-0.244141,-1.464844,-3.479004
3193,0.042725,0.047485,1.215698,-1.159668,-1.586914,-3.662109
3203,0.001099,0.098633,1.145264,-1.892090,-1.281738,-3.417969
3212,0.019409,0.030029,1.050781,-2.441406,-1.220703,-3.479004
3222,-0.015747,0.074829,1.038330,-2.441406,-0.915527,-3.173828
3232,-0.003662,0.083252,1.065063,-1.464844,-0.671387,-2.624512
3244,0.001465,-0.094116,0.964111,-0.976562,-0.732422,-2.075195
3253,-0.023071,-0.001831,0.960571,-1.220703,-0.549316,-1.770020
3263,-0.030273,0.068115,0.934937,-1.892090,-0.366211,-1.281738
3273,-0.017212,0.029541,0.906860,-1.892090,-0.061035,-1.037598
3282,-0.021484,0.084839,0.933350,-2.136230,0.427246,-0.793457
3292,-0.036133,0.096802,0.968384,-2.807617,0.610352,-0.305176
3304,-0.053467,0.130005,0.984131,-3.723145,0.915527,-0.061035
3313,-0.045410,0.148804,0.910522,-2.624512,1.037598,0.122070
3323,-0.025391,0.063232,0.924194,-1.586914,1.098633,0.000000
3332,-0.020386,-0.032959,0.927612,-0.854492,1.220703,0.000000
3343,0.009155,-0.005249,1.024658,-0.183105,1.220703,0.183105
3352,0.015747,-0.025146,1.072388,-0.183105,1.159668,0.305176
3363,0.014893,-0.030151,0.982788,-1.159668,1.403809,0.366211
3372,0.011230,0.054199,1.016479,-2.258301,1.464844,0.549316
3384,0.003906,0.033691,0.850586,-1.403809,1.220703,0.610352
3393,0.025757,-0.015381,1.042236,0.061035,1.342773,0.976562
3402,0.019287,0.108765,1.106201,0.305176,1.098633,1.342773
3413,-0.006348,0.023682,1.104126,-0.305176,0.976562,1.770020
3422,0.013062,-0.111206,0.999878,-0.610352,0.671387,1.770020
3433,-0.000610,-0.032227,0.998413,-1.159668,0.793457,2.319336
3442,0.025879,0.166626,1.137939,-1.647949,1.037598,3.356934
3454,-0.023926,0.090088,1.065430,-1.098633,1.098633,4.028320
3463,-0.049438,-0.011353,1.039185,-0.366211,1.647949,4.882812
3473,-0.022217,-0.020142,1.015503,-0.488281,1.953125,5.249023
3482,-0.026489,0.009277,1.017578,-0.427246,2.136230,5.432129
3493,-0.035400,-0.012207,1.000122,0.122070,2.014160,5.554199
3503,-0.002686,-0.045898,1.007202,0.244141,1.770020,5.126953
3512,-0.002563,-0.041138,1.032104,-0.122070,1.708984,4.882812
3524,-0.028320,0.068237,0.949585,-2.502441,1.708984,4.394531
3533,-0.020630,0.089111,0.804199,-2.685547,1.953125,4.394531
3543,-0.001953,0.063477,0.857910,-1.770020,1.953125,4.333496
3552,0.025269,-0.048340,0.905029,-1.037598,1.770020,4.089355
3563,0.000000,-0.077515,0.917358,-1.403809,1.403809,3.845215
3572,0.036133,0.027344,0.985962,-2.441406,1.586914,3.845215
3585,0.041138,0.046021,0.897705,-3.906250,1.220703,3.601074
3594,0.020264,0.116943,0.974854,-4.333496,0.854492,3.479004
3604,0.029785,0.059570,0.989380,-4.150391,0.488281,2.807617
3613,0.026245,0.094482,1.011230,-3.662109,0.732422,2.624512
3623,0.011597,0.074951,1.035278,-3.540039,0.671387,2.441406
3632,0.021729,0.023437,1.012939,-2.929688,0.427246,2.258301
3643,0.012939,0.002930,1.031982,-2.441406,0.183105,2.197266
3652,0.056641,0.051514,1.113770,-2.380371,0.244141,2.258301
3664,0.037231,-0.001221,1.055542,-1.831055,-0.305176,2.136230
3673,0.024658,-0.005493,1.062866,-2.319336,-0.549316,2.136230
3683,0.010864,0.037964,1.058228,-2.746582,-0.488281,2.014160
3693,0.020752,0.055542,1.055542,-2.990723,-0.366211,2.075195
3702,0.007690,0.127930,1.042114,-2.807617,-0.366211,1.953125
3713,-0.009766,0.006348,1.001953,-2.014160,-0.671387,1.831055
3722,-0.024536,0.000610,1.019165,-1.220703,-0.671387,1.098633
3732,-0.042236,-0.004028,1.050293,-2.502441,-0.610352,0.854492
3743,-0.017456,0.001465,0.964355,-2.563477,-0.122070,0.549316
3752,0.025513,0.026245,0.985352,-2.136230,-0.427246,-0.061035
3763,-0.000732,0.015747,1.022095,-2.319336,-0.732422,-1.037598
3772,0.025269,-0.000610,1.026123,-2.685547,-1.098633,-1.464844
3782,0.030029,0.034302,1.046997,-3.173828,-1.037598,-1.953125
3794,0.057129,0.117920,1.030151,-2.929688,-1.037598,-2.380371
3803,0.056519,-0.014404,0.941772,-1.770020,-1.159668,-2.380371
3813,0.088989,-0.047119,1.003784,-0.854492,-1.403809,-2.380371
3823,0.079590,-0.038940,1.005737,-1.037598,-1.525879,-2.075195
3832,0.040649,-0.055176,0.982910,-1.342773,-1.708984,-1.953125
3843,0.018433,-0.006470,0.975952,-1.831055,-1.708984,-1.831055
3853,0.009155,0.037231,0.988525,-1.831055,-1.586914,-1.831055
3862,-0.007446,0.037476,0.978027,-1.892090,-1.403809,-2.197266
3874,-0.045654,0.042358,0.965454,-1.953125,-1.831055,-2.624512
3884,-0.011841,0.047363,0.937134,-2.197266,-1.770020,-2.807617
3893,-0.011353,0.028198,0.934082,-1.953125,-1.647949,-2.746582
3903,0.037231,-0.024048,0.949829,-1.586914,-1.770020,-3.112793
3913,0.015381,0.032471,1.040161,-1.953125,-1.647949,-3.356934
3922,0.052124,0.039551,1.065918,-2.441406,-1.892090,-3.662109
3935,0.056885,-0.018433,1.042725,-2.441406,-2.014160,-4.638672
3945,0.012329,0.000000,1.023682,-2.746582,-2.075195,-5.065918
3954,0.001099,-0.002319,1.008423,-3.051758,-1.892090,-5.249023
3964,0.012573,-0.012817,0.990112,-3.051758,-1.647949,-5.126953
3973,-0.010620,0.046265,0.975586,-3.356934,-1.831055,-5.004883
3983,0.015381,0.061646,1.000366,-3.479004,-1.770020,-5.126953
3993,-0.018555,0.062134,1.036255,-3.112793,-1.892090,-4.882812
4003,0.014648,0.036133,1.078247,-2.746582,-1.586914,-4.577637
4014,0.003052,0.012695,1.008179,-3.234863,-1.342773,-4.150391
4023,-0.030884,-0.024536,0.985718,-2.502441,-0.732422,-3.662109
4033,-0.010742,-0.021729,0.979980,-1.892090,-0.488281,-3.417969
4042,-0.031738,-0.062134,0.986206,-1.342773,-0.549316,-3.234863
4053,-0.008789,-0.007446,1.003784,-1.770020,-0.427246,-3.112793
4063,-0.010254,-0.031494,0.993286,-2.197266,-0.610352,-2.929688
4073,-0.009033,0.036499,0.956787,-2.380371,0.122070,-2.014160
4082,-0.017456,0.032959,0.915894,-1.342773,0.244141,-1.464844
4093,-0.002319,-0.115601,0.942993,-0.427246,0.122070,-1.098633
4103,-0.007813,-0.048340,0.998413,-0.122070,0.122070,-0.915527
4113,0.014526,-0.067505,1.028442,-0.427246,0.183105,-0.732422
4122,-0.006348,-0.023193,0.986938,-0.854492,0.549316,-0.488281
4133,-0.001099,0.012939,0.933105,-0.671387,0.549316,-0.427246
4143,0.024902,-0.047974,0.969849,0.244141,0.122070,-0.488281
4154,0.005249,-0.067993,1.019165,0.061035,0.122070,-0.732422
4163,-0.004883,-0.002808,1.020264,-0.793457,0.122070,-0.854492
4173,0.003662,0.066406,1.010498,-1.403809,0.305176,-0.671387
4182,0.016724,0.031738,0.990967,-1.098633,0.366211,-0.427246
4193,0.038208,0.069336,1.023560,-0.366211,0.061035,-0.427246
4203,0.054443,-0.049927,1.042603,0.183105,-0.305176,-0.488281
4213,0.027710,-0.037109,1.069824,-0.305176,-0.427246,-0.793457
4224,0.021240,0.035034,1.020020,-1.464844,-0.427246,-1.037598
4233,0.018433,0.053711,0.999634,-1.403809,-0.549316,-1.037598
4243,0.031372,-0.026978,1.029907,-0.976562,-0.671387,-1.342773
4252,0.004395,0.026489,1.054810,-0.854492,-0.915527,-1.953125
4262,-0.007080,-0.026123,1.055420,-1.281738,-1.037598,-2.685547
4272,-0.015747,0.023193,1.016357,-1.708984,-0.915527,-3.295898
4282,-0.005615,0.116943,1.020264,-2.319336,-1.037598,-3.906250
4294,0.017578,0.055054,0.945190,-1.953125,-1.159668,-4.943848
4303,0.037598,-0.005005,0.958130,-1.098633,-1.281738,-5.493164
4313,0.033325,-0.051514,0.981812,-1.098633,-1.464844,-6.103516
4322,0.045044,-0.033447,1.026245,-1.403809,-1.831055,-6.347656
4332,0.019165,0.028931,0.995605,-1.708984,-1.647949,-6.225586
4343,0.037231,0.013306,0.970947,-1.647949,-1.586914,-6.225586
4352,0.020996,-0.045166,0.927124,-0.671387,-1.831055,-6.408691
4362,0.024170,-0.037598,1.008545,-0.183105,-1.953125,-6.408691
4373,0.039429,0.003540,1.059448,-1.159668,-2.014160,-6.408691
4383,0.027100,0.006226,0.958984,-1.708984,-1.770020,-6.469727
4393,0.014771,0.042603,0.940552,-1.281738,-1.770020,-6.591797
4403,0.048950,0.060181,0.984985,-0.854492,-1.953125,-6.591797
4413,0.042969,-0.011475,0.995728,-0.122070,-2.136230,-6.530762
4425,0.015381,0.003784,1.026611,-0.244141,-2.563477,-6.408691
4435,0.041504,-0.007202,1.047852,-0.549316,-2.563477,-6.286621
4444,-0.009644,-0.021729,0.969727,-0.549316,-2.624512,-6.164551
4454,-0.017578,0.022217,0.968506,-0.061035,-2.197266,-6.164551
4463,-0.045654,-0.043213,0.999634,0.732422,-1.953125,-6.164551
4473,-0.029297,-0.031738,1.047241,0.793457,-1.770020,-6.103516
4483,-0.005981,-0.115967,1.038452,0.549316,-1.525879,-5.981445
4492,-0.006592,-0.062988,1.013916,-0.244141,-1.708984,-5.981445
4504,0.042969,0.067627,0.997559,-1.098633,-2.075195,-6.164551
4514,0.046753,0.014160,0.975342,-0.976562,-2.380371,-6.469727
4523,0.035645,0.039917,0.980591,-0.549316,-2.380371,-6.652832
4533,0.049927,0.050903,1.043335,-0.122070,-2.441406,-6.958008
4542,0.030273,-0.058472,1.027466,0.244141,-2.441406,-7.446289
4553,0.023193,0.003540,1.046021,-0.305176,-2.380371,-7.690430
4562,-0.004272,0.124878,1.210083,-0.305176,-2.624512,-8.300781
4574,-0.033081,-0.023560,0.937378,1.159668,-2.868652,-8.422852
4584,-0.024414,-0.086182,0.963745,1.464844,-2.502441,-8.422852
4593,0.001343,0.045898,0.991455,1.403809,-2.258301,-8.300781
4603,-0.004150,-0.083496,0.946533,1.403809,-2.258301,-7.873535
4613,-0.031128,-0.036743,1.005859,0.488281,-2.380371,-7.934570
4623,-0.007813,0.145386,1.086914,-0.976562,-2.075195,-7.934570
4633,0.005737,0.025513,0.953491,1.098633,-2.380371,-8.056641
4644,-0.029419,-0.077393,0.883789,0.488281,-1.770020,-7.629395
4654,0.011963,0.029175,1.009888,-0.610352,-1.525879,-7.080078
4663,-0.024536,0.054810,0.949829,-1.770020,-1.525879,-6.835937
4673,-0.073364,-0.005371,0.874268,-1.647949,-1.281738,-6.835937
4683,-0.106567,0.039551,0.928467,-1.647949,-1.037598,-6.835937
4692,-0.084473,0.065430,1.016724,-1.403809,-0.488281,-6.469727
4702,-0.078979,0.010742,1.031860,-0.976562,0.183105,-5.554199
4714,-0.111084,-0.023193,1.013794,-0.976562,0.610352,-5.126953
4724,-0.107544,0.008545,0.995483,-1.037598,0.915527,-4.211426
4733,-0.088501,-0.064941,0.971802,-0.671387,1.647949,-2.746582
4743,-0.084717,-0.056152,0.961792,-0.671387,2.197266,-1.525879
4753,-0.076904,0.009155,1.005005,-0.976562,2.868652,-0.122070
4762,-0.087524,0.002075,1.032715,-1.159668,2.868652,1.159668
4775,-0.133179,0.106934,0.962646,-1.708984,3.845215,3.479004
4785,-0.118530,0.048706,0.976074,-1.037598,4.699707,4.760742
4794,-0.125732,-0.018433,0.969482,-0.366211,5.249023,6.286621
4804,-0.111206,-0.006226,0.992187,-0.549316,5.798340,7.934570
4813,-0.091919,0.001099,1.023193,-0.610352,6.164551,9.094238
4823,-0.117310,-0.059082,1.003418,-0.976562,6.469727,10.192871
4832,-0.118408,0.045898,0.984985,-1.586914,6.774902,11.291504
4845,-0.087769,-0.068237,0.944458,-1.098633,8.056641,13.977051
4855,-0.072632,-0.044556,0.951294,-0.854492,8.300781,14.892578
4864,-0.069214,-0.000732,1.036865,-1.159668,8.544922,15.930176
4874,-0.075073,-0.053101,1.029175,-1.342773,8.666992,16.723633
4884,-0.109009,-0.037476,0.990356,-1.831055,8.789063,16.845703
4893,-0.081421,0.073853,0.990479,-2.441406,9.094238,17.028809
4903,-0.065552,0.030884,0.946899,-2.197266,9.399414,17.333984
4914,0.000610,0.072876,1.030273,-1.647949,9.216309,16.906738
4924,0.005371,0.004028,1.019409,-2.502441,9.277344,16.906738
4933,0.020508,-0.006958,1.048706,-2.563477,8.605957,16.479492
4943,0.032715,0.033813,0.975708,-2.685547,8.544922,15.991211
4953,0.107300,0.042603,1.021118,-2.441406,8.666992,15.686035
4962,0.127319,-0.068237,1.001343,-1.525879,7.873535,15.075684
4973,0.137573,-0.040527,1.055298,-1.647949,7.141113,14.038086
4985,0.141724,-0.044189,0.989746,-2.258301,5.432129,12.084961
4995,0.129028,-0.031738,0.989136,-2.258301,4.821777,10.986328
5004,0.105347,-0.020020,0.992310,-2.075195,4.333496,9.826660
5014,0.103027,-0.008057,1.064209,-1.953125,3.540039,8.178711
5023,0.036377,-0.101196,0.996826,-1.647949,2.929688,6.774902
5034,0.015869,0.000854,1.028931,-1.953125,2.563477,5.371094
5043,0.011108,0.004883,0.985596,-2.014160,2.197266,4.333496
5053,0.017578,0.011719,1.023193,-2.258301,1.770020,2.197266
5064,0.004395,0.029297,1.032959,-2.258301,1.708984,1.220703
5074,0.033936,-0.006714,1.018066,-2.441406,1.525879,0.549316
5083,0.042480,-0.021118,0.998413,-2.624512,1.342773,-0.061035
5093,0.031494,0.057495,0.969971,-2.624512,1.342773,-0.854492
5104,0.059326,0.067627,0.978882,-2.563477,1.220703,-1.464844
5113,0.068848,-0.073608,0.930908,-1.708984,0.549316,-2.136230
5125,-0.006470,0.042725,1.033569,-1.281738,0.610352,-2.929688
5134,0.127197,-0.047119,1.151733,-1.464844,0.793457,-3.479004
5144,-0.005615,-0.048462,1.051392,-1.892090,1.159668,-3.295898
5153,-0.051636,-0.024902,0.935669,-2.502441,0.854492,-3.601074
5163,-0.038208,-0.001221,0.910889,-2.136230,0.488281,-4.211426
5173,-0.044678,0.051636,0.933594,-1.281738,0.488281,-4.577637
5183,-0.018066,-0.066650,0.939941,-0.122070,0.732422,-4.760742
5193,-0.045410,-0.114746,1.029419,-0.610352,1.953125,-4.455566
5203,-0.044434,0.027832,1.022705,-1.098633,2.136230,-4.699707
5213,0.024414,0.028320,0.939453,-1.220703,2.136230,-4.882812
5223,0.034912,0.011719,0.948486,-1.159668,2.136230,-4.577637
5233,0.130371,-0.127808,0.918579,-0.976562,1.647949,-4.577637
5243,0.037109,0.077515,1.016479,-0.915527,1.403809,-4.577637
5253,0.149902,0.146606,1.056152,-1.037598,1.708984,-4.211426
5263,0.104614,0.058838,1.046753,-2.319336,1.770020,-3.784180
5274,0.035034,0.128418,1.030518,-2.441406,0.915527,-4.638672
5284,0.020996,0.232788,1.074829,-2.746582,0.488281,-5.126953
5293,0.026245,0.077271,0.978027,-2.197266,0.427246,-5.249023
5303,-0.010376,0.090210,1.074097,-1.892090,0.915527,-5.065918
5313,-0.007446,0.055054,1.060547,-2.136230,0.854492,-5.065918
5323,-0.008911,0.054077,1.017700,-2.136230,1.098633,-5.065918
5333,0.000610,0.078247,1.062500,-2.563477,1.281738,-5.737305
5344,0.013184,0.030640,1.029419,-2.807617,0.915527,-6.286621
5354,0.061157,0.066772,0.996948,-2.929688,0.244141,-6.958008
5363,0.057739,0.061646,0.964600,-2.563477,0.427246,-6.896973
5373,0.038208,0.059082,0.971680,-2.746582,0.671387,-6.835937
5383,0.066528,0.065918,0.975098,-2.380371,1.159668,-6.774902
5395,0.031982,0.045654,0.971558,-2.197266,0.854492,-5.737305
5404,0.076294,0.055786,0.976685,-1.892090,0.976562,-5.187988
5414,0.048828,0.056763,1.006836,-2.136230,0.732422,-4.272461
5423,0.070801,0.107300,0.984375,-2.075195,0.549316,-3.845215
5433,0.069458,0.074829,0.980103,-1.770020,1.037598,-2.746582
5443,0.022217,0.087891,0.993286,-1.464844,0.976562,-1.953125
5453,0.040161,0.082397,1.002808,-1.159668,0.793457,-1.831055
5464,0.014648,0.059692,1.016602,-1.403809,1.098633,-0.976562
5474,-0.016846,0.108521,0.961792,-1.525879,1.098633,-1.037598
5484,-0.044312,0.107422,0.963867,-1.159668,1.220703,-0.793457
5493,-0.060913,0.068848,0.996582,-0.854492,1.708984,-0.488281
5504,-0.055054,0.065430,1.021973,-0.854492,2.197266,-0.122070
5513,-0.028564,0.096069,0.996582,-1.220703,2.502441,0.610352
5523,-0.018799,0.112671,0.984131,-1.708984,3.234863,1.708984
5534,0.005493,0.122314,0.961670,-1.281738,3.112793,3.356934
5544,0.036011,0.053345,0.992920,-0.915527,3.051758,4.089355
5553,0.089722,0.061768,1.046021,-1.098633,2.746582,5.187988
5563,0.117676,0.029419,1.027344,-1.220703,3.051758,6.164551
5574,0.104248,0.055664,1.035889,-1.831055,2.685547,6.835937
5583,0.084106,0.092407,1.002563,-2.014160,2.258301,7.080078
5593,0.073853,0.104736,1.009155,-1.708984,2.197266,7.080078
5603,0.055664,0.016479,0.999512,-1.098633,2.014160,7.141113
5615,0.034546,0.022705,1.061157,-0.915527,2.136230,6.652832
5624,0.019165,0.029053,1.013428,-1.464844,2.136230,6.652832
5634,0.024902,0.048340,0.997437,-1.831055,1.892090,6.652832
5643,0.048828,0.052612,0.981934,-1.770020,1.770020,6.591797
5654,0.067871,0.059692,0.984985,-1.831055,1.770020,6.408691
5663,0.077271,0.077759,1.011353,-1.831055,1.831055,5.981445
5673,0.069580,0.030762,1.002319,-1.647949,1.770020,5.615234
5684,0.077637,0.059204,1.006714,-1.708984,1.159668,4.577637
5694,0.084229,0.033936,0.995728,-1.953125,0.732422,4.394531
5703,0.092896,0.022949,0.997437,-1.953125,0.671387,4.211426
5713,0.080322,0.053345,1.010010,-2.075195,0.427246,3.906250
5723,0.065918,0.059448,1.004761,-2.014160,0.305176,3.723145
5733,0.058472,0.030396,0.968872,-1.647949,0.183105,3.540039
5744,0.066284,0.036743,0.969849,-1.403809,-0.244141,3.356934
5754,0.033325,0.031128,1.008423,-1.403809,-0.488281,3.051758
5764,0.038208,0.034912,1.001831,-1.464844,-0.671387,2.685547
5773,0.038574,0.031250,0.999390,-1.464844,-0.488281,2.380371
5784,0.043335,0.034058,1.001099,-1.586914,-0.305176,2.075195
5793,0.040894,0.035278,1.001587,-1.464844,-0.427246,1.708984
5804,0.030884,0.012451,1.006714,-1.281738,-0.366211,1.586914
5813,0.029297,-0.001831,1.012207,-1.159668,-0.366211,1.220703
5825,0.041382,0.036011,1.014282,-1.159668,-0.793457,0.793457
5834,0.031372,0.048828,1.001953,-1.342773,-1.098633,0.976562
5843,0.025146,0.051636,0.984863,-1.220703,-0.854492,1.281738
5854,0.038940,0.047119,0.992065,-1.281738,-0.427246,1.708984
5863,0.052612,0.047241,1.007446,-1.220703,-0.183105,2.197266
5874,0.053345,0.048218,1.012451,-1.281738,-0.305176,2.319336
5883,0.051147,0.042358,1.004272,-1.464844,-0.854492,2.197266
5895,0.075195,0.041138,0.983643,-1.586914,-1.464844,2.136230
5904,0.063965,0.038940,0.983398,-1.647949,-1.708984,2.197266
5914,0.040161,0.033569,0.994141,-1.525879,-1.525879,2.624512
5923,0.018921,0.030396,1.003052,-1.403809,-1.159668,3.051758
5933,0.008301,0.026123,1.010132,-1.464844,-0.732422,3.234863
5943,0.008667,0.021729,1.015015,-1.342773,-0.549316,3.356934
5955,0.001709,0.015625,1.009277,-1.098633,-1.342773,2.319336
5964,-0.007202,0.012573,0.997681,-1.220703,-1.586914,1.708984
5974,0.005493,0.028198,0.992676,-1.464844,-1.464844,1.647949
5984,0.019897,0.043457,0.981079,-1.464844,-1.098633,1.586914
5993,0.032715,0.038574,0.989624,-1.403809,-0.732422,2.075195
6004,0.042969,0.009277,1.008667,-1.098633,-0.610352,2.258301
6014,0.057251,-0.035034,1.031494,-0.793457,-0.427246,2.380371
6026,0.063965,-0.072876,1.014160,-0.427246,-0.976562,2.197266
6035,0.062500,-0.081543,0.993042,-0.244141,-1.464844,2.014160
6045,0.062134,-0.064697,0.976807,-0.366211,-1.342773,2.319336
6055,0.056519,-0.062744,0.976685,-0.122070,-1.159668,2.868652
6064,0.052124,-0.066040,0.989380,-0.061035,-1.159668,3.173828
6074,0.039307,-0.056152,0.998779,-0.488281,-1.464844,3.356934
6083,0.027954,-0.064087,0.997437,-0.244141,-1.525879,3.540039
6096,0.018188,-0.063110,0.981323,-0.122070,-1.403809,3.967285
6105,0.017456,-0.061401,0.985352,-0.061035,-1.647949,3.906250
6115,0.026245,-0.067505,0.993042,-0.061035,-1.525879,3.906250
6125,0.039795,-0.078003,0.998779,-0.061035,-1.403809,4.028320
6134,0.047729,-0.070557,0.991211,0.183105,-1.220703,3.906250
6144,0.044067,-0.109619,1.009888,0.183105,-1.403809,3.662109
6154,0.050293,-0.038086,0.969604,-0.061035,-1.586914,3.601074
6164,0.062378,-0.082031,0.984009,-0.366211,-1.770020,3.417969
6175,0.045898,-0.131470,1.070435,-0.366211,-1.831055,3.295898
6185,0.046143,-0.134766,1.045654,0.000000,-1.892090,3.234863
6194,0.038330,-0.173706,1.009033,0.305176,-2.075195,3.051758
6204,0.022949,-0.143921,0.980713,-0.061035,-2.075195,2.868652
6214,0.004028,-0.070190,1.006836,-0.305176,-1.708984,2.929688
6224,-0.009155,-0.093140,0.988525,-0.366211,-1.892090,2.929688
6234,-0.021484,-0.158936,0.966553,-0.488281,-1.831055,2.929688
6243,-0.029297,-0.122681,0.982788,-1.159668,-1.708984,2.685547
6254,0.003662,-0.085327,1.019653,-0.976562,-1.708984,2.380371
6264,0.010254,-0.070190,1.030029,-0.976562,-1.647949,2.380371
6274,0.020264,-0.102051,1.008667,-0.976562,-1.647949,2.258301
6283,0.028320,-0.121338,1.006348,-0.854492,-1.342773,2.136230
6294,0.036987,-0.115845,0.999756,-0.793457,-1.647949,1.892090
6304,0.038818,-0.115723,0.984009,-0.976562,-1.770020,1.647949
6315,0.032593,-0.092407,0.979736,-0.915527,-1.892090,1.525879
6325,0.027466,-0.103516,0.983765,-0.915527,-2.014160,1.342773
6334,0.022949,-0.109863,0.984863,-1.037598,-1.892090,1.159668
6344,0.017456,-0.105835,0.984131,-1.098633,-1.831055,1.037598
6353,0.016846,-0.110352,0.976196,-1.037598,-1.953125,1.159668
6363,0.019653,-0.111328,0.968750,-1.159668,-2.136230,1.220703
6376,0.012329,-0.101196,0.974121,-1.464844,-1.831055,1.525879
6386,0.009644,-0.103271,0.983032,-1.708984,-1.770020,1.525879
6395,0.011719,-0.103638,0.987915,-1.770020,-1.770020,1.342773
6405,0.020142,-0.106323,0.989136,-1.647949,-1.647949,1.403809
6414,0.028931,-0.106812,0.989868,-1.708984,-1.831055,1.281738
6424,0.025391,-0.105469,0.988525,-1.831055,-1.770020,1.342773
6433,0.022827,-0.104980,0.988281,-2.136230,-2.075195,1.403809
6446,0.015015,-0.084839,1.004272,-1.892090,-2.014160,1.403809
6456,0.016846,-0.081909,1.004883,-1.953125,-1.953125,1.464844
6465,0.018433,-0.079956,1.000488,-2.014160,-1.953125,1.525879
6474,0.025513,-0.074463,0.999878,-2.014160,-2.136230,1.342773
6484,0.032715,-0.072144,1.000488,-1.892090,-2.075195,1.220703
6493,0.024536,-0.071289,1.000366,-1.953125,-2.136230,1.342773
6504,0.013794,-0.073608,0.996460,-1.831055,-2.075195,1.586914
6514,0.010986,-0.076050,0.994019,-1.892090,-1.953125,1.586914
6523,0.003418,-0.077759,0.993896,-1.953125,-1.953125,1.403809
6534,0.011841,-0.077393,1.000488,-1.892090,-2.075195,1.159668
6544,0.009644,-0.076050,0.996826,-1.647949,-2.136230,0.793457
6553,0.005493,-0.069214,0.989746,-1.586914,-2.319336,0.366211
6564,0.000488,-0.066040,0.992065,-1.586914,-1.892090,0.366211
6577,-0.006714,-0.071289,1.000244,-1.586914,-0.549316,0.671387
6587,-0.005981,-0.076294,1.001343,-1.586914,-1.281738,0.610352
6596,-0.006958,-0.077759,1.000610,-1.403809,-1.647949,0.610352
6606,-0.001953,-0.074341,0.999878,-1.220703,-1.831055,0.610352
6616,0.000732,-0.068970,0.994995,-1.281738,-1.831055,0.793457
6625,-0.000488,-0.065796,0.990234,-1.281738,-1.831055,1.220703
6635,-0.000366,-0.068237,0.992432,-1.403809,-1.647949,1.831055
6645,0.000000,-0.071655,0.999634,-1.342773,-1.403809,2.685547
6656,0.003540,-0.080933,1.006592,-1.220703,-1.464844,2.685547
6666,0.008301,-0.079346,1.006104,-1.159668,-1.647949,2.624512
6676,0.006470,-0.078369,1.000854,-1.098633,-1.464844,2.685547
6685,0.000122,-0.077393,0.994141,-1.098633,-1.525879,2.746582
6695,-0.003784,-0.078979,0.993164,-1.037598,-1.525879,2.990723
6704,-0.005005,-0.081909,0.998291,-1.037598,-1.220703,3.173828
6714,-0.001953,-0.083740,1.000732,-1.037598,-0.915527,3.417969
6723,0.002930,-0.087158,1.000977,-1.281738,-0.854492,3.417969
6735,0.016479,-0.092407,1.000122,-1.098633,-1.342773,3.479004
6744,0.029297,-0.091919,0.997559,-1.098633,-1.220703,3.173828
6754,0.028809,-0.089966,0.995728,-1.220703,-1.525879,2.990723
6763,0.034546,-0.092407,0.995239,-1.098633,-1.403809,2.929688
6774,0.035156,-0.089600,0.998169,-1.342773,-1.586914,2.929688
6784,0.031738,-0.094360,0.997070,-1.159668,-1.708984,2.746582
6796,0.021606,-0.098145,0.993164,-1.281738,-1.708984,2.075195
6806,0.014160,-0.099609,0.996094,-1.220703,-1.892090,1.708984
6815,0.008667,-0.097290,0.995117,-1.159668,-1.953125,1.342773
6824,0.016602,-0.093018,0.995850,-1.098633,-2.014160,0.915527
6834,0.026489,-0.088745,0.998901,-1.098633,-2.136230,0.671387
6843,0.035889,-0.089355,0.991699,-1.281738,-2.258301,0.488281
6854,0.042603,-0.085205,0.981201,-1.281738,-2.563477,0.183105
6863,0.050049,-0.061646,0.994995,-1.281738,-2.807617,-0.976562
6875,0.038208,-0.075562,1.000854,-1.464844,-3.173828,-1.525879
6884,0.022095,-0.090210,0.999146,-1.281738,-3.723145,-1.770020
6894,0.003662,-0.089355,1.000488,-1.098633,-3.479004,-1.770020
6903,-0.012695,-0.098511,0.999268,-1.098633,-3.356934,-1.342773
6914,-0.030151,-0.105469,1.000854,-1.037598,-2.990723,-0.976562
6924,-0.065796,-0.119873,0.974365,-1.159668,-2.624512,-0.366211
6933,-0.067871,-0.073730,0.990356,-1.037598,-2.258301,0.549316
6944,-0.039307,-0.160156,1.001953,0.610352,-2.014160,0.244141
6953,-0.014404,-0.251343,1.044189,0.061035,-2.197266,-0.122070
6964,0.010254,-0.145264,1.015869,-1.037598,-2.441406,-0.610352
6973,0.014160,-0.096558,0.949951,-1.220703,-2.441406,-1.098633
6983,0.015747,-0.114624,0.889038,-1.037598,-2.258301,-0.793457
6994,-0.017944,-0.123901,0.933472,-0.366211,-2.197266,-0.732422
7004,-0.031982,-0.208374,1.032837,-0.244141,-2.685547,-2.441406
7014,-0.023071,-0.168579,1.113159,-1.037598,-2.441406,-3.234863
7024,0.028687,-0.083130,1.005737,-0.732422,-2.746582,-4.516602
7034,0.017944,-0.143188,0.917114,-0.305176,-3.051758,-5.432129
7044,0.000122,-0.167847,0.909912,-0.244141,-3.662109,-5.920410
7054,0.019043,-0.148071,0.972534,-0.732422,-3.662109,-6.164551
7064,0.040894,-0.112915,1.053833,-0.976562,-3.540039,-6.225586
7074,0.009766,-0.097290,1.063965,-0.915527,-3.112793,-6.713867
7083,0.025635,-0.165161,1.018799,-0.976562,-2.990723,-7.873535
7094,-0.020996,-0.201782,0.958862,-0.915527,-3.906250,-8.911133
7104,-0.056152,-0.166626,1.010376,-0.915527,-4.455566,-11.108398
7114,-0.003662,-0.189209,1.066528,-0.854492,-5.126953,-12.695313
7124,0.074219,-0.204712,1.083984,-0.610352,-5.065918,-13.549805
7133,0.109741,-0.226074,1.038940,-0.610352,-5.920410,-15.197754
7146,0.064575,-0.191284,1.044312,-0.549316,-7.568359,-18.554687
7156,0.091675,-0.123291,1.158447,-0.305176,-7.873535,-20.996094
7165,0.132324,-0.080933,1.288452,0.305176,-8.239746,-23.376465
7175,0.126343,-0.133545,1.295776,1.586914,-9.216309,-25.817871
7184,0.111084,-0.228760,1.234741,3.295898,-10.375977,-28.320312
7194,0.036011,-0.356689,1.116943,4.943848,-10.986328,-30.334473
7203,0.015503,-0.455811,0.988281,5.371094,-11.535645,-32.226562
7216,0.050903,-0.370239,0.904907,4.577637,-12.268066,-36.132812
7225,-0.006958,-0.336182,0.904053,4.272461,-13.183594,-38.452148
7235,-0.058716,-0.361450,0.897827,4.211426,-13.977051,-41.137695
7244,-0.052002,-0.348267,0.948853,3.845215,-14.160156,-44.372559
7254,-0.044189,-0.339233,0.961304,3.601074,-14.526367,-47.668457
7263,-0.003052,-0.325928,0.935791,3.234863,-14.770508,-50.048828
7274,-0.021484,-0.313843,0.885864,2.990723,-14.831543,-52.368164
7284,-0.046753,-0.310425,0.834839,2.685547,-15.319824,-58.044434
7293,-0.054199,-0.260010,0.856445,2.685547,-15.258789,-60.180664
7304,-0.009644,-0.323120,0.904419,2.685547,-15.197754,-61.523437
7314,-0.046021,-0.329468,0.856812,2.441406,-15.258789,-62.744141
7323,-0.089722,-0.263184,0.845337,1.647949,-15.014648,-62.744141
7334,-0.081909,-0.178101,0.896851,1.281738,-14.160156,-62.622070
7344,-0.117065,-0.163940,0.926025,1.281738,-13.488770,-62.011719
7356,-0.197632,-0.192871,0.891846,1.342773,-12.573242,-59.814453
7366,-0.168335,-0.128540,0.954590,0.793457,-11.840820,-58.776855
7375,-0.169312,-0.132446,0.986816,0.732422,-10.498047,-56.396484
7385,-0.246460,-0.157837,0.927734,0.732422,-9.643555,-53.161621
7395,-0.252808,-0.116089,0.940186,0.488281,-8.422852,-49.865723
7404,-0.231934,-0.115112,0.943481,0.488281,-6.408691,-45.715332
7414,-0.239868,-0.182617,0.896851,0.671387,-4.943848,-40.771484
7423,-0.281128,-0.146606,0.928467,0.671387,-1.708984,-30.944824
7433,-0.268921,-0.119263,1.003418,0.854492,-0.183105,-25.634766
7444,-0.335083,-0.219360,0.961548,1.220703,1.159668,-21.423340
7454,-0.351563,-0.184326,0.999634,0.976562,2.136230,-17.517090
7464,-0.349243,-0.230713,0.935425,1.281738,3.356934,-13.366699
7474,-0.353760,-0.275391,0.908691,1.464844,5.065918,-9.277344
7483,-0.317383,-0.221680,0.990479,1.464844,6.347656,-5.981445
7496,-0.264893,-0.278931,0.947144,2.075195,8.850098,2.563477
7505,-0.246216,-0.247314,0.999146,2.075195,10.192871,7.202148
7515,-0.237915,-0.278076,0.948608,2.319336,11.169434,11.962891
7524,-0.239136,-0.267212,0.953491,2.258301,12.145996,16.418457
7534,-0.195801,-0.250488,0.992187,1.892090,13.732910,21.240234
7543,-0.222290,-0.273804,0.919067,1.953125,14.831543,25.817871
7554,-0.201050,-0.196777,0.960449,1.464844,15.930176,30.151367
7563,-0.210693,-0.237793,0.967773,1.586914,17.395020,37.231445
7575,-0.196899,-0.257813,0.997070,1.342773,18.493652,40.405273
7585,-0.177979,-0.208740,0.973267,1.159668,18.798828,42.663574
7594,-0.127319,-0.160034,1.003662,1.037598,19.165039,43.701172
7603,-0.115356,-0.295044,0.934082,1.342773,19.226074,44.982910
7614,-0.109497,-0.267578,0.960693,1.037598,19.042969,45.898437
7623,-0.096313,-0.235718,0.958984,0.244141,18.920898,46.691895
7636,-0.105591,-0.282104,0.938110,-0.122070,17.639160,47.058105
7646,-0.098022,-0.291382,0.946655,0.061035,17.578125,46.875000
7655,-0.069214,-0.268433,1.018066,-0.427246,18.066406,46.936035
7665,-0.026245,-0.268555,1.002075,-0.488281,17.761230,46.142578
7674,-0.012939,-0.318115,1.040771,-0.183105,17.211914,44.616699
7684,0.003784,-0.357666,0.975708,-0.183105,15.563965,42.358398
7694,0.053711,-0.369751,0.964233,-0.549316,14.465332,40.100098
7706,0.087402,-0.350098,0.954468,-1.220703,12.817383,36.499023
7716,0.074219,-0.291870,0.974121,-1.403809,11.779785,34.851074
7725,0.073486,-0.310303,1.016968,-1.159668,11.413574,33.264160
7734,0.100830,-0.339233,1.064575,-0.732422,10.986328,31.250000
7744,0.094360,-0.404053,1.012329,-0.610352,10.253906,28.503418
7753,0.095947,-0.361328,1.013062,-0.793457,8.666992,25.207520
7764,0.067627,-0.403809,0.940430,-0.549316,7.019043,21.484375
7773,0.096680,-0.361206,0.956421,-0.793457,5.676270,14.831543
7785,0.081299,-0.373657,0.947144,-0.915527,3.906250,11.474609
7795,0.051392,-0.328125,0.997192,-1.159668,3.356934,7.995605
7804,0.068604,-0.326416,0.999634,-0.793457,3.051758,4.577637
7813,0.050415,-0.343262,1.016357,-1.098633,2.075195,0.671387
7824,0.083374,-0.311035,1.013672,-1.281738,1.098633,-3.051758
7834,0.085083,-0.280640,0.994995,-1.403809,0.244141,-6.225586
7846,0.101440,-0.272949,0.998047,-1.098633,-1.892090,-11.596680
7856,0.082031,-0.211914,0.999634,-1.281738,-2.685547,-13.793945
7865,0.096680,-0.231812,1.004028,-1.159668,-2.563477,-15.625000
7875,0.110840,-0.226196,0.973389,-1.220703,-2.746582,-17.028809
7884,0.110352,-0.132935,0.970703,-1.647949,-2.746582,-18.249512
7894,0.062866,-0.111328,0.917603,-1.525879,-2.868652,-19.592285
7904,0.087036,-0.147949,0.969238,-1.464844,-3.234863,-20.812988
7916,0.087158,-0.141113,1.074219,-1.647949,-3.662109,-21.972656
7926,0.091309,-0.090576,1.087036,-2.075195,-3.479004,-21.484375
7936,0.039795,-0.059204,1.013794,-2.197266,-3.723145,-20.446777
7945,0.003418,-0.133667,0.908569,-1.953125,-3.540039,-18.920898
7955,-0.032837,-0.125244,0.933716,-2.075195,-2.868652,-17.028809
7964,-0.032715,-0.107300,0.993530,-2.075195,-1.708984,-14.648438
7974,-0.024902,-0.212280,0.965454,-1.892090,-1.159668,-12.451172
7984,-0.067383,-0.207275,1.027100,-2.014160,-0.610352,-9.033203
7993,-0.076782,-0.196045,1.008301,-1.953125,-0.122070,-7.446289
8004,-0.039429,-0.227417,0.988281,-2.014160,0.793457,-5.920410
8014,-0.059814,-0.253296,1.008179,-1.831055,1.098633,-4.150391
8023,-0.073853,-0.269653,0.995239,-1.647949,1.281738,-2.441406
8034,-0.096069,-0.271484,1.009521,-1.831055,1.892090,-0.366211
8044,-0.100464,-0.271118,1.049927,-1.708984,2.624512,1.892090
8056,-0.224365,-0.202026,0.886597,-1.403809,3.662109,5.554199
8066,-0.257446,-0.176392,0.901123,-1.098633,4.333496,6.774902
8075,-0.221436,-0.148926,0.916260,-0.793457,5.676270,8.361816
8085,-0.183228,-0.155640,0.975342,-0.793457,7.080078,9.704590
8095,-0.099487,-0.167358,0.985840,-1.159668,7.629395,10.559082
8104,-0.074219,-0.076904,1.016235,-1.403809,7.812500,11.108398
8114,-0.113647,0.162842,0.713623,-1.342773,7.385254,11.718750
8126,0.209229,-0.131714,1.121826,-1.342773,8.666992,13.366699
8136,0.206299,-0.055908,1.168335,-2.014160,8.056641,15.258789
8145,0.139526,0.062866,1.096436,-2.441406,6.286621,15.991211
8154,0.067017,0.039917,0.943726,-2.136230,5.187988,16.418457
8164,0.012939,-0.000732,0.848755,-1.586914,5.065918,16.662598
8173,0.009033,-0.019165,0.917114,-1.464844,5.859375,17.517090
8184,0.075928,-0.078735,1.079102,-1.892090,6.408691,17.822266
8194,0.056396,-0.044067,1.151855,-2.563477,2.990723,16.418457
8205,-0.036743,-0.095947,1.042358,-2.075195,2.502441,16.662598
8215,0.008423,-0.160034,1.023682,-1.586914,3.051758,17.578125
8224,0.009644,-0.154541,1.013062,-1.586914,3.601074,18.676758
8233,-0.034790,-0.149414,0.990845,-1.342773,3.540039,19.775391
8244,-0.081665,-0.186523,0.917847,-0.976562,3.723145,20.874023
8254,-0.096069,-0.235962,0.873291,-0.427246,4.150391,21.850586
8266,-0.090454,-0.262207,0.943604,0.183105,5.371094,21.850586
8276,-0.023682,-0.216675,1.128174,0.305176,4.760742,20.385742
8285,0.116577,-0.167603,1.207520,-0.305176,3.784180,18.981934
8295,0.042114,-0.167603,1.177002,-0.671387,2.990723,17.333984
8304,-0.015869,-0.111328,1.061279,-0.793457,1.892090,15.136719
8314,-0.060425,-0.084961,0.961182,-0.854492,1.586914,12.939453
8323,-0.014526,-0.051880,0.944092,-0.976562,1.708984,11.230469
8336,0.076904,-0.014404,1.032349,-0.244141,1.281738,10.253906
8345,0.227905,-0.453613,1.051514,-0.183105,0.671387,10.559082
8355,0.053101,-0.144653,0.904053,-0.915527,0.976562,11.718750
8364,0.142700,-0.228394,1.102783,-0.854492,1.892090,13.610840
8374,0.123535,-0.162598,1.172607,-0.183105,2.990723,14.404297
8383,0.119019,-0.155029,1.183838,0.732422,1.220703,13.793945
8394,-0.043945,-0.269165,0.950195,1.281738,-1.098633,11.779785
8406,-0.137207,-0.056641,0.899292,-1.342773,-1.831055,9.216309
8416,-0.017578,0.129883,0.968750,-2.075195,-0.915527,8.789063
8425,0.103760,0.122681,0.981079,-0.976562,0.305176,10.314941
8434,0.158447,-0.109863,0.998413,0.427246,0.549316,11.962891
8443,0.170288,-0.192017,1.090576,0.244141,0.122070,12.695313
8454,0.137573,-0.145874,1.099365,-0.976562,-0.976562,12.329102
8464,0.100342,-0.090820,1.069824,-1.953125,-2.502441,10.925293
8476,0.110718,-0.124878,0.914307,-0.549316,-3.723145,7.568359
8485,0.093506,-0.246704,0.903320,0.244141,-3.967285,6.164551
8495,0.081909,-0.223877,1.001099,0.122070,-4.577637,4.760742
8504,0.074951,-0.199707,1.054688,-0.854492,-5.615234,3.662109
8514,-0.007080,-0.069824,1.028076,-1.586914,-5.615234,3.601074
8523,-0.038574,-0.103027,0.977539,-0.793457,-5.310059,4.211426
8534,-0.090210,-0.191772,0.921265,0.305176,-4.333496,4.821777
8544,-0.091675,-0.194946,0.994019,0.427246,-3.356934,5.310059
8555,-0.129272,-0.188110,1.013062,-0.183105,-3.723145,5.493164
8564,-0.127930,-0.090210,1.034302,-0.732422,-3.662109,5.798340
8574,-0.094482,-0.173828,1.005981,-0.244141,-2.990723,6.286621
8584,-0.028687,-0.194092,0.940308,0.122070,-2.563477,6.469727
8594,0.006592,-0.272461,0.903076,0.305176,-2.380371,6.469727
8604,-0.009155,-0.260986,0.915527,-0.244141,-2.258301,6.469727
8614,-0.015137,-0.124146,1.029785,-1.220703,-2.075195,5.798340
8623,0.002686,-0.137939,0.963623,-0.610352,-2.197266,5.432129
8634,-0.012695,-0.228271,0.954834,0.000000,-2.258301,5.126953
8644,0.004028,-0.208740,0.984619,-0.183105,-1.708984,5.371094
8654,-0.001953,-0.181641,0.994263,-0.671387,-1.586914,5.615234
8664,0.006714,-0.201050,0.969360,-0.793457,-1.708984,6.286621
8674,-0.003784,-0.200317,0.963135,-0.671387,-2.014160,6.835937
8685,0.015625,-0.298950,0.927124,-0.549316,-2.014160,6.774902
8695,0.036621,-0.308594,0.922241,-1.403809,-2.258301,6.225586
8705,0.053223,-0.213623,0.994629,-1.708984,-2.624512,4.760742
8714,0.046875,-0.207031,1.028931,-1.708984,-3.051758,3.295898
8723,0.066895,-0.251587,0.990723,-1.708984,-3.662109,1.464844
8734,0.082397,-0.191528,1.008179,-1.953125,-4.394531,-0.183105
8744,0.095947,-0.265991,0.984375,-1.770020,-4.882812,-1.586914
8755,0.107788,-0.275269,0.961182,-1.770020,-5.432129,-3.112793
8765,0.068726,-0.302002,0.943359,-1.770020,-5.737305,-3.417969
8775,0.063843,-0.232666,0.970581,-1.770020,-5.798340,-3.356934
8784,0.050659,-0.274170,0.983643,-2.014160,-5.859375,-3.295898
8794,0.007690,-0.290405,0.942749,-1.953125,-6.164551,-3.234863
8804,-0.021606,-0.284912,0.975098,-1.892090,-5.859375,-3.234863
8815,-0.034790,-0.253418,0.984619,-1.464844,-5.493164,-3.051758
8825,-0.042969,-0.278687,0.982178,-1.342773,-5.126953,-2.319336
8834,-0.066162,-0.271606,0.978638,-1.708984,-4.699707,-1.464844
8844,-0.066162,-0.222168,1.002930,-2.014160,-4.394531,-0.976562
8854,-0.060303,-0.218140,0.988403,-1.953125,-4.272461,-0.671387
8864,-0.033325,-0.237549,0.981934,-2.014160,-4.333496,-0.732422
8874,-0.048706,-0.273682,0.955811,-2.014160,-3.662109,-0.732422
8884,-0.043335,-0.273193,0.956299,-2.319336,-3.417969,-0.610352
8894,-0.050415,-0.273926,0.954590,-2.624512,-2.685547,-0.732422
8904,-0.051514,-0.203613,1.044312,-2.868652,-3.051758,-0.915527
8914,-0.054321,-0.252808,0.982666,-2.563477,-2.685547,-1.037598
8924,-0.025269,-0.284302,0.955566,-2.319336,-2.380371,-0.854492
8934,-0.014160,-0.290039,0.955200,-2.624512,-2.258301,-0.610352
8944,-0.004150,-0.232910,0.955811,-2.807617,-2.136230,-0.183105
8953,-0.009888,-0.242065,0.937622,-3.051758,-2.136230,0.610352
8965,-0.043457,-0.231079,0.947998,-3.356934,-2.319336,1.159668
8975,-0.058838,-0.212524,0.968750,-3.845215,-2.319336,1.586914
8985,-0.012817,-0.176514,0.989380,-3.906250,-1.586914,1.525879
8995,-0.003662,-0.228027,0.977051,-3.540039,-1.342773,1.708984
9004,0.005371,-0.184692,0.959229,-3.845215,-1.464844,1.464844
9014,0.026123,-0.176392,0.990723,-3.723145,-1.525879,1.037598
9025,0.025757,-0.163818,0.996948,-3.540039,-1.953125,0.671387
9035,-0.006958,-0.217896,0.914551,-3.845215,-2.014160,0.488281
9045,-0.004883,-0.218384,0.958740,-3.967285,-2.014160,0.122070
9055,-0.028320,-0.229370,0.965332,-4.455566,-2.014160,0.061035
9064,-0.036621,-0.162354,1.000610,-4.333496,-2.258301,-0.061035
9074,-0.025757,-0.165039,1.009766,-4.394531,-2.197266,-0.549316
9084,0.007080,-0.149170,1.029419,-3.845215,-2.136230,-0.427246
9094,0.028687,-0.145020,1.048828,-3.845215,-2.319336,-0.244141
9106,0.005981,-0.129761,1.013550,-3.295898,-2.685547,-0.366211
9116,0.015991,-0.142700,1.047119,-3.356934,-2.563477,-0.915527
9125,-0.002441,-0.157715,1.039917,-2.807617,-2.319336,-1.586914
9135,-0.010010,-0.172119,1.003418,-2.441406,-2.624512,-2.563477
9144,-0.059204,-0.259521,0.889282,-2.502441,-2.807617,-3.601074
9154,-0.069092,-0.111206,0.995728,-2.990723,-2.868652,-4.699707
9165,-0.031250,-0.098633,1.072998,-2.990723,-2.807617,-6.408691
9175,0.025146,-0.166870,0.982544,-2.563477,-2.990723,-7.141113
9185,0.002563,-0.107666,0.973145,-2.868652,-3.051758,-7.263184
9194,0.015015,-0.045898,1.000488,-2.746582,-2.746582,-7.263184
9204,0.018311,-0.063843,1.013916,-2.197266,-2.319336,-7.141113
9215,0.022583,-0.112549,1.021729,-1.647949,-2.319336,-7.324219
9224,0.034302,-0.152954,1.031860,-1.403809,-2.441406,-7.690430
9233,0.038696,-0.179687,0.991943,-0.854492,-2.807617,-8.544922
9246,0.025757,-0.179321,0.942749,-0.488281,-3.234863,-11.291504
9256,0.033569,-0.169800,0.960937,-0.183105,-3.356934,-12.817383
9265,0.020752,-0.171021,0.986450,0.061035,-3.845215,-14.404297
9275,-0.001831,-0.168213,1.010986,0.000000,-4.211426,-16.052246
9284,0.010254,-0.066284,1.042603,-0.305176,-4.333496,-17.150879
9295,-0.006226,-0.125000,1.021484,0.061035,-4.089355,-17.761230
9304,0.026978,-0.065063,1.012939,0.183105,-3.967285,-18.676758
9314,0.029541,-0.135742,1.025146,0.183105,-3.479004,-18.615723
9325,-0.027344,-0.071899,1.053711,0.488281,-3.479004,-18.554687
9335,-0.025635,-0.111816,1.042114,0.610352,-3.051758,-18.188477
9345,-0.062012,-0.155518,0.971924,1.159668,-2.380371,-17.761230
9355,-0.067017,-0.185425,0.949951,1.342773,-1.647949,-16.967773
9364,-0.064087,-0.153320,0.974365,1.098633,-0.793457,-15.808105
9374,-0.083252,-0.154053,0.997559,0.732422,-0.183105,-15.197754
9385,-0.131226,-0.142822,0.961792,0.793457,0.915527,-14.465332
9395,-0.109253,-0.103638,0.944702,1.098633,1.647949,-14.160156
9405,-0.107666,-0.115723,0.947021,1.220703,1.770020,-13.793945
9415,-0.100830,-0.164917,0.970459,1.037598,2.014160,-13.549805
9424,-0.094971,-0.123413,0.998169,0.915527,2.441406,-13.183594
9434,-0.074707,-0.155029,1.001953,0.854492,3.051758,-12.329102
9444,-0.055298,-0.150879,0.977905,0.915527,3.295898,-11.169434
9454,-0.157593,-0.115845,0.992187,1.586914,5.310059,-8.117676
9464,-0.075684,-0.170654,0.950562,1.953125,6.286621,-7.019043
9474,-0.034058,-0.145996,0.951294,2.136230,6.286621,-5.981445
9484,-0.065918,-0.128174,0.956299,2.319336,6.225586,-5.004883
9495,-0.103516,-0.153320,0.948608,1.953125,6.774902,-3.417969
9504,-0.069946,-0.100098,0.969482,2.197266,7.446289,-1.342773
9514,-0.063232,-0.089111,0.998413,2.197266,8.422852,0.732422
9526,-0.129272,-0.130371,0.995605,2.319336,9.826660,5.187988
9535,-0.109863,-0.097168,1.017578,2.075195,10.070801,6.713867
9544,-0.106201,-0.155518,0.992798,1.647949,10.192871,7.507324
9554,-0.029785,-0.142944,0.972656,1.525879,10.375977,8.422852
9564,0.009033,-0.150757,0.940063,1.281738,10.314941,9.521484
9574,0.066528,-0.218872,0.930786,0.610352,10.314941,10.375977
9584,0.041992,-0.277344,0.915527,0.000000,9.826660,11.108398
9596,0.053589,-0.111694,0.993896,-0.793457,8.850098,12.573242
9605,0.083618,-0.148315,1.022827,-0.976562,8.666992,13.122559
9614,0.074097,-0.235962,1.011108,-0.549316,8.605957,14.038086
9624,0.101074,-0.224854,1.000000,-0.488281,8.239746,14.587402
9634,0.059326,-0.154663,1.016968,-0.671387,7.629395,14.587402
9644,0.056274,-0.185669,1.003174,-0.671387,6.591797,14.526367
9654,0.059326,-0.301392,0.955688,-0.732422,6.225586,14.404297
9666,0.050049,-0.252197,0.949707,-0.732422,4.882812,13.977051
9675,0.015381,-0.277832,1.020630,-1.037598,4.455566,13.488770
9684,-0.011108,-0.285522,0.984497,-1.159668,4.211426,12.939453
9694,-0.022339,-0.293335,0.926880,-1.342773,4.028320,12.573242
9704,-0.024170,-0.298218,0.925903,-1.708984,3.784180,12.207031
9714,-0.003052,-0.279541,0.971680,-2.136230,3.540039,11.657715
9725,0.009521,-0.249146,0.988037,-2.807617,2.624512,9.521484
9735,-0.038208,-0.190430,1.069946,-3.051758,2.014160,7.812500
9744,-0.047852,-0.245972,0.988037,-3.234863,1.708984,5.798340
9754,-0.011719,-0.221802,1.007568,-3.173828,1.892090,3.662109
9764,0.028931,-0.216431,1.002930,-2.990723,1.525879,1.708984
9774,0.025146,-0.255249,1.059692,-2.929688,0.976562,-0.366211
9785,0.020386,-0.213623,0.993530,-2.868652,0.244141,-2.563477
9794,0.094727,-0.191406,0.958740,-2.624512,0.244141,-4.943848
9806,0.165039,-0.106567,0.989014,-2.929688,-0.549316,-5.859375
9816,0.175171,-0.128052,1.039551,-2.929688,-1.098633,-6.530762
9825,0.149536,-0.161987,0.972900,-2.624512,-1.403809,-7.019043
9835,0.174194,-0.217285,0.989990,-2.563477,-1.892090,-7.873535
9844,0.176270,-0.291138,0.931885,-2.685547,-2.929688,-8.605957
9854,0.193481,-0.238281,1.006226,-2.563477,-3.417969,-9.399414
9864,0.205444,-0.210815,1.010742,-2.624512,-4.455566,-10.559082
9876,0.075562,-0.193237,0.986572,-2.807617,-5.187988,-12.145996
9886,0.030029,-0.167358,1.023926,-2.685547,-4.882812,-12.939453
9896,0.034668,-0.104004,1.022461,-2.380371,-4.028320,-13.671875
9905,0.042725,-0.129883,0.970215,-2.258301,-3.234863,-14.099121
9915,0.045288,-0.225586,0.897827,-2.258301,-3.540039,-14.404297
9925,0.046387,-0.117065,0.941650,-2.563477,-3.723145,-14.831543
9934,0.051880,-0.061157,1.028442,-2.563477,-4.089355,-14.831543
9946,0.046631,-0.066284,1.018311,-2.441406,-3.784180,-13.427734
9955,0.012695,-0.091064,1.016846,-2.380371,-3.417969,-11.962891
9965,-0.041382,-0.093994,1.002197,-2.197266,-2.685547,-10.803223
9974,-0.065552,-0.078003,0.903076,-2.197266,-1.525879,-9.765625
9985,-0.030518,-0.127808,0.883423,-2.075195,-0.244141,-8.483887
9995,0.007446,-0.134155,0.929199,-2.441406,0.000000,-7.568359
10004,-0.008911,-0.068115,1.027344,-2.502441,-0.488281,-6.774902
10014,-0.075073,-0.032349,1.007690,-1.770020,-0.061035,-4.211426
10025,-0.078979,-0.082520,0.963135,-1.342773,0.610352,-1.953125
10034,-0.098267,-0.106445,1.036743,-1.037598,1.831055,0.305176
10044,-0.083984,-0.090088,1.009766,-0.793457,2.990723,2.746582
10054,-0.034912,-0.143799,1.028931,-0.854492,4.028320,5.187988
10064,-0.039795,-0.178589,0.989502,-1.342773,4.760742,7.751465
10074,-0.025269,-0.061523,1.023560,-1.586914,4.638672,9.765625
10084,-0.088257,-0.144165,0.921265,-1.342773,4.455566,12.084961
10094,-0.119141,-0.129761,0.942627,-0.854492,4.516602,13.488770
10104,-0.086914,-0.164062,0.977295,-0.305176,4.699707,14.831543
10114,-0.095215,-0.181152,0.975342,-0.244141,5.187988,15.930176
10124,0.025635,-0.047852,1.061890,-0.671387,5.249023,16.357422
10134,0.035156,-0.195801,1.058350,-0.305176,4.638672,16.662598
10145,0.074219,-0.166382,0.983398,-0.549316,3.601074,16.357422
10155,0.057495,-0.192139,0.883667,-1.159668,2.929688,15.686035
10165,0.033081,-0.131348,0.961426,-1.586914,1.953125,13.854980
10175,0.005371,-0.125000,0.952759,-1.281738,1.403809,12.695313
10184,0.109497,-0.175781,1.018677,-1.098633,1.220703,11.901855
10194,0.132568,-0.227295,0.984375,-1.098633,0.915527,11.291504
10204,0.166382,-0.181274,0.986694,-1.770020,-0.122070,10.314941
10214,0.078247,-0.055908,0.970581,-2.136230,-1.037598,9.887695
10226,0.080200,-0.041382,0.985596,-1.892090,-1.281738,11.840820
10236,0.088379,-0.136108,1.031860,-1.892090,-1.770020,11.840820
10246,0.036987,-0.083496,0.996582,-2.014160,-2.380371,11.352539
10255,0.051514,-0.080078,0.986938,-2.136230,-3.234863,9.582520
10265,0.066650,-0.101074,0.965454,-2.258301,-4.272461,8.178711
10275,0.105591,-0.058594,0.972412,-2.380371,-5.310059,6.713867
10284,0.097046,-0.078003,1.002441,-2.136230,-5.920410,5.676270
10296,0.039551,-0.179810,1.009766,-1.892090,-6.774902,3.601074
10305,0.047729,-0.208984,1.035034,-2.136230,-6.713867,2.685547
10314,0.057739,-0.126221,1.138672,-2.258301,-6.835937,1.708984
10324,0.021606,-0.142944,1.054565,-2.197266,-7.202148,1.159668
10335,-0.017700,-0.213989,1.015137,-1.586914,-7.385254,0.610352
10344,-0.024414,-0.216064,0.996338,-1.037598,-7.324219,0.305176
10356,-0.006348,-0.281616,0.976196,-1.708984,-7.385254,-0.305176
10365,0.024414,-0.194458,0.984009,-1.953125,-7.751465,-0.915527
10375,0.030396,-0.169556,0.977173,-1.770020,-7.995605,-1.770020
10385,-0.010498,-0.254028,0.911133,-1.403809,-7.873535,-2.807617
10394,-0.004761,-0.247559,0.989746,-1.403809,-7.995605,-3.906250
10404,0.036621,-0.173096,0.989868,-1.220703,-7.995605,-5.249023
10414,0.037109,-0.222290,0.965698,-1.281738,-8.483887,-6.408691
10424,0.029785,-0.224854,0.889648,-1.342773,-8.972168,-7.507324
10434,0.017212,-0.233276,0.851685,-1.708984,-8.666992,-9.155273
10444,0.058105,-0.213013,0.913818,-2.197266,-8.728027,-10.314941
10454,0.050903,-0.154785,0.997925,-2.685547,-8.789063,-11.047363
10464,0.033691,-0.094971,1.040405,-2.563477,-8.666992,-11.596680
10474,-0.006836,-0.197876,1.001221,-2.380371,-8.605957,-11.657715
10484,0.004517,-0.165039,1.077881,-2.380371,-8.300781,-11.779785
10494,0.021484,-0.070312,1.078735,-2.319336,-8.361816,-12.207031
10505,0.048950,-0.127563,1.040283,-1.953125,-8.605957,-12.329102
10515,0.013550,-0.190063,1.054565,-1.281738,-8.361816,-11.718750
10525,-0.027954,-0.222412,0.923706,-1.098633,-8.056641,-11.352539
10535,-0.057007,-0.218018,0.930786,-1.220703,-7.385254,-10.681152
10544,-0.052612,-0.143311,0.950317,-1.342773,-6.835937,-10.314941
10554,-0.127563,-0.227051,0.860229,-1.525879,-6.164551,-10.131836
10566,-0.160889,-0.180176,0.980103,-2.136230,-4.638672,-10.803223
10575,-0.098267,-0.102295,0.964722,-2.075195,-4.211426,-10.925293
10585,-0.070679,-0.037842,1.074585,-1.831055,-4.089355,-10.986328
10595,-0.080688,-0.097046,1.004028,-1.281738,-3.906250,-10.742188
10605,-0.060303,-0.172974,0.953369,-0.976562,-3.601074,-10.681152
10614,-0.076172,-0.093262,0.973267,-1.037598,-3.173828,-10.253906
10624,-0.074341,-0.110596,0.921997,-1.220703,-2.502441,-9.704590
10634,-0.100342,-0.177490,0.832886,-1.586914,-1.770020,-8.789063
10646,-0.128540,-0.043091,0.993652,-2.075195,-1.098633,-8.850098
10656,-0.070435,-0.129028,0.983398,-1.831055,-0.427246,-8.728027
10666,-0.085205,-0.056885,0.992065,-1.770020,-0.427246,-9.155273
10675,-0.069092,-0.117676,0.950928,-1.770020,-0.122070,-8.728027
10685,-0.048706,-0.148071,1.005249,-1.586914,0.976562,-7.934570
10695,-0.049927,-0.047607,1.033936,-1.525879,1.159668,-7.629395
10704,-0.067505,-0.078125,1.004517,-1.403809,1.647949,-6.835937
10714,-0.062744,-0.079102,1.057983,-1.525879,2.502441,-6.225586
10724,-0.043213,-0.172485,0.994019,-1.037598,2.563477,-6.408691
10734,-0.009155,-0.173462,1.011597,-1.159668,2.319336,-6.713867
10744,-0.021973,-0.124023,0.965698,-1.525879,1.770020,-7.080078
10754,-0.022217,-0.130615,0.922241,-1.708984,1.464844,-7.263184
10764,-0.013916,-0.134521,0.982666,-1.647949,1.464844,-7.080078
10776,-0.026489,-0.174194,0.962524,-1.647949,2.441406,-6.286621
10785,-0.026978,-0.100098,1.017822,-1.647949,3.112793,-6.225586
10795,-0.033081,-0.228516,0.937256,-1.281738,3.173828,-6.408691
10805,0.032349,-0.225220,1.003662,-1.342773,3.417969,-6.896973
10814,-0.091309,-0.170654,1.038574,-1.037598,2.258301,-7.507324
10824,-0.121582,-0.189087,0.953857,-0.671387,2.075195,-7.751465
10834,-0.117920,-0.255005,0.993652,-0.366211,2.929688,-7.324219
10845,-0.019287,-0.194824,0.988403,-0.610352,3.723145,-6.896973
10855,-0.164429,-0.176270,1.036865,-0.671387,3.662109,-6.774902
10865,-0.115479,-0.135986,0.965942,-0.305176,4.638672,-6.347656
10874,-0.050415,-0.198975,0.914673,-0.061035,5.615234,-6.347656
10884,-0.040039,-0.286743,0.767822,-0.427246,5.371094,-6.286621
10895,-0.111938,0.013306,1.072510,-1.586914,5.004883,-5.737305
10904,-0.187622,0.143799,1.218750,-1.708984,5.737305,-5.737305
10914,-0.066528,0.039551,1.150391,-0.244141,7.263184,-5.065918
10925,0.058228,-0.248779,0.938721,0.793457,8.300781,-5.737305
10934,-0.022095,-0.308105,0.685669,1.037598,5.737305,-6.347656
10944,-0.014893,-0.253174,0.686035,-0.976562,6.042480,-6.286621
10954,0.073730,-0.055786,0.886597,-2.380371,6.774902,-5.737305
10964,0.099976,0.016602,1.012695,-2.746582,6.774902,-4.943848
10974,0.068726,-0.067383,1.067261,-2.197266,6.713867,-3.845215
10986,0.015381,-0.158081,1.061768,-1.464844,6.591797,-2.807617
10995,0.065063,-0.176636,0.900391,-1.831055,6.713867,-2.624512
11005,0.039551,-0.191895,0.958496,-2.075195,6.469727,-2.868652
11014,0.049194,-0.104248,1.032959,-2.136230,5.615234,-3.906250
11024,0.021729,-0.093506,1.021606,-1.586914,5.249023,-4.089355
11035,0.072388,-0.183594,1.041016,-0.915527,5.249023,-4.028320
11044,0.067749,-0.246826,1.040649,-0.488281,5.310059,-3.967285
11054,0.033081,-0.206421,0.967407,-0.610352,5.065918,-3.906250
11065,0.107788,-0.163330,0.992798,-0.732422,4.699707,-4.272461
11075,0.165527,-0.204590,1.059814,-0.549316,4.516602,-3.662109
11085,0.070190,-0.208984,1.013672,-0.366211,3.662109,-3.417969
11094,0.035889,-0.139893,0.984863,-1.037598,3.051758,-3.601074
11104,0.008911,-0.207031,0.973389,-1.525879,2.990723,-3.112793
11114,0.076538,-0.131226,1.020630,-1.708984,3.173828,-2.563477
11124,0.015137,-0.118530,0.985474,-1.342773,2.807617,-2.014160
11135,-0.029419,-0.217651,0.966553,-1.220703,3.540039,-1.037598
11145,-0.023437,-0.249268,0.960327,-1.525879,3.723145,-0.915527
11155,-0.051392,-0.074951,1.000366,-1.953125,3.967285,-1.037598
11165,-0.060059,-0.102783,0.972656,-2.075195,4.150391,-1.098633
11175,-0.018555,-0.075806,1.016846,-2.075195,4.028320,-0.793457
11184,-0.005371,-0.199097,0.947021,-1.586914,4.211426,0.122070
11196,0.042603,-0.112061,0.979736,-2.014160,4.577637,2.746582
11205,0.042114,-0.186646,0.994629,-2.319336,4.943848,4.089355
11215,0.031372,-0.150635,0.963867,-2.319336,4.638672,5.004883
11224,0.045166,-0.156006,0.955078,-2.197266,4.211426,5.310059
11234,0.032593,-0.088257,1.054199,-2.258301,3.662109,5.126953
11244,0.038452,-0.154419,1.071899,-2.502441,2.929688,4.882812
11254,-0.004150,-0.061646,1.047241,-2.319336,2.624512,4.333496
11266,0.023193,-0.118286,1.004883,-2.136230,1.892090,4.211426
11275,0.031860,-0.124146,0.927734,-1.892090,2.258301,4.211426
11284,0.005249,-0.013916,0.985107,-1.647949,2.075195,3.723145
11294,-0.013062,-0.133301,0.963013,-1.159668,1.892090,3.417969
11304,0.041382,-0.065063,1.052002,-1.037598,2.258301,3.295898
11314,-0.004272,-0.115234,0.926758,-1.037598,2.075195,3.295898
11324,0.015381,-0.117554,0.970337,-1.281738,1.464844,3.173828
11335,0.003296,-0.106323,1.030151,-1.525879,1.403809,5.187988
11345,0.009277,-0.123291,0.996704,-1.159668,1.647949,5.920410
11355,0.004517,-0.173462,1.050659,-0.793457,1.708984,6.164551
11364,-0.035889,-0.192261,1.051147,-0.366211,1.525879,5.615234
11374,-0.070068,-0.202881,0.960327,-0.244141,1.464844,5.187988
11384,-0.051392,-0.141846,0.939087,-0.366211,1.586914,4.577637
11394,-0.074097,-0.190674,1.024536,-0.183105,1.220703,3.601074
11406,-0.061279,-0.138550,1.019287,-0.305176,0.793457,3.784180
11415,0.006714,-0.123047,0.971191,-0.183105,1.037598,4.760742
11425,0.024658,-0.134888,0.949341,-0.305176,1.525879,6.469727
11434,0.084595,-0.121094,0.994995,-0.732422,1.831055,7.995605
11445,0.069580,-0.134521,0.977417,-0.671387,1.647949,9.521484
11454,0.062134,-0.002319,1.062500,-1.159668,0.793457,9.948730
11465,0.032349,-0.105957,0.960205,-1.342773,0.488281,11.169434
11474,0.025757,-0.106323,0.969849,-1.220703,0.610352,12.512207
11486,-0.008667,-0.072510,0.975464,-0.976562,0.122070,13.916016
11495,-0.035400,-0.132446,0.930664,-0.854492,-0.061035,14.099121
11505,0.012329,-0.099121,1.064819,-0.915527,0.000000,13.854980
11514,0.015259,-0.150635,1.041992,-0.549316,-0.671387,13.244629
11524,0.012329,-0.039429,1.040039,-0.244141,-1.403809,12.023926
11534,0.032837,-0.153809,0.970703,0.183105,-1.953125,10.681152
11547,0.054077,-0.207397,0.992065,0.793457,-3.295898,7.873535
11556,0.039917,-0.174561,0.955078,0.427246,-3.967285,6.042480
11566,0.012817,-0.175781,0.952026,-0.061035,-4.516602,4.821777
11575,0.037842,-0.159180,0.978027,-0.488281,-4.638672,3.417969
11585,0.032349,-0.219727,0.964355,-0.915527,-4.882812,2.319336
11595,0.010864,-0.225586,0.929077,-1.342773,-4.943848,1.403809
11604,0.032837,-0.224976,0.897827,-1.831055,-5.004883,0.061035
11616,0.018799,-0.203003,0.857422,-2.929688,-6.225586,-2.868652
11625,-0.058105,-0.153931,1.003662,-3.356934,-6.530762,-4.333496
11635,-0.057251,-0.139648,0.995117,-3.112793,-6.408691,-5.371094
11645,-0.001221,-0.092773,1.132446,-2.746582,-5.859375,-5.798340
11655,0.027344,-0.224976,1.001953,-2.258301,-6.408691,-6.286621
11665,0.017578,-0.124756,1.045044,-1.892090,-6.103516,-6.103516
11674,-0.020142,-0.256348,0.992798,-1.403809,-5.615234,-5.065918
11684,-0.015991,-0.072754,1.092407,-1.098633,-4.638672,-3.845215
11694,-0.020386,-0.102173,1.117676,-0.366211,-4.150391,-1.708984
11705,-0.071289,-0.194580,1.009766,0.305176,-3.662109,-0.915527
11714,-0.091309,-0.290039,0.914307,0.244141,-3.051758,0.366211
11724,-0.076660,-0.121094,1.030029,-0.183105,-2.075195,1.220703
11735,-0.099365,-0.117310,0.942383,-0.427246,-2.136230,1.525879
11744,-0.121094,-0.046509,0.952393,-0.671387,-2.014160,1.892090
11754,-0.074097,-0.226929,0.918457,-0.610352,-1.464844,2.929688
11764,-0.055420,-0.109863,1.003174,-1.525879,-1.159668,3.540039
11775,-0.141235,0.024170,1.022095,-1.525879,-0.976562,3.784180
11784,-0.139648,-0.151855,1.000122,-1.159668,-0.854492,3.845215
11794,-0.119873,-0.166870,1.035034,-1.159668,-0.305176,3.417969
11804,-0.120361,-0.152100,1.025635,-1.037598,-0.488281,3.051758
11815,-0.096802,-0.122681,0.901733,-1.281738,-0.183105,3.112793
11824,-0.055054,-0.015625,1.081665,-1.342773,0.793457,4.150391
11836,-0.080322,-0.029541,1.037720,-1.159668,0.854492,3.784180
11846,-0.088745,-0.180664,0.998291,-0.915527,1.220703,3.784180
11855,-0.050171,-0.121338,1.057739,-0.854492,1.647949,3.845215
11865,0.003174,-0.072388,1.099243,-0.976562,1.342773,3.295898
11874,0.013550,-0.075439,0.961182,-0.976562,1.159668,3.234863
11884,0.043335,-0.082764,1.015137,-0.671387,0.976562,3.234863
11894,0.047729,-0.176025,0.919556,-0.244141,0.915527,3.051758
11905,0.013916,-0.172119,0.873901,-0.610352,-0.488281,1.220703
11915,0.011353,-0.086548,0.868164,-1.464844,-0.610352,0.427246
11925,-0.009521,-0.129761,0.900024,-1.770020,-0.549316,-0.244141
11934,0.002441,-0.039063,1.051758,-1.953125,-0.976562,-1.281738
11945,-0.012085,-0.152466,0.944336,-1.525879,-1.342773,-2.258301
11955,0.001953,-0.016602,1.104126,-1.037598,-1.525879,-3.234863
11964,0.034912,-0.180298,0.957397,-0.061035,-1.525879,-4.089355
11976,0.061157,-0.304077,0.918091,0.610352,-1.281738,-5.126953
11985,0.037598,-0.305298,0.786133,-0.183105,-1.525879,-6.042480
11995,0.038208,-0.268311,0.871582,-1.464844,-1.770020,-7.019043
12004,0.002686,-0.210205,0.893433,-2.746582,-2.014160,-7.629395
12015,-0.013672,-0.102051,0.950073,-3.601074,-2.136230,-8.666992
12024,-0.024414,-0.079956,1.026611,-3.845215,-2.014160,-10.192871
12037,0.023682,-0.152466,1.080200,-4.150391,-1.953125,-12.939453
12046,0.085083,0.088257,1.184204,-4.089355,-2.136230,-14.526367
12056,0.032837,-0.164673,0.999512,-3.173828,-1.953125,-15.258789
12065,0.092529,-0.149292,0.986206,-2.746582,-1.708984,-15.502930
12075,0.060303,-0.162354,0.979248,-2.319336,-2.014160,-15.380859
12084,0.060669,-0.103516,1.011841,-2.624512,-2.075195,-15.258789
12094,0.004639,-0.001709,1.032959,-2.624512,-1.647949,-14.404297
12107,-0.037231,-0.050537,1.000000,-2.136230,-0.061035,-11.657715
12116,-0.064209,-0.205811,0.957031,-2.075195,0.427246,-10.986328
12126,-0.087158,-0.139893,0.974976,-2.380371,0.793457,-10.803223
12135,-0.043335,-0.103149,0.968140,-2.807617,0.976562,-10.559082
12145,-0.052979,-0.104004,1.017700,-3.051758,1.464844,-10.253906
12154,-0.050049,-0.040161,0.990845,-3.112793,1.770020,-9.094238
12165,-0.023193,-0.153076,0.881592,-2.929688,2.441406,-7.995605
12174,-0.006592,-0.238403,0.854248,-2.868652,3.234863,-6.713867
12186,0.004272,-0.087402,1.059326,-4.150391,3.967285,-5.065918
12195,0.075073,-0.130371,0.955566,-4.150391,4.028320,-4.333496
12205,0.131470,-0.120483,1.018921,-3.540039,3.601074,-4.394531
12214,0.106079,-0.255005,0.968384,-3.234863,2.929688,-4.821777
12225,0.033325,-0.212646,0.921021,-3.234863,2.685547,-5.187988
12234,0.068970,-0.126099,1.003540,-3.173828,2.807617,-5.554199
12247,0.104736,-0.114502,1.003662,-3.356934,2.319336,-6.164551
12256,0.081787,-0.110596,1.023193,-3.173828,1.892090,-6.286621
12266,0.040894,-0.239868,0.991577,-2.746582,1.586914,-5.920410
12276,0.074341,-0.032227,1.089478,-2.807617,1.708984,-5.859375
12285,-0.010498,-0.220215,1.026611,-2.563477,1.464844,-6.042480
12295,0.002930,-0.076172,1.043945,-2.258301,1.403809,-6.469727
12304,-0.009277,-0.108276,1.034180,-1.647949,1.342773,-6.469727
12314,0.038330,-0.249634,0.948730,-1.037598,1.403809,-6.347656
12326,0.047607,-0.220825,0.958984,0.183105,1.892090,-5.249023
12335,0.017700,-0.272339,0.891235,0.061035,1.953125,-4.821777
12345,0.058105,-0.133667,0.969849,-0.244141,2.136230,-4.516602
12354,0.022461,-0.244629,0.981079,-0.244141,2.624512,-4.333496
12365,0.035156,-0.104126,1.063354,-0.488281,2.014160,-4.821777
12375,0.074341,-0.061279,1.056519,-0.305176,1.525879,-5.493164
12384,-0.014160,-0.205444,0.966919,0.000000,1.159668,-5.737305
12396,0.018677,-0.029297,1.030396,0.061035,1.953125,-4.943848
12405,-0.052368,-0.162842,0.925415,0.244141,1.892090,-4.333496
12415,-0.006958,0.000610,1.017822,0.366211,2.136230,-3.417969
12424,-0.009888,-0.141724,0.977295,0.549316,2.685547,-1.647949
12435,-0.023682,-0.117798,0.884399,0.000000,2.990723,-0.671387
12444,-0.061035,0.137939,1.088257,-0.122070,3.540039,0.793457
12457,-0.141357,-0.137329,0.955444,-0.305176,4.699707,3.540039
12467,-0.127808,0.114746,1.049194,-0.244141,5.187988,4.333496
12476,-0.126343,-0.149902,0.992187,0.061035,5.615234,5.676270
12486,-0.132812,-0.134277,0.998779,0.000000,6.408691,7.019043
12495,-0.107910,0.068115,1.099243,0.061035,7.019043,8.422852
12504,-0.101196,-0.182495,0.949463,0.488281,7.385254,10.009766
12515,-0.064697,-0.118530,0.935791,0.488281,7.568359,11.413574
12524,0.020142,-0.055420,1.042236,0.488281,7.629395,14.465332
12536,0.019775,-0.080322,1.080322,0.610352,7.080078,15.563965
12545,-0.024902,0.011841,1.038818,0.671387,6.530762,16.052246
12554,-0.028198,-0.210815,0.986938,1.403809,6.103516,16.357422
12565,-0.005981,-0.129639,0.975464,1.892090,5.981445,16.174316
12574,0.034424,-0.149048,0.982422,1.831055,5.065918,15.808105
12585,0.014771,-0.239990,0.935547,1.586914,4.333496,15.319824
12594,0.062622,-0.019531,1.047852,1.037598,3.662109,15.197754
12605,0.026489,-0.138794,0.952759,1.281738,2.746582,15.014648
12615,0.042725,0.045044,1.108276,1.342773,2.136230,14.526367
12624,0.001831,-0.153076,1.063232,1.770020,1.953125,13.793945
12634,0.035278,-0.290039,0.933594,1.708984,1.586914,12.573242
12645,-0.004150,-0.091431,1.045776,1.831055,0.976562,11.230469
12655,0.011841,-0.242798,0.885376,1.647949,0.244141,10.009766
12664,0.037354,-0.312012,0.897095,0.915527,-0.122070,9.033203
12676,0.036499,-0.088257,0.979370,-0.122070,-1.159668,7.568359
12685,0.035400,-0.149902,0.957153,-0.732422,-1.342773,7.019043
12694,0.038940,-0.119629,1.014648,-1.098633,-1.708984,5.920410
12705,0.014893,-0.132812,1.007324,-1.464844,-2.014160,4.821777
12714,0.050293,-0.150635,1.010986,-1.037598,-2.258301,4.150391
12725,0.058472,-0.175903,1.056030,-0.976562,-2.685547,3.173828
12734,0.080566,-0.202759,0.991333,-0.610352,-3.845215,2.380371
12746,0.026611,-0.163696,0.994629,0.122070,-3.967285,2.868652
12755,-0.021606,-0.325684,0.834351,0.183105,-3.417969,3.479004
12765,-0.006470,-0.173584,0.964844,-0.366211,-3.356934,3.784180
12775,-0.061157,-0.180298,0.924072,-1.037598,-2.990723,4.150391
12784,-0.135376,-0.260132,0.892578,-1.586914,-2.685547,4.821777
12795,-0.078491,0.007568,1.083008,-1.647949,-2.319336,4.882812
12804,-0.108398,-0.044556,1.071777,-1.464844,-2.136230,5.249023
12816,-0.119263,-0.050903,1.044434,-0.915527,-1.525879,5.187988
12825,-0.049805,-0.156006,1.088867,-0.305176,-1.464844,5.249023
12835,-0.056152,-0.225098,0.913940,-0.244141,-1.586914,4.943848
12845,-0.069092,-0.179199,0.904785,-0.122070,-1.220703,5.249023
12855,-0.021606,-0.245361,0.950073,-0.244141,-0.793457,5.187988
12864,-0.044067,-0.242187,0.877441,-1.098633,-0.793457,5.249023
12876,-0.042480,-0.014893,1.038208,-2.563477,-1.220703,4.150391
12885,-0.014771,-0.217896,1.002808,-3.112793,-1.098633,3.601074
12894,0.042847,-0.005859,1.109619,-3.417969,-1.098633,3.356934
12905,0.087524,0.022827,1.086304,-3.112793,-1.403809,3.356934
12914,0.082153,-0.226562,0.994263,-2.685547,-1.831055,3.295898
12925,0.072510,-0.190063,1.072754,-2.441406,-1.892090,3.295898
12934,0.041382,0.031006,1.058594,-2.746582,-2.319336,2.441406
12945,-0.023071,-0.080811,1.047119,-1.831055,-2.685547,0.671387
12955,-0.060425,-0.091919,1.019409,-1.342773,-2.929688,-0.366211
12965,-0.052368,-0.150146,0.856323,-1.098633,-2.319336,-0.610352
12975,-0.043823,-0.093872,0.906250,-1.281738,-1.831055,-0.854492
12984,0.011475,-0.095581,1.007690,-1.281738,-1.647949,-1.159668
12995,-0.029419,-0.183228,0.981201,-1.342773,-2.014160,-2.380371
13005,-0.016968,-0.064453,0.994995,-1.403809,-2.624512,-3.417969
13017,0.010620,-0.200073,0.916504,-0.732422,-2.563477,-4.943848
13027,0.004150,-0.156128,0.941040,-0.610352,-2.441406,-5.676270
13037,-0.006714,0.022949,1.042725,-0.793457,-2.441406,-6.408691
13046,0.008545,-0.131836,0.981689,-0.671387,-2.624512,-6.958008
13056,0.039063,-0.143799,0.957886,-0.244141,-2.624512,-7.446289
13065,0.047607,-0.049805,0.962280,0.122070,-2.441406,-7.690430
13075,0.035767,-0.199829,0.903687,0.610352,-2.258301,-7.873535
13084,0.020508,-0.149414,0.962036,0.549316,-1.892090,-9.033203
13096,0.004517,-0.157471,1.028687,0.854492,-2.136230,-10.070801
13106,0.021118,-0.319458,0.881836,1.525879,-2.441406,-11.291504
13115,0.021606,-0.099609,1.005737,1.281738,-2.014160,-12.145996
13125,0.037598,0.020508,1.106689,0.671387,-1.708984,-12.145996
13135,0.024048,-0.144775,1.030029,0.671387,-0.915527,-11.840820
13145,0.021118,-0.102417,1.059937,0.976562,-0.610352,-11.352539
13154,0.006226,-0.038574,1.067139,1.098633,-0.061035,-10.620117
13166,0.030518,-0.182251,0.925415,0.854492,0.366211,-10.131836
13175,0.053467,-0.201294,0.837769,0.549316,0.915527,-9.277344
13185,-0.000244,-0.177856,0.807129,-0.427246,1.342773,-8.117676
13194,0.011475,-0.049438,0.922485,-1.647949,1.770020,-7.141113
13205,0.001465,-0.155029,0.835693,-2.197266,2.136230,-5.859375
13215,0.030518,-0.130615,0.880371,-2.441406,2.685547,-4.943848
13227,-0.010620,-0.099609,0.994141,-3.479004,2.319336,-4.333496
13237,0.046753,-0.090332,1.080933,-3.417969,2.380371,-3.967285
13247,0.001709,0.067627,1.049683,-2.929688,2.136230,-3.479004
13256,0.011108,-0.107544,0.968994,-2.197266,2.197266,-2.868652
13266,0.051636,-0.158569,0.930664,-2.258301,2.807617,-1.708984
13275,0.060913,-0.123535,1.014526,-2.075195,3.662109,-0.488281
13285,0.044312,-0.182617,1.001831,-2.258301,3.540039,-0.061035
13295,-0.011719,-0.184448,0.997925,-2.685547,3.356934,0.915527
13306,-0.001953,-0.283325,0.985840,-2.563477,3.051758,0.976562
13316,-0.020508,-0.149048,0.977783,-2.746582,2.624512,0.854492
13325,0.015503,-0.011230,1.100098,-2.868652,2.563477,0.915527
13335,0.018188,-0.259277,0.931885,-2.685547,2.441406,0.671387
13344,0.032593,-0.204224,0.866089,-2.807617,2.380371,0.549316
13355,0.027344,-0.112183,1.000854,-2.807617,2.624512,0.854492
13365,0.044678,-0.291992,0.855225,-4.028320,2.868652,0.793457
13376,0.056030,0.053589,1.115601,-4.211426,2.075195,0.732422
13385,0.015625,-0.097290,0.993042,-4.272461,1.708984,0.976562
13395,-0.022949,-0.144165,0.981323,-4.150391,1.708984,1.342773
13404,0.025269,0.021606,1.043457,-4.272461,1.953125,1.647949
13415,-0.022217,-0.103516,1.047363,-3.967285,2.136230,2.502441
13425,-0.028687,-0.117798,1.073730,-4.089355,2.136230,3.356934
13437,-0.016113,-0.184448,1.024902,-3.295898,2.624512,5.432129
13446,-0.064087,-0.266113,0.921875,-3.173828,3.112793,6.591797
13456,-0.049438,0.143555,1.027710,-3.601074,3.540039,7.995605
13466,-0.041870,0.062500,1.020386,-3.601074,3.540039,9.033203
13475,-0.036987,-0.274048,0.861206,-3.173828,3.845215,9.948730
13485,-0.038940,0.006958,0.933960,-2.929688,3.723145,10.620117
13495,-0.033325,-0.017090,0.993896,-2.380371,3.295898,11.047363
13505,-0.009888,-0.246582,0.888306,-1.342773,2.746582,10.253906
13516,0.020264,-0.009766,1.095703,-1.098633,2.441406,10.070801
13525,0.023560,-0.165771,1.010132,-1.403809,1.831055,9.704590
13535,-0.006470,-0.018677,0.973145,-1.220703,1.525879,9.643555
13544,0.012207,0.033081,1.040039,-0.793457,1.525879,9.643555
13555,-0.012817,-0.251709,0.944214,-0.061035,1.403809,9.887695
13564,0.004395,-0.172974,0.943481,-0.305176,1.281738,9.948730
13577,-0.005249,-0.164673,0.978638,-0.244141,0.488281,9.765625
13586,-0.001709,-0.203125,0.922119,-0.122070,0.488281,9.887695
13596,-0.000854,-0.078857,0.978516,-0.244141,0.610352,10.253906
13605,0.000854,-0.219116,0.905762,-0.244141,0.610352,10.070801
13615,0.022095,-0.223389,0.920166,-0.549316,-0.061035,9.460449
13625,0.064819,-0.142456,1.084839,-1.281738,-0.976562,8.728027
13635,0.037476,-0.140625,1.002563,-1.892090,-1.892090,7.690430
13646,0.029419,0.062134,1.083740,-2.014160,-2.380371,6.835937
13656,0.022583,-0.151489,0.958008,-0.976562,-2.319336,6.835937
13665,0.043213,-0.167847,0.930298,-0.671387,-2.563477,6.469727
13674,0.084717,-0.023315,1.062012,-0.732422,-3.295898,5.798340
13685,0.071655,-0.155151,0.999878,-0.549316,-3.906250,5.004883
13695,0.105835,-0.253540,0.853394,-0.854492,-4.272461,4.089355
13706,0.067383,-0.112305,0.957031,-1.220703,-5.126953,1.892090
13716,0.123047,-0.113525,1.067017,-1.831055,-5.554199,0.915527
13726,0.108887,-0.049683,1.071899,-1.342773,-6.713867,0.610352
13736,0.079224,0.061523,1.050293,-1.098633,-7.629395,0.427246
13746,0.031128,-0.224854,0.920898,-0.488281,-7.568359,1.098633
13755,0.026855,-0.205078,0.941284,-0.732422,-6.530762,1.953125
13765,0.025391,-0.046753,1.031250,-1.098633,-5.920410,1.892090
13775,0.050781,-0.144653,1.009521,-0.854492,-6.042480,1.342773
13785,0.020752,-0.134277,0.985596,-1.098633,-7.446289,-1.586914
13795,0.045410,-0.068481,0.917603,-1.098633,-7.263184,-2.807617
13805,-0.013550,-0.303955,0.884521,-1.403809,-6.835937,-4.455566
13815,0.049805,-0.205078,1.040039,-1.647949,-6.835937,-6.469727
13825,0.023071,-0.375000,0.952148,-2.197266,-7.568359,-8.911133
13835,0.023071,-0.272949,0.885620,-2.441406,-8.361816,-12.207031
13845,0.064209,-0.013672,1.021606,-2.746582,-9.094238,-14.465332
13855,0.096191,-0.196655,0.979614,-3.479004,-8.728027,-15.563965
13866,-0.007324,0.081543,1.071899,-2.990723,-8.117676,-15.075684
13876,-0.011719,-0.119019,1.027832,-2.685547,-7.629395,-14.343262
13886,-0.010864,-0.265625,0.888184,-2.441406,-6.713867,-13.854980
13895,0.046143,0.001221,1.025757,-2.685547,-6.530762,-13.244629
13905,0.023926,-0.019287,1.066040,-2.624512,-6.164551,-12.084961
13916,0.008057,-0.170410,0.980835,-2.563477,-5.676270,-10.131836
13926,-0.004639,0.096802,1.021484,-2.563477,-4.943848,-9.094238
13936,-0.028198,-0.172607,1.027100,-2.014160,-4.333496,-8.239746
13945,-0.031372,-0.151123,1.054932,-2.136230,-3.967285,-7.507324
13955,-0.010010,0.045898,1.062378,-1.953125,-3.967285,-7.019043
13965,0.005493,-0.119751,1.057129,-1.281738,-3.906250,-6.835937
13975,-0.039307,-0.327515,0.911133,-0.854492,-3.662109,-6.835937
13985,-0.016479,-0.135864,0.961548,-0.976562,-3.173828,-6.713867
13995,0.013916,-0.060913,1.013672,-1.525879,-2.990723,-7.751465
14006,-0.093384,-0.145264,0.934814,-1.342773,-2.929688,-8.850098
14015,-0.044434,-0.008545,1.023804,-0.976562,-2.807617,-9.399414
14025,-0.076904,-0.242554,0.875610,-1.281738,-2.075195,-9.826660
14035,-0.062866,-0.218506,0.924194,-1.892090,-1.220703,-9.826660
14046,-0.075928,0.040649,1.072998,-2.258301,-1.159668,-9.948730
14055,-0.041138,0.026611,1.118164,-2.319336,-1.098633,-9.582520
14065,-0.024780,-0.080688,1.005737,-1.220703,-0.427246,-8.850098
14075,-0.000977,-0.044189,1.080444,-0.610352,0.427246,-7.995605
14086,-0.009155,-0.109741,1.052490,-0.122070,0.854492,-7.690430
14095,-0.036743,-0.092407,1.027588,0.244141,0.854492,-7.751465
14105,-0.030151,-0.043457,1.027344,0.915527,0.793457,-7.629395
14115,-0.038940,-0.107666,1.007935,1.342773,0.976562,-7.629395
14125,-0.029785,-0.202637,0.916504,1.342773,1.403809,-7.446289
14136,-0.016846,-0.069824,0.991821,0.976562,1.953125,-6.408691
14146,-0.023560,-0.212280,0.929565,0.671387,2.502441,-5.859375
14155,-0.034546,-0.099487,0.848755,0.122070,2.807617,-4.760742
14165,0.000732,0.052002,0.977783,-0.122070,3.051758,-3.479004
14175,-0.007080,-0.237671,0.929199,0.061035,3.051758,-2.197266
14185,-0.000244,-0.223267,0.800049,-0.488281,3.234863,-1.464844
14197,-0.027466,0.047607,0.978027,-0.488281,3.662109,0.000000
14206,-0.057861,-0.130127,1.026611,-0.244141,3.479004,0.366211
14215,-0.102295,-0.140991,1.002808,0.122070,3.601074,0.244141
14225,-0.073975,-0.083130,0.895264,0.366211,3.784180,0.427246
14236,-0.104004,-0.158569,1.005737,-0.671387,4.577637,0.976562
14245,-0.053589,-0.125977,0.971191,-1.403809,4.638672,1.281738
14256,-0.010132,-0.040649,1.100586,-1.831055,4.821777,1.708984
14265,-0.029297,-0.273682,0.842041,-1.220703,5.004883,2.380371
14276,-0.030518,-0.041016,1.026367,-1.525879,5.310059,2.929688
14286,0.023560,-0.131958,0.976196,-2.868652,5.676270,2.319336
14295,0.004395,-0.283325,0.905151,-3.112793,4.638672,0.610352
14306,0.049194,-0.008179,0.961182,-2.990723,3.723145,-1.098633
14315,0.055420,-0.209229,0.938354,-2.990723,3.234863,-2.197266
14326,0.087891,-0.404053,0.841553,-2.990723,3.295898,-2.807617
14335,0.064941,-0.136841,1.016113,-3.967285,3.112793,-3.234863
14347,0.080933,-0.110229,0.996216,-4.211426,2.319336,-3.662109
14356,0.000488,-0.175415,0.932373,-3.723145,2.014160,-3.540039
14366,0.039429,-0.059692,0.967773,-3.784180,2.197266,-3.417969
14375,0.042847,-0.091675,1.031616,-4.211426,2.563477,-3.112793
14386,0.094604,-0.085693,1.114502,-4.638672,2.685547,-2.319336
14395,0.084473,0.029663,1.165161,-4.638672,2.075195,-2.258301
14406,0.053345,-0.071655,1.138428,-3.540039,1.892090,-0.732422
14416,0.062012,-0.123779,1.050537,-3.112793,1.770020,-0.122070
14425,0.056885,-0.075317,1.107422,-2.990723,1.586914,0.366211
14435,0.021851,-0.084839,1.039673,-3.051758,1.464844,0.549316
14445,-0.005981,-0.209961,0.934204,-2.624512,1.281738,0.610352
14456,0.004272,-0.197632,0.943970,-2.014160,1.403809,1.098633
14465,-0.005371,-0.017700,0.990479,-2.502441,1.464844,1.647949
14477,-0.054932,-0.158325,0.981812,-2.502441,1.281738,0.976562
14486,-0.019287,0.069092,1.098755,-2.197266,1.037598,0.671387
14496,-0.011475,0.121948,1.121948,-1.159668,1.098633,0.976562
14506,-0.040405,-0.062256,1.052490,-0.122070,1.098633,1.159668
14515,0.006836,-0.119995,1.081055,-0.183105,1.281738,1.220703
14526,0.036255,-0.112305,1.117432,0.244141,1.403809,1.586914
14535,0.048096,-0.078613,1.026367,0.976562,0.610352,1.464844
14547,0.038818,0.022461,0.960327,1.342773,0.488281,2.014160
14556,-0.083862,-0.199585,0.801270,0.732422,0.915527,2.258301
14566,-0.009521,0.054932,1.065186,0.122070,1.342773,2.014160
14575,-0.000977,-0.018188,1.066406,0.244141,1.037598,1.159668
14586,-0.084961,-0.101807,0.947266,1.098633,0.183105,0.061035
14595,-0.042358,-0.084839,0.967285,2.258301,0.244141,-0.061035
14606,-0.017090,-0.057617,1.002686,2.807617,1.098633,-0.122070
14616,0.015381,-0.155151,1.016479,2.868652,0.793457,0.061035
14627,0.000977,-0.031006,0.947998,3.112793,0.671387,0.610352
14636,0.050293,-0.081299,0.974487,3.540039,0.732422,1.403809
14646,0.046387,-0.211548,0.964722,3.845215,0.549316,2.380371
14656,0.026978,-0.198730,0.989258,3.906250,1.037598,3.234863
14665,0.014282,-0.032349,1.037354,3.906250,0.732422,3.356934
14676,0.008789,-0.071411,1.018921,3.845215,0.427246,3.479004
14685,0.005127,-0.322876,0.808960,3.906250,0.244141,3.173828
14695,-0.015137,-0.284424,0.742310,1.464844,-0.427246,2.624512
14706,0.019043,0.003662,0.943726,0.122070,-0.732422,1.953125
14715,0.036743,-0.103760,1.002197,-0.366211,-1.281738,1.647949
14726,0.101929,-0.152466,0.964478,-0.488281,-1.708984,1.220703
14735,0.023071,-0.127686,0.858643,-0.671387,-1.831055,1.220703
14746,0.021729,-0.139160,0.861084,-1.647949,-1.037598,2.197266
14755,0.026855,-0.060059,1.020142,-2.380371,-0.854492,2.929688
14767,-0.062012,-0.147827,0.960449,-3.479004,-1.586914,3.173828
14776,-0.084595,-0.154907,0.975220,-3.234863,-1.708984,3.112793
14786,-0.065186,0.060547,1.068848,-3.173828,-1.281738,3.479004
14795,-0.102295,-0.153076,1.007202,-3.417969,-1.098633,4.028320
14806,-0.086792,-0.440674,0.977295,-3.723145,-0.732422,4.211426
14816,-0.077393,-0.046753,1.037109,-4.699707,-0.793457,4.272461
14826,-0.070923,0.110474,1.082397,-5.249023,-0.366211,3.723145
14835,-0.094116,-0.177734,1.046387,-4.577637,-0.061035,2.990723
14846,0.008911,-0.022949,1.062866,-4.943848,0.305176,2.624512
14855,0.069092,-0.144897,1.047974,-4.638672,0.061035,1.464844
14866,0.020996,-0.154419,0.985718,-4.516602,-1.159668,0.305176
14875,0.037354,-0.050659,0.974487,-3.967285,-2.075195,-0.854492
14886,0.023193,-0.235718,0.901123,-3.540039,-2.075195,-1.708984
14896,-0.029541,-0.388550,0.694702,-4.272461,-2.258301,-1.708984
14905,-0.048218,-0.081421,0.839600,-6.286621,-2.075195,-0.793457
14916,-0.100220,-0.034790,0.950562,-6.713867,-1.220703,0.915527
14926,-0.132324,0.010864,0.979736,-6.164551,-0.366211,2.441406
14935,-0.039551,0.000854,1.057007,-5.065918,0.488281,3.967285
14946,-0.070557,-0.222534,0.999023,-4.882812,0.793457,4.760742
14956,-0.025269,-0.217773,0.993530,-5.554199,0.488281,4.150391
14968,0.006104,-0.103882,0.995972,-5.065918,-0.793457,2.197266
14978,0.000000,-0.261230,0.921265,-4.577637,-0.854492,0.854492
14987,0.031006,-0.113403,1.007813,-4.150391,-1.159668,-0.915527
14997,0.062744,-0.110474,1.077271,-3.784180,-1.342773,-1.892090
15006,0.055176,-0.205688,1.080566,-3.234863,-1.464844,-3.051758
15016,0.072388,-0.209595,1.000122,-2.929688,-2.136230,-4.699707
15025,0.098145,-0.105347,0.913330,-2.380371,-2.563477,-5.676270
15035,0.120850,-0.132812,0.956177,-1.831055,-2.502441,-6.347656
15047,0.060913,-0.091064,0.931763,-1.586914,-3.173828,-7.934570
15057,0.053833,0.021729,0.950439,-2.014160,-3.723145,-8.972168
15066,0.058350,-0.182129,0.833252,-1.892090,-4.089355,-10.070801
15076,0.033081,-0.127563,0.861084,-1.770020,-4.089355,-10.986328
15086,0.047974,0.110718,1.046997,-2.258301,-3.845215,-11.779785
15096,0.048706,0.102783,1.090210,-2.380371,-3.662109,-12.145996
15106,0.104614,-0.078735,1.101807,-0.976562,-3.784180,-13.671875
15117,0.084106,-0.039551,1.000854,-0.549316,-4.455566,-14.648438
15127,0.130981,-0.023071,1.058472,-0.488281,-4.455566,-15.380859
15136,0.086426,-0.189209,1.038086,-0.671387,-4.394531,-15.075684
15146,0.043213,-0.181030,1.032959,-0.854492,-4.089355,-14.343262
15155,0.022339,0.013916,1.089966,-0.732422,-3.234863,-13.549805
15166,-0.008179,0.048340,1.099976,-0.305176,-2.746582,-12.145996
15176,-0.029053,-0.149536,1.016235,0.488281,-2.319336,-10.620117
15186,-0.067993,-0.036865,1.036987,0.244141,-2.136230,-10.070801
15195,-0.105225,0.100342,1.044922,0.610352,-1.647949,-9.277344
15206,-0.086792,-0.133789,0.963135,1.403809,-0.793457,-8.300781
15216,-0.099609,-0.272705,0.851318,1.647949,0.122070,-7.202148
15226,-0.038818,-0.048584,0.947388,1.037598,0.976562,-6.164551
15236,-0.019409,0.070801,1.014526,0.427246,1.525879,-5.493164
15246,-0.010864,-0.072266,0.994141,-0.427246,1.831055,-4.516602
15256,-0.042603,0.013062,0.984375,-0.488281,2.014160,-4.455566
15266,0.002563,-0.114014,0.988647,-0.427246,2.014160,-4.333496
15276,-0.015015,-0.187500,0.919312,-0.244141,1.892090,-4.760742
15286,-0.040405,-0.006592,0.990845,-0.122070,2.014160,-4.943848
15296,0.011963,0.038574,1.040405,-0.183105,2.075195,-4.699707
15306,0.008423,-0.129395,1.016357,0.061035,2.563477,-4.272461
15316,-0.021606,-0.180664,1.010132,0.915527,2.624512,-4.089355
15326,-0.035278,0.044189,1.099121,1.525879,2.563477,-3.845215
15336,-0.033813,-0.194580,1.038208,2.685547,2.685547,-3.479004
15346,-0.027466,-0.351807,1.011841,3.662109,2.746582,-3.540039
15356,-0.041992,-0.178223,1.012939,3.845215,3.356934,-3.051758
15366,-0.023926,-0.030640,1.026367,3.967285,4.028320,-1.831055
15376,-0.020752,-0.179199,0.978271,4.211426,4.150391,-0.854492
15386,-0.007324,-0.341187,0.880493,2.136230,4.211426,0.549316
15397,-0.020020,0.005127,0.914917,1.159668,4.150391,0.915527
15407,-0.027222,-0.074341,0.952148,0.549316,4.150391,1.342773
15416,-0.077515,-0.137085,0.882446,0.000000,4.699707,1.525879
15426,-0.084839,-0.028320,1.008423,-0.671387,5.065918,1.831055
15436,-0.040649,-0.035034,1.043091,-0.915527,5.310059,1.831055
15446,-0.054932,-0.200928,0.969116,-1.098633,5.126953,1.770020
15455,-0.024414,-0.150269,0.969360,-1.586914,5.249023,2.624512
15467,0.020020,0.015747,1.074829,-2.563477,5.126953,3.112793
15477,-0.010010,-0.170410,0.961548,-3.112793,5.187988,3.234863
15487,-0.020020,-0.052979,0.961304,-3.051758,5.249023,3.356934
15496,0.001099,0.062988,1.068237,-2.319336,5.187988,3.234863
15506,-0.026855,-0.089966,0.987061,-2.014160,4.943848,3.356934
15516,-0.020874,-0.227905,0.990967,-1.953125,5.004883,3.173828
15525,-0.015625,-0.075073,1.060791,-1.831055,4.455566,2.685547
15537,-0.006592,-0.081787,1.023804,-1.159668,4.577637,2.868652
15547,-0.019653,-0.166382,0.985229,-0.549316,4.821777,3.234863
15557,-0.017334,-0.051392,1.028687,-0.732422,4.638672,3.295898
15567,-0.022583,-0.025635,1.043701,-0.610352,4.638672,3.295898
15577,0.005127,-0.170044,0.984497,-0.427246,4.577637,3.662109
15586,-0.075317,-0.222412,0.886108,-0.183105,4.455566,4.150391
15595,-0.047974,-0.135620,0.888794,-0.244141,5.187988,5.432129
15607,-0.033447,-0.289307,0.864380,-1.647949,5.249023,6.652832
15617,-0.022949,0.050537,1.024780,-2.319336,5.187988,7.507324
15626,-0.013916,0.074463,1.104004,-2.990723,5.432129,8.605957
15636,-0.046997,-0.153442,1.014526,-2.990723,5.432129,9.521484
15645,-0.050903,-0.143066,1.058350,-2.929688,5.676270,10.070801
15656,-0.035767,-0.043335,1.108398,-2.380371,5.859375,10.253906
15666,-0.023437,-0.031616,1.087402,-1.953125,4.943848,9.704590
15677,-0.005859,-0.214355,1.010864,-1.525879,4.394531,9.643555
15687,0.035522,-0.010376,0.971802,-1.220703,4.028320,9.338379
15696,0.016968,-0.026978,0.954224,-0.793457,3.601074,9.643555
15706,0.041382,-0.149658,0.945801,-0.793457,3.601074,9.582520
15716,0.080811,-0.077271,0.962036,-0.610352,3.417969,9.277344
15726,0.062134,-0.021606,1.023560,-0.305176,2.746582,8.666992
15736,0.072998,-0.073120,1.031372,15.563965,1.037598,6.652832
15747,0.074829,-0.085571,1.042725,0.061035,0.366211,5.676270
15757,0.086548,-0.034790,1.053955,0.244141,-0.305176,4.760742
15766,0.084351,-0.127197,0.970093,0.366211,-0.549316,3.967285
15776,0.050415,-0.109009,0.920166,0.244141,-0.854492,3.234863
15786,0.071655,0.018066,0.978027,0.427246,-1.098633,2.380371
15796,0.056152,-0.061768,0.970337,0.244141,-1.342773,1.342773
15805,0.041626,-0.209106,0.910522,0.000000,-2.075195,-1.892090
15817,0.085937,0.020874,1.044800,0.122070,-2.685547,-3.479004
15826,0.103882,-0.304321,0.971558,-0.122070,-3.295898,-4.882812
15836,0.061157,-0.289917,0.912476,-0.732422,-3.784180,-5.920410
15846,0.056152,0.075195,1.089966,-1.281738,-3.845215,-6.408691
15856,0.085937,0.113159,1.150146,-1.098633,-4.150391,-6.469727
15866,0.031372,-0.173828,1.005249,-0.671387,-3.723145,-6.286621
15878,0.000610,0.009766,1.039917,-0.427246,-2.990723,-5.065918
15888,-0.008423,-0.089966,0.978394,-0.244141,-2.624512,-4.516602
15898,-0.055054,-0.200928,0.890747,-0.122070,-2.319336,-3.906250
15907,-0.029053,-0.078247,0.923828,-0.122070,-1.892090,-3.112793
15917,-0.012451,-0.204102,0.837402,-0.061035,-1.647949,-2.075195
15927,-0.052734,-0.128052,0.811157,-0.854492,-1.281738,-1.281738
15937,-0.026123,0.123901,1.049194,-1.647949,-0.915527,0.488281
15946,-0.046265,-0.057983,1.031738,-1.953125,-0.549316,1.037598
15956,-0.068970,0.050903,1.063843,-2.319336,0.000000,1.831055
15966,-0.046997,0.104736,1.151611,-2.258301,0.305176,2.380371
15976,-0.059937,-0.213257,1.012329,-2.075195,0.427246,2.502441
15986,-0.055908,-0.187378,1.056396,-1.770020,0.610352,2.319336
15996,-0.025513,0.091553,1.148193,-1.586914,0.549316,2.197266
16006,-0.009033,-0.032593,1.109009,-1.159668,0.610352,2.380371
16016,0.016235,-0.170288,1.015015,-0.061035,0.854492,2.380371
16027,0.029053,-0.089233,1.059204,0.122070,0.305176,2.319336
16037,0.061523,-0.194092,1.012329,0.061035,0.244141,1.892090
16046,0.031860,-0.268555,0.953491,-0.183105,0.183105,1.770020
16056,0.031738,-0.185547,0.993164,-0.671387,0.183105,1.770020
16066,0.029175,-0.078735,0.934082,-1.098633,0.244141,1.892090
16076,0.021973,-0.165894,0.915283,-1.342773,0.061035,2.197266
16088,0.023682,-0.044067,0.974976,-1.953125,-0.122070,2.075195
16097,-0.000977,-0.180908,0.914062,-2.624512,-0.488281,1.586914
16107,0.015503,0.028076,0.979858,-2.502441,-0.549316,1.342773
16117,0.019287,0.034790,1.021606,-2.136230,-0.610352,1.159668
16126,0.008789,-0.231323,0.896484,-1.892090,-0.793457,0.732422
16136,0.012939,-0.121826,0.921753,-1.953125,-1.159668,0.427246
16146,0.070068,0.059814,1.047363,-1.953125,-1.098633,0.305176
16156,0.023193,-0.151611,0.949951,-1.953125,-1.525879,-0.244141
16167,0.048096,0.102783,1.030884,-2.319336,-1.281738,-0.732422
16177,0.016113,-0.077881,1.000977,-2.319336,-1.647949,-1.464844
16186,0.016846,-0.155273,0.988037,-2.502441,-1.953125,-2.502441
16196,0.012451,0.090698,1.112915,-2.197266,-2.197266,-3.234863
16206,0.003540,0.066772,1.088989,-1.464844,-2.258301,-3.356934
16216,-0.014893,-0.210937,0.999756,-0.183105,-1.831055,-3.417969
16225,0.003662,-0.067993,1.007690,0.610352,-1.647949,-4.211426
16237,0.058472,-0.270264,0.948486,1.586914,-2.075195,-4.943848
16247,0.045532,-0.198364,0.911865,1.403809,-2.380371,-5.676270
16256,0.081665,-0.033203,0.981323,0.610352,-2.380371,-5.737305
16265,0.076172,-0.133179,0.998169,0.183105,-2.380371,-5.981445
16276,0.058594,-0.030273,0.985107,-0.610352,-2.380371,-6.469727
16286,0.017456,-0.000244,0.991577,-1.037598,-2.441406,-6.469727
16297,-0.018799,-0.109131,0.897461,-0.915527,-2.624512,-7.202148
16307,0.027344,-0.074951,0.984497,-2.380371,-1.953125,-6.958008
16317,-0.025391,-0.187866,0.875854,-3.417969,-1.464844,-6.835937
16326,-0.022095,0.157471,0.940552,-4.760742,-1.098633,-6.530762
16336,0.015991,0.114136,1.042236,-5.187988,-0.732422,-6.103516
16346,0.000610,-0.021118,0.956665,-4.333496,-0.671387,-5.798340
16356,-0.008301,0.011475,1.034668,-3.723145,-0.915527,-5.798340
16366,0.032959,-0.020264,1.119263,-3.601074,-0.854492,-5.554199
16376,0.030273,0.004517,1.075317,-3.845215,-0.244141,-5.493164
16386,0.006348,-0.067871,0.895996,-3.662109,-0.183105,-5.187988
16396,0.013428,-0.001465,0.841431,-2.746582,0.061035,-4.638672
16407,-0.001099,-0.115601,0.848267,-2.441406,-0.183105,-4.272461
16416,0.022461,-0.138794,0.829834,-2.807617,-0.183105,-4.211426
16426,0.008301,0.030762,0.999756,-3.906250,-0.244141,-3.784180
16437,-0.047119,0.172363,0.963989,-5.065918,-0.122070,-3.112793
16447,-0.011841,-0.046143,0.877319,-4.638672,0.854492,-2.258301
16456,-0.031128,-0.091309,0.852173,-3.417969,1.281738,-1.831055
16466,0.007935,-0.014282,1.055298,-3.479004,1.159668,-1.708984
16476,-0.000488,-0.099731,1.122803,-3.967285,1.037598,-1.525879
16486,-0.040649,0.050049,1.141235,-4.394531,0.793457,-1.281738
16498,-0.003174,0.033691,1.059204,-4.028320,1.647949,-0.244141
16507,-0.040527,-0.038330,0.932373,-2.807617,2.197266,0.122070
16517,-0.048218,-0.107910,1.014160,-2.319336,2.319336,0.305176
16526,-0.011719,-0.194580,1.086792,-2.990723,2.136230,0.244141
16536,-0.022827,-0.077393,1.140015,-3.906250,2.136230,0.305176
16546,0.003662,0.049927,1.075195,-4.699707,2.258301,0.671387
16556,-0.015747,-0.019287,0.929199,-4.272461,2.685547,1.403809
16568,-0.017090,0.006714,0.950806,-1.708984,2.624512,1.831055
16577,0.018555,-0.055542,1.077759,-1.892090,2.197266,1.647949
16586,0.000244,-0.091797,1.106445,-2.441406,2.014160,1.708984
16596,-0.005249,-0.020386,1.069580,-3.906250,2.014160,1.831055
16606,-0.017456,0.172729,1.013672,-4.882812,2.746582,2.380371
16616,-0.031860,0.072021,0.924316,-3.662109,3.173828,3.051758
16626,-0.019531,0.031128,0.953735,-2.075195,2.685547,3.173828
16636,-0.037231,-0.020752,1.025269,-1.159668,2.624512,3.112793
16646,0.018799,-0.078735,1.106934,-1.953125,2.075195,3.051758
16657,-0.003296,0.024902,1.006958,-2.441406,2.441406,3.662109
16667,-0.034790,0.039307,0.896484,-1.892090,2.807617,4.516602
16676,-0.017334,-0.053711,0.888672,-0.183105,2.929688,4.943848
16686,-0.015869,-0.205933,0.872925,0.671387,2.746582,5.371094
16697,-0.000732,-0.076294,1.031494,0.244141,2.380371,5.371094
16706,0.008423,-0.108276,1.039429,-1.098633,2.197266,5.371094
16718,0.002686,0.158936,0.940063,-2.319336,2.685547,6.347656
16727,-0.021606,0.020752,0.851562,-1.342773,2.441406,6.103516
16736,0.027100,-0.079224,0.909058,0.183105,2.136230,5.493164
16746,-0.024536,-0.120972,0.989014,0.427246,1.708984,4.760742
16757,0.037476,-0.049072,1.161011,0.061035,1.220703,3.601074
16766,-0.009033,-0.084839,1.075684,-0.549316,1.037598,2.868652
16776,0.001953,0.012329,0.982788,-0.854492,1.403809,2.502441
16786,-0.027344,-0.026978,0.948364,1.403809,1.342773,1.403809
16797,-0.023315,-0.187378,0.901733,2.380371,1.159668,0.976562
16806,0.029785,-0.115967,1.065186,2.075195,0.671387,0.366211
16816,0.053101,-0.176270,1.122559,1.159668,0.549316,-0.122070
16826,0.008179,-0.011597,1.086914,-0.244141,0.732422,-0.183105
16836,0.002075,0.116577,1.059082,-1.220703,0.793457,-0.366211
16847,0.002563,0.040161,0.912842,1.098633,0.549316,-1.281738
16857,0.014282,-0.141235,1.036377,1.708984,0.305176,-1.586914
16867,0.031616,-0.216797,1.047485,1.037598,-0.122070,-1.831055
16877,0.047363,-0.110962,1.029663,-0.427246,0.183105,-2.075195
16886,0.059937,0.070801,1.063232,-2.197266,0.488281,-1.647949
16896,0.041260,0.090088,0.932495,-2.319336,0.793457,-1.220703
16906,0.008789,0.004761,0.904663,-0.976562,0.610352,-1.525879
16916,0.029419,-0.051880,1.022217,0.183105,0.183105,-2.197266
16927,0.044312,-0.085327,1.061523,0.122070,-0.122070,-2.929688
16937,0.048584,0.028809,1.127441,-1.831055,0.305176,-2.380371
16946,0.043457,0.097412,0.981567,-2.624512,0.671387,-1.831055
16956,0.012695,0.127197,0.913574,-1.953125,1.098633,-1.159668
16966,0.030151,-0.034058,0.981812,-0.549316,0.732422,-0.854492
16977,-0.000488,-0.099731,1.020386,0.366211,0.244141,-1.098633
16986,-0.002808,-0.075928,1.095825,-0.244141,-0.122070,-0.976562
16996,0.018921,-0.051392,1.138794,-1.892090,0.854492,0.610352
17007,-0.019775,0.093994,0.933228,-1.831055,1.403809,1.403809
17017,-0.041748,0.008789,0.938965,-0.549316,1.708984,1.953125
17026,-0.025513,-0.122925,0.959595,0.549316,1.281738,1.647949
17037,-0.017212,-0.162842,0.998901,0.549316,0.732422,1.159668
17046,0.015381,-0.069702,1.094116,-0.305176,0.671387,1.037598
17058,0.006592,-0.052490,1.089722,-1.159668,1.647949,1.831055
17067,-0.032715,0.029785,0.969360,-1.220703,1.770020,2.136230
17077,-0.016479,0.047974,1.001587,-0.244141,2.014160,1.953125
17087,-0.004639,-0.129883,0.998901,1.220703,1.647949,1.770020
17096,-0.011230,-0.126831,1.015869,1.159668,1.159668,1.647949
17106,0.002808,-0.060669,1.088501,0.854492,1.342773,1.586914
17117,-0.012695,-0.019897,1.102905,0.549316,1.647949,2.014160
17126,-0.036377,-0.015991,0.998657,0.305176,2.319336,2.685547
17138,-0.011963,-0.066528,0.918823,1.464844,2.319336,3.112793
17147,0.019897,-0.093750,0.911255,2.258301,2.014160,3.356934
17156,0.024292,-0.235474,0.826172,2.075195,1.708984,3.234863
17167,0.005371,-0.185547,0.828247,0.732422,1.586914,3.540039
17176,0.022339,-0.041260,0.958862,-0.671387,1.770020,3.601074
17186,0.013306,-0.017578,0.899902,-2.136230,2.014160,3.784180
17198,-0.022095,0.057739,0.852905,-3.173828,1.892090,3.479004
17207,-0.041138,-0.083252,0.891113,-2.441406,1.953125,3.417969
17217,-0.017456,0.011963,1.025635,-2.319336,1.953125,3.234863
17226,0.011230,0.002441,1.055298,-2.136230,1.953125,3.601074
17236,0.026245,-0.027222,1.067017,-2.136230,2.197266,3.845215
17247,0.019043,0.021484,1.067871,-2.502441,2.197266,4.028320
17257,0.022095,0.011719,0.966064,-2.319336,2.258301,4.028320
17266,-0.001587,-0.043945,0.921875,-1.708984,2.197266,3.845215
17277,0.011597,-0.059326,1.001343,-0.793457,1.525879,2.807617
17287,0.017212,-0.087646,1.001099,-0.976562,1.037598,2.441406
17296,0.020874,-0.044434,1.055542,-1.159668,1.220703,2.502441
17306,0.016357,-0.125610,1.045288,-1.159668,1.464844,2.502441
17317,-0.003906,-0.043457,1.022339,-1.647949,1.525879,2.502441
17326,0.015991,0.048340,1.033691,-2.014160,1.647949,2.502441
17336,0.004639,-0.050537,0.962891,-1.586914,1.708984,2.563477
17348,0.004395,-0.062866,1.078247,-2.014160,1.281738,2.502441
17357,-0.011841,-0.137207,1.054321,-2.624512,1.525879,3.112793
17366,0.012451,-0.016724,1.083374,-2.624512,1.892090,3.356934
17377,-0.006592,-0.030762,1.038940,-2.868652,1.953125,3.845215
17386,-0.000366,-0.027588,0.985962,-2.929688,2.197266,4.394531
17397,0.007813,-0.045776,0.966064,-2.441406,2.258301,4.699707
17406,0.008301,-0.083862,0.939941,-1.831055,1.953125,5.310059
17418,0.010010,-0.045166,1.003540,-2.685547,2.014160,5.737305
17427,0.009521,0.041016,1.056763,-3.479004,1.892090,5.798340
17436,-0.026978,0.060059,1.039185,-3.723145,1.953125,6.103516
17447,-0.011353,0.057373,1.011230,-3.662109,2.014160,6.042480
17456,-0.023193,0.068726,1.043701,-3.417969,2.258301,5.920410
17467,-0.025635,0.023437,1.015381,-2.624512,2.380371,5.798340
17476,0.008423,-0.004883,1.051270,-2.075195,2.197266,5.310059
17487,0.000854,-0.066528,1.011475,-2.136230,1.770020,4.882812
17497,0.020386,-0.120483,0.965210,-2.014160,1.770020,4.455566
17506,0.018555,-0.059082,0.950684,-2.685547,1.647949,4.272461
17517,0.000122,-0.055176,0.929321,-2.990723,1.525879,4.516602
17527,0.030518,-0.041260,0.842773,-2.868652,1.647949,4.455566
17536,0.032227,-0.065308,0.872925,-2.685547,1.586914,4.638672
17548,0.019897,-0.065918,0.852295,-2.258301,1.586914,5.249023
17557,0.004028,0.019531,1.007446,-2.319336,1.831055,5.493164
17567,0.008789,-0.019043,1.017700,-2.380371,1.708984,5.737305
17577,-0.022095,-0.037476,0.996094,-2.746582,1.647949,5.859375
17586,-0.025879,0.064209,1.026367,-2.990723,1.831055,5.920410
17596,-0.058105,0.017944,0.940918,-2.380371,1.770020,6.103516
17606,-0.011230,-0.067139,0.905396,-1.098633,2.014160,6.225586
17617,-0.023315,-0.109619,0.980347,0.488281,2.319336,6.896973
17627,-0.036255,-0.171875,1.028320,0.183105,2.319336,7.202148
17637,-0.014526,-0.144531,0.994507,0.000000,2.624512,7.080078
17646,-0.009277,-0.025879,1.022583,-0.793457,2.624512,7.751465
17656,0.021362,0.027344,1.020264,-1.220703,2.624512,8.239746
17666,0.004272,0.007080,0.989624,-0.549316,2.746582,8.483887
17677,0.000977,-0.014771,1.023315,0.427246,2.502441,8.666992
17686,0.003052,-0.036621,1.083862,0.488281,2.441406,8.666992
17697,-0.005005,0.011719,1.129028,0.244141,2.929688,9.521484
17707,0.003418,-0.070312,1.064087,0.244141,3.173828,10.070801
17717,0.006714,-0.031616,1.064209,0.122070,3.295898,10.620117
17726,0.018555,0.039551,1.082397,0.122070,3.295898,11.230469
17736,0.001709,-0.048340,0.981323,0.305176,2.868652,11.352539
17746,-0.008667,-0.125732,0.974121,0.915527,2.868652,11.779785
17759,-0.001953,-0.128174,0.971069,0.061035,2.746582,11.779785
17768,-0.004639,-0.123413,0.954224,-0.732422,2.929688,12.207031
17778,0.021973,-0.006348,0.976929,-1.281738,2.746582,12.390137
17787,0.005981,0.064819,0.962158,-1.953125,2.624512,12.145996
17796,0.031128,0.090820,0.958618,-1.770020,2.380371,11.901855
17807,0.037109,0.042603,0.897217,-1.647949,1.892090,11.230469
17817,0.055542,-0.011963,0.966309,-1.098633,1.464844,10.742188
17826,0.026489,-0.012817,0.993896,-0.732422,1.220703,10.437012
17837,0.026123,-0.051025,1.014526,-0.793457,1.281738,10.009766
17847,0.043823,-0.097534,0.996216,-0.793457,1.220703,10.009766
17856,0.025146,-0.109497,1.021729,-0.915527,1.220703,9.582520
17867,0.024780,0.011475,1.026001,-1.831055,0.671387,8.850098
17877,0.046509,0.084595,1.023804,-2.075195,0.427246,8.361816
17886,0.067261,-0.021240,0.993286,-1.464844,0.244141,8.300781
17897,0.059204,-0.039307,1.015747,-1.159668,-0.427246,7.873535
17907,0.076904,-0.069214,1.032959,-1.159668,-0.732422,7.507324
17917,0.069336,-0.128052,1.021606,-0.854492,-0.915527,7.080078
17927,0.065674,-0.090454,0.971680,-0.854492,-1.342773,6.652832
17936,0.058838,-0.029175,0.944580,-1.037598,-1.647949,5.859375
17947,0.075195,-0.048462,0.932007,-0.732422,-1.831055,5.187988
17956,0.046143,-0.045044,0.907349,-0.549316,-2.258301,4.577637
17968,0.062988,-0.112061,0.862915,0.244141,-2.136230,3.417969
17977,0.080322,-0.075928,1.016235,-0.549316,-2.563477,2.624512
17986,0.049438,-0.052979,1.007324,-0.854492,-2.685547,2.014160
17997,0.048340,-0.072388,0.965576,-0.793457,-2.502441,1.708984
18006,0.054443,-0.057495,1.067505,-0.549316,-2.502441,0.976562
18017,0.036011,0.007202,1.017700,-0.671387,-2.746582,0.305176
18027,0.025391,0.006958,1.020996,-0.427246,-3.112793,-0.366211
18037,0.038452,-0.092041,0.986572,0.000000,-3.295898,-1.220703
18048,0.084717,0.001953,1.077393,0.976562,-3.295898,-1.708984
18057,0.052856,-0.051758,1.070679,0.976562,-3.356934,-2.014160
18067,0.066406,-0.134644,1.021851,1.037598,-3.356934,-2.380371
18077,0.082397,-0.061279,1.040283,0.976562,-3.356934,-2.868652
18086,0.091309,0.013794,1.045288,0.671387,-3.540039,-3.417969
18097,0.053955,-0.097290,0.939697,0.671387,-3.723145,-3.662109
18109,0.048828,-0.117798,0.950439,0.610352,-3.845215,-3.479004
18118,0.034424,-0.062744,0.944702,0.000000,-3.784180,-3.295898
18128,0.015991,0.064087,0.958130,-0.854492,-3.417969,-2.929688
18137,0.008179,-0.026367,0.956055,-1.464844,-3.234863,-2.868652
18146,0.005371,-0.088257,0.937622,-2.136230,-2.563477,-2.441406
18157,0.011230,-0.059204,0.983276,-2.502441,-2.624512,-2.746582
18167,0.015381,0.057861,1.039307,-3.417969,-2.685547,-2.990723
18179,0.021729,0.035889,0.965698,-4.394531,-2.380371,-2.807617
18188,0.003906,0.054077,0.919678,-4.028320,-2.136230,-2.380371
18198,0.002319,-0.029175,0.966064,-3.479004,-1.831055,-1.892090
18207,0.021606,-0.010864,1.055664,-3.295898,-1.770020,-1.525879
18217,0.043823,-0.001587,1.082397,-3.479004,-1.708984,-1.220703
18227,0.046509,0.049072,1.075195,-3.479004,-1.464844,-0.549316
18236,0.019409,0.005981,0.995361,-3.173828,-1.159668,-0.183105
18249,-0.009033,0.018311,1.059204,-2.563477,-0.732422,1.281738
18259,-0.016235,-0.041138,1.003296,-2.014160,-0.793457,1.953125
18268,-0.024902,-0.019409,0.981812,-1.708984,-0.610352,2.624512
18278,-0.027100,-0.084961,0.947021,-1.098633,-0.183105,3.601074
18287,-0.038818,-0.081421,0.924561,-1.098633,0.122070,4.577637
18297,-0.021118,-0.084839,0.944824,-1.403809,0.427246,5.432129
18307,-0.027344,-0.063477,1.002441,-1.770020,0.427246,5.859375
18316,-0.045898,-0.042969,1.032471,-2.136230,0.793457,6.469727
18328,-0.052612,0.021851,1.063354,-2.380371,1.342773,6.713867
18337,-0.031372,0.044800,1.080444,-2.319336,1.586914,6.958008
18347,-0.047363,0.024902,1.061768,-2.197266,1.831055,7.263184
18357,-0.010986,-0.074951,0.985718,-1.525879,2.197266,7.873535
18366,-0.002197,-0.085205,1.000000,-1.159668,1.953125,8.239746
18377,0.040039,-0.051270,1.051270,-0.854492,1.892090,8.361816
18389,0.005249,-0.066040,1.000122,-0.793457,2.014160,8.544922
18398,-0.016357,-0.090942,1.006714,-0.610352,2.319336,8.789063
18408,0.020020,-0.052856,1.034668,-0.488281,2.258301,8.850098
18417,-0.005249,-0.036987,1.009155,-0.427246,1.892090,8.666992
18426,0.012939,-0.010376,0.973999,-0.061035,1.647949,8.483887
18437,0.002686,0.006714,0.936401,0.610352,1.464844,8.422852
18447,0.041016,-0.074707,0.934570,1.159668,1.586914,8.300781
18456,0.007813,-0.043701,0.949341,1.037598,1.281738,7.629395
18468,0.017334,-0.038574,0.943237,-0.122070,1.098633,7.446289
18477,0.051636,0.007690,0.965088,-0.610352,1.281738,7.141113
18487,0.025879,-0.042725,0.961304,-0.976562,1.220703,7.080078
18497,0.004761,-0.035645,0.971191,-1.708984,1.220703,7.141113
18507,-0.004028,0.035522,0.993164,-2.380371,1.159668,6.896973
18516,-0.006104,0.035645,0.943237,-2.868652,1.281738,7.263184
18529,0.009521,0.014404,0.948120,-2.502441,1.220703,7.995605
18538,0.013062,-0.066162,1.014404,-2.380371,1.037598,8.422852
18547,0.014038,0.000854,1.075439,-2.746582,1.159668,8.972168
18556,0.028442,-0.034668,1.068481,-3.112793,1.403809,9.643555
18567,0.014526,0.010254,1.022339,-3.234863,1.586914,10.131836
18576,0.027466,-0.105469,1.007935,-2.685547,1.342773,10.192871
18587,0.036255,-0.061157,1.039551,-2.502441,1.037598,9.704590
18596,0.046387,-0.053101,1.065552,-2.868652,0.549316,9.094238
18608,0.028931,0.038086,1.005249,-2.807617,0.061035,9.155273
18617,0.031250,0.006348,1.002808,-2.197266,0.244141,9.155273
18626,0.018311,-0.033325,1.029907,-1.403809,0.549316,8.850098
18637,0.018311,-0.076660,0.985474,-0.976562,0.366211,8.605957
18647,0.022705,-0.071289,0.974609,-1.525879,0.305176,8.239746
18657,0.020630,-0.039063,0.969116,-1.403809,0.122070,7.873535
18669,0.027466,-0.096924,0.962646,-0.488281,0.061035,7.324219
18679,0.032349,-0.119751,0.965820,-0.671387,-0.122070,6.835937
18688,0.020020,-0.050049,0.993896,-1.342773,-0.671387,5.981445
18698,0.038818,-0.019287,0.959839,-1.525879,-0.854492,5.310059
18707,0.062500,-0.053955,0.918457,-0.732422,-0.305176,5.065918
18716,0.066406,-0.074585,0.961670,-0.122070,-0.549316,4.455566
18727,0.075928,-0.143066,0.999634,0.244141,-1.220703,3.540039
18739,0.060669,-0.101685,1.030518,-0.366211,-2.014160,2.319336
18749,0.066284,-0.013428,1.004517,-0.732422,-1.647949,1.953125
18758,0.065552,-0.113281,0.973999,-0.671387,-1.525879,1.708984
18768,0.058472,-0.055542,0.995361,-0.793457,-1.892090,1.159668
18777,0.040527,-0.096069,1.018433,-0.854492,-2.319336,0.549316
18786,0.054077,-0.023560,1.028809,-1.342773,-2.563477,-0.244141
18797,0.072510,-0.036865,1.017578,-1.464844,-2.441406,-0.427246
18807,0.063721,0.004517,1.010986,-1.159668,-2.441406,-1.098633
18818,0.060303,-0.095093,1.005249,-0.671387,-3.051758,-1.770020
18827,0.050781,-0.048828,1.020020,-1.037598,-3.173828,-2.136230
18837,0.067505,-0.038940,1.029175,-1.525879,-3.051758,-2.746582
18847,0.023682,-0.004761,0.999512,-2.075195,-2.929688,-2.685547
18857,0.023682,-0.027100,0.991943,-2.014160,-2.563477,-2.746582
18867,0.017090,-0.000122,1.025513,-2.319336,-2.380371,-2.746582
18877,0.034546,-0.053345,1.053833,-2.258301,-3.112793,-3.417969
18888,0.041016,0.016479,0.984253,-3.112793,-2.807617,-3.479004
18898,0.043945,0.102417,0.963013,-3.051758,-2.380371,-3.356934
18907,0.073120,-0.054321,0.960693,-2.441406,-2.502441,-3.173828
18917,0.043091,-0.017456,1.026733,-2.319336,-2.685547,-3.540039
18927,0.048340,0.011597,1.034790,-2.685547,-2.868652,-3.540039
18937,0.043945,0.014771,0.994019,-3.173828,-2.746582,-3.479004
18948,0.020508,-0.015137,0.932617,-3.173828,-2.258301,-3.051758
18958,-0.000977,-0.036011,0.997803,-2.624512,-2.075195,-2.197266
18968,-0.025146,-0.064819,1.036255,-2.990723,-2.197266,-1.892090
18977,-0.041260,-0.020142,0.998779,-3.417969,-1.953125,-1.159668
18987,-0.015991,0.045288,0.993774,-3.479004,-0.976562,-0.244141
18996,-0.031494,0.017700,0.953003,-2.990723,-0.549316,0.793457
19007,-0.022949,-0.046021,0.950439,-2.197266,-0.366211,1.586914
19017,-0.044800,-0.079346,0.983398,-1.220703,0.061035,2.685547
19028,-0.000488,-0.100464,1.006592,-1.586914,0.244141,3.234863
19038,0.015747,0.059448,1.012573,-2.075195,0.305176,4.089355
19047,-0.006226,-0.041016,1.005005,-1.464844,0.610352,4.516602
19057,-0.022949,-0.083984,0.964966,-1.037598,0.671387,4.516602
19067,-0.025635,-0.109497,1.026611,-0.732422,0.732422,4.638672
19077,0.006104,-0.103638,1.054932,-0.549316,0.793457,4.394531
19087,-0.029907,-0.073120,1.026855,-0.854492,0.732422,4.882812
19098,-0.012939,0.010986,0.965576,-0.427246,1.464844,4.821777
19108,0.002686,-0.023682,0.942383,0.061035,1.647949,4.638672
19117,-0.016357,-0.104370,0.969238,0.671387,1.586914,4.455566
19127,0.016724,-0.053223,1.020508,0.671387,1.525879,4.516602
19137,0.029663,-0.127686,1.015015,0.366211,1.464844,4.516602
19147,0.028931,0.030151,0.996582,-0.610352,1.586914,4.394531
19157,0.046753,-0.013184,1.002686,-0.061035,1.708984,4.272461
19168,0.024902,-0.038330,1.033691,0.183105,1.281738,3.845215
