timestamp,accX,accY,accZ,gyrX,gyrY,gyrZ
11,-0.025635,-0.148560,1.004517,0.549316,6.286621,-0.976562
20,-0.031982,-0.159790,0.972778,0.183105,6.408691,0.366211
32,-0.028564,-0.119995,0.994995,-0.671387,6.286621,2.563477
42,-0.068481,-0.116455,1.010986,-0.854492,7.080078,3.723145
51,-0.099609,-0.152588,1.017578,-0.976562,7.385254,4.577637
61,-0.085815,-0.096924,1.052002,-0.976562,7.751465,4.394531
70,-0.072876,-0.122559,1.070801,-0.915527,7.812500,4.394531
80,-0.052979,-0.118042,1.057373,-0.976562,7.446289,3.845215
91,-0.062622,-0.092407,1.060791,-1.464844,7.141113,3.662109
100,-0.076172,-0.102783,1.039917,-1.037598,6.347656,3.295898
112,-0.060791,-0.087280,1.024902,-1.037598,7.568359,3.723145
122,-0.026611,-0.111816,1.011719,-0.915527,8.117676,4.394531
131,-0.020142,-0.106567,1.026001,-1.037598,8.300781,5.126953
141,0.001587,-0.090454,1.025879,-1.159668,8.239746,5.371094
150,0.004761,-0.069702,1.056030,-1.220703,7.934570,5.249023
161,0.040161,-0.156372,1.015869,-1.159668,7.751465,5.432129
173,0.062622,-0.149414,0.927734,-1.403809,7.080078,6.408691
182,0.025635,-0.154419,0.881104,-1.770020,6.896973,7.446289
192,-0.005615,-0.161499,0.923828,-2.014160,7.080078,8.605957
202,-0.036621,-0.167725,0.963135,-2.502441,7.263184,9.765625
211,-0.061157,-0.109375,1.037964,-2.746582,7.324219,10.498047
221,-0.103394,-0.081543,1.073608,-2.990723,7.446289,10.742188
231,-0.134155,-0.074463,1.046997,-2.441406,7.324219,10.131836
240,-0.103271,-0.094482,1.057617,-1.831055,7.385254,8.850098
252,-0.052002,-0.121704,1.062378,-0.854492,6.835937,5.187988
262,-0.051514,-0.142700,1.041870,-0.671387,6.774902,3.601074
271,-0.024658,-0.159668,1.049927,-0.366211,6.469727,2.685547
281,-0.013794,-0.152954,0.998413,0.061035,6.713867,1.831055
291,-0.028198,-0.164185,0.962402,0.427246,6.896973,1.220703
301,-0.010010,-0.142944,0.941528,0.305176,7.141113,0.854492
310,-0.036987,-0.226074,0.937744,0.671387,7.202148,1.037598
322,-0.074463,-0.192017,0.947510,0.671387,7.507324,1.647949
331,-0.029907,-0.165405,0.905396,0.732422,8.056641,2.441406
341,-0.034180,-0.133667,0.948608,0.427246,8.239746,3.051758
351,-0.017212,-0.120483,1.005859,0.427246,8.178711,3.662109
361,-0.013428,-0.128540,1.038208,0.915527,8.972168,4.638672
371,-0.002197,-0.140869,1.039063,0.976562,8.911133,5.004883
381,-0.015991,-0.143188,1.000122,1.037598,8.911133,5.737305
392,0.247559,-0.158569,0.956787,1.159668,7.507324,6.286621
402,0.391479,-0.201538,0.972290,1.220703,4.882812,4.882812
411,0.270752,-0.105347,0.959595,0.732422,2.197266,4.028320
421,-0.022827,-0.015991,1.115601,0.610352,2.868652,4.211426
431,-0.014893,-0.039673,1.156738,0.854492,6.713867,6.103516
441,-0.020996,-0.155518,1.005859,1.220703,8.972168,7.934570
453,-0.116455,-0.201172,0.884521,0.122070,4.943848,8.361816
463,-0.084351,-0.120728,0.960205,-0.366211,4.577637,11.047363
472,-0.051758,-0.052979,1.078369,-0.427246,5.432129,14.465332
482,-0.053955,-0.129517,1.097412,0.000000,6.774902,18.188477
491,-0.010010,-0.139893,1.061890,0.427246,7.690430,21.118164
501,0.036255,-0.118530,1.041138,0.732422,8.117676,22.399902
511,0.115723,-0.147095,1.009277,0.854492,7.568359,22.583008
521,0.112915,-0.167847,1.010620,1.037598,6.713867,22.277832
532,0.097778,-0.199097,1.069824,1.403809,4.760742,22.338867
541,0.108643,-0.277710,0.960571,1.342773,3.540039,22.583008
550,0.102173,-0.178101,0.962769,1.403809,2.624512,22.766113
561,0.049805,-0.114380,0.987183,1.342773,1.953125,23.620605
571,0.023437,-0.209961,0.931152,1.342773,2.258301,24.902344
581,-0.036011,-0.236816,0.860962,0.854492,2.319336,25.878906
593,-0.077881,-0.113892,0.895752,-0.732422,2.563477,27.954102
603,-0.036255,-0.111572,0.915039,-1.220703,2.929688,28.686523
612,-0.040039,-0.103271,0.951904,-1.831055,2.685547,28.808594
622,0.002319,-0.099731,1.010376,-1.953125,2.197266,28.564453
631,-0.047607,-0.085083,1.020020,-1.586914,1.831055,27.954102
641,-0.047363,-0.130127,0.984985,-1.525879,1.403809,27.282715
651,-0.001343,-0.118774,1.051270,-1.464844,1.037598,26.000977
663,0.042114,-0.009033,1.055908,-0.366211,-0.305176,23.925781
673,0.097290,-0.097046,1.030762,0.061035,-0.610352,23.193359
682,0.112549,-0.118164,1.039429,0.610352,-0.976562,22.460937
692,0.067139,-0.167847,1.002930,0.793457,-2.014160,21.240234
701,0.044434,-0.209839,0.949463,0.549316,-2.990723,19.897461
712,0.030518,-0.151978,0.993774,0.244141,-3.417969,18.554687
721,0.028564,-0.115112,1.062378,-0.122070,-3.845215,17.211914
731,0.043457,-0.158081,1.025391,-0.366211,-4.089355,0.427246
742,0.054199,-0.090820,1.018311,-0.427246,-4.882812,13.854980
752,0.027832,-0.157227,1.033325,-0.305176,-5.432129,12.817383
762,0.008545,-0.205566,0.981689,-0.488281,-5.737305,11.657715
771,0.001831,-0.239990,0.968750,-0.549316,-5.676270,10.498047
781,-0.004761,-0.155640,0.949463,-0.427246,-6.103516,9.399414
791,0.006348,-0.130493,1.017578,-0.305176,-6.469727,8.056641
803,0.015381,-0.200317,0.993286,-0.183105,-6.713867,6.042480
813,0.036377,-0.182129,0.964233,-0.549316,-7.019043,4.882812
822,0.085327,-0.145996,0.998901,-0.366211,-7.385254,3.967285
832,0.122070,-0.234131,0.984863,-0.122070,-7.751465,2.685547
841,0.149902,-0.325928,0.944580,-0.244141,-8.300781,1.770020
851,0.127563,-0.243042,0.879639,-0.854492,-8.911133,0.854492
861,0.108032,-0.160156,0.885742,-1.525879,-9.521484,-0.305176
871,0.141479,-0.117920,1.029663,-2.197266,-9.887695,-2.258301
883,0.121460,-0.175171,1.039551,-2.014160,-10.681152,-3.295898
892,0.132690,-0.183105,0.993652,-1.647949,-11.352539,-4.699707
902,0.118408,-0.140259,0.982910,-2.014160,-11.718750,-5.798340
911,0.111206,-0.150146,0.948853,-2.441406,-12.207031,-7.202148
921,0.075195,-0.008545,0.936401,-2.868652,-12.573242,-8.300781
931,0.092529,-0.189209,1.016724,-2.685547,-12.817383,-9.643555
941,0.076050,-0.295044,0.992187,-3.234863,-13.488770,-12.756348
953,0.025513,-0.042847,0.953125,-4.089355,-13.610840,-14.404297
963,0.085205,-0.225708,1.078613,-4.089355,-13.732910,-15.747070
972,0.107910,-0.188721,1.007080,-3.967285,-13.671875,-16.479492
982,0.089966,-0.075195,1.083862,-3.906250,-13.671875,-16.845703
991,0.107178,-0.091309,1.028564,-3.051758,-13.732910,-17.333984
1001,0.076294,-0.133911,0.953735,-2.746582,-13.793945,-17.639160
1013,0.098511,-0.174683,1.006592,-2.746582,-13.671875,-19.714355
1023,0.105713,-0.187622,1.084106,-1.953125,-13.916016,-20.141602
1033,0.061523,-0.145630,1.072021,-1.098633,-14.099121,-20.324707
1042,0.039307,-0.102173,1.006836,-0.488281,-13.671875,-20.263672
1052,-0.003906,-0.210693,0.969482,0.061035,-13.732910,-20.568848
1062,-0.029297,-0.286255,0.910156,0.671387,-13.488770,-20.568848
1071,-0.024902,-0.180420,0.997070,0.793457,-12.939453,-20.935059
1083,-0.062256,-0.199829,0.903320,0.610352,-12.207031,-21.362305
1093,-0.056519,-0.235229,0.931519,0.549316,-10.986328,-21.606445
1102,-0.058716,-0.225098,0.911499,-0.061035,-10.742188,-22.583008
1112,-0.032715,-0.186279,0.997192,-0.366211,-10.437012,-23.315430
1122,0.006470,-0.089233,0.989868,-0.671387,-10.192871,-23.559570
1131,-0.008545,-0.138550,0.947144,-0.732422,-9.643555,-23.559570
1143,0.011963,-0.229858,0.963867,-1.220703,-8.239746,-23.437500
1153,-0.001953,-0.081543,1.027710,-1.770020,-8.239746,-23.559570
1162,0.021362,-0.090820,1.018555,-1.586914,-7.690430,-23.376465
1172,-0.002197,-0.114502,0.953979,-1.586914,-7.446289,-23.071289
1182,-0.000977,-0.126831,1.007202,-1.647949,-7.263184,-22.583008
1191,-0.011108,-0.082031,1.068604,-1.708984,-6.958008,-21.484375
1201,0.008057,-0.064331,1.030273,-1.708984,-6.286621,-20.141602
1211,-0.046997,-0.083374,1.013184,-1.892090,-5.554199,-18.798828
1223,-0.094116,-0.024780,1.025635,-2.075195,-4.943848,-16.113281
1233,-0.127197,-0.030273,0.998169,-2.075195,-3.662109,-15.197754
1242,-0.121582,-0.066772,1.022827,-1.831055,-3.295898,-14.526367
1252,-0.157593,-0.107300,0.985596,-1.220703,-2.563477,-14.038086
1262,-0.116577,-0.054810,1.048462,-1.464844,-1.708984,-13.610840
1271,-0.116211,0.018677,1.035156,-1.281738,-0.976562,-13.000488
1283,-0.113159,-0.025146,1.044312,-0.366211,-0.610352,-12.634277
1292,-0.083740,-0.177856,0.934204,-0.549316,-0.732422,-12.268066
1302,-0.087646,-0.164185,0.973755,-0.183105,-0.427246,-11.535645
1312,-0.076904,-0.139771,0.949097,0.122070,0.244141,-10.559082
1322,-0.097290,-0.154419,0.971802,0.549316,1.220703,-9.399414
1331,-0.073364,-0.156616,0.973755,0.610352,2.136230,-8.300781
1342,-0.004639,-0.126099,1.096191,0.854492,3.173828,-7.690430
1352,-0.047119,-0.089722,1.046875,1.159668,3.356934,-7.202148
1361,-0.214111,-0.139038,1.020752,2.136230,3.479004,-7.324219
1373,-0.058960,-0.262573,0.980469,2.563477,3.540039,-7.751465
1382,-0.108398,-0.251465,0.896362,2.685547,3.173828,-8.422852
1392,-0.099121,-0.231445,0.857300,2.502441,3.234863,-8.239746
1402,-0.099609,-0.250488,0.892700,2.136230,4.272461,-7.873535
1411,-0.126343,-0.206299,0.861694,1.464844,4.882812,-8.300781
1422,-0.090942,-0.156006,0.985474,0.854492,4.882812,-8.666992
1431,-0.055176,-0.103516,1.022583,0.366211,5.310059,-9.460449
1442,-0.016968,-0.108887,1.033325,0.183105,5.310059,-9.643555
1452,0.085571,-0.113281,1.059326,0.305176,5.065918,-9.948730
1461,0.074707,-0.103638,1.022339,-0.244141,4.638672,-10.314941
1472,0.077881,-0.073486,1.028076,-0.854492,4.028320,-10.681152
1481,0.051758,-0.037720,1.054688,-0.732422,3.845215,-10.803223
1493,0.101440,-0.064087,1.046509,-0.976562,3.662109,-11.474609
1503,0.063110,-0.128906,0.983032,-1.220703,3.173828,-12.084961
1512,0.016235,-0.099976,0.984741,-1.464844,2.502441,-12.329102
1522,0.000244,-0.127686,1.041626,-1.281738,2.319336,-12.451172
1532,0.038086,-0.166260,0.941162,-0.976562,2.807617,-12.634277
1541,0.037109,-0.196899,0.990967,-1.098633,2.868652,-12.634277
1551,-0.008057,-0.113647,1.031128,-1.037598,2.685547,-12.756348
1562,-0.009888,-0.100708,1.054199,-0.549316,2.563477,-12.878418
1572,-0.014526,-0.147217,1.018433,0.610352,2.990723,-12.390137
1581,0.062012,-0.309204,0.770874,0.488281,3.295898,-11.779785
1592,0.056396,-0.346069,0.760376,-0.488281,3.417969,-10.986328
1601,-0.014526,-0.212036,0.873169,-1.586914,3.295898,-10.070801
1612,0.020874,-0.173950,0.821045,-1.831055,3.173828,-9.582520
1622,0.014771,-0.162354,0.934448,-2.197266,3.845215,-8.422852
1632,0.039551,-0.105591,1.008545,-2.197266,3.906250,-7.812500
1643,-0.030273,-0.179687,1.012329,-1.953125,3.662109,-7.263184
1653,-0.049561,-0.079346,1.001343,-1.708984,3.845215,-7.263184
1662,-0.031860,-0.149048,0.979614,-1.403809,4.150391,-7.385254
1672,-0.034546,-0.186523,1.015503,-1.037598,4.577637,-7.446289
1682,-0.052002,-0.096680,1.087891,-1.037598,4.455566,-7.568359
1691,-0.063599,-0.127686,1.079834,-0.671387,4.516602,-7.690430
1704,-0.025879,-0.178101,0.943848,0.000000,5.004883,-7.873535
1714,-0.043823,-0.173340,0.948120,-0.366211,5.004883,-7.812500
1723,-0.045532,-0.222290,0.963623,-0.976562,5.126953,-7.568359
1733,-0.096313,-0.154419,1.000610,-1.342773,5.554199,-7.202148
1743,-0.077271,-0.145020,0.991577,-1.464844,6.103516,-7.080078
1752,-0.100098,-0.206055,0.921387,-1.525879,6.347656,-7.080078
1762,-0.050049,-0.213623,0.906982,-2.197266,6.713867,-7.324219
1772,-0.051514,-0.159180,0.898926,-3.112793,6.591797,-7.690430
1783,-0.064819,-0.096191,0.936035,-4.211426,7.080078,-7.629395
1793,-0.045532,-0.112427,0.974121,-4.211426,7.690430,-7.324219
1803,-0.050049,-0.109619,1.028687,-4.028320,8.300781,-7.202148
1813,-0.030762,-0.093750,1.018677,-3.967285,8.422852,-6.835937
1822,-0.000732,-0.098755,1.013916,-3.723145,8.605957,-6.347656
1832,0.015259,-0.072510,0.999390,-3.601074,8.605957,-5.615234
1843,0.028687,-0.120483,0.946777,-3.173828,8.666992,-3.173828
1853,0.029053,-0.139526,0.964600,-3.234863,8.728027,-1.586914
1863,0.047241,-0.126343,0.977539,-3.234863,8.422852,-0.244141
1872,0.052612,-0.135986,0.968018,-3.234863,8.483887,1.708984
1882,0.052734,-0.049805,1.006958,-2.868652,8.789063,3.540039
1892,0.040405,-0.118652,1.008667,-2.624512,8.972168,5.065918
1902,0.036499,-0.077881,1.060547,-2.624512,9.033203,6.347656
1911,0.008179,-0.047974,1.057861,-2.319336,9.155273,7.507324
1923,0.040039,-0.090698,1.073975,-2.014160,8.972168,8.911133
1932,-0.005981,-0.072998,1.070557,-1.831055,8.056641,9.765625
1942,0.008057,-0.086304,1.058960,-1.647949,7.629395,10.437012
1952,-0.028931,-0.016724,1.113525,-1.342773,7.324219,11.474609
1962,-0.023804,-0.038940,1.071289,-0.793457,7.568359,12.634277
1972,-0.060791,-0.071655,1.018311,-0.793457,7.507324,13.671875
1981,-0.107910,0.003662,1.051270,-0.183105,7.690430,13.854980
1993,-0.147461,-0.142944,0.916870,0.183105,8.056641,14.221191
2003,-0.113892,-0.030640,0.982910,0.000000,8.056641,14.038086
2013,-0.070435,-0.098511,0.936890,0.061035,7.934570,14.038086
2022,-0.063843,-0.252319,0.884277,0.000000,7.812500,14.343262
2032,-0.063477,-0.193848,0.869141,-0.732422,7.629395,14.831543
2041,-0.025879,-0.109741,0.895752,-1.525879,7.385254,15.258789
2053,0.019043,-0.119507,0.906006,-1.708984,7.019043,17.089844
2063,0.054321,-0.086060,0.998901,-1.831055,6.530762,18.188477
2073,0.046143,-0.085449,0.956055,-2.258301,6.164551,19.348145
2082,0.054565,-0.094849,0.987549,-2.441406,5.737305,20.629883
2092,0.054687,-0.053589,1.012695,-2.258301,6.164551,22.155762
2102,0.007935,-0.063843,1.029053,-2.380371,5.981445,23.254395
2112,-0.025269,-0.036377,0.978027,-2.685547,5.493164,23.864746
2124,-0.071655,-0.107666,0.952759,-2.197266,4.760742,24.169922
2134,-0.088501,-0.077515,0.970825,-2.746582,4.333496,23.742676
2144,-0.088379,-0.066528,1.008789,-2.807617,3.967285,23.254395
2153,-0.078003,-0.079102,1.014526,-2.502441,3.906250,22.583008
2163,-0.030762,-0.083984,1.008179,-1.586914,3.662109,22.338867
2172,-0.003540,-0.211182,0.997070,-1.220703,3.051758,21.423340
2181,0.008057,-0.135376,1.029785,-1.098633,2.319336,20.751953
2194,0.058105,-0.119019,1.183228,-0.610352,1.037598,18.615723
2204,0.058105,-0.060791,1.211182,0.427246,0.671387,17.822266
2213,0.068604,-0.181885,1.140381,1.220703,0.305176,17.028809
2223,0.129028,-0.173096,1.115112,2.014160,-0.549316,15.808105
2232,0.140137,-0.306152,1.028809,2.685547,-1.831055,14.587402
2241,0.133789,-0.286011,0.944702,2.990723,-2.746582,13.366699
2252,0.103516,-0.307129,0.901001,3.051758,-3.784180,12.145996
2262,0.136841,-0.359741,0.914429,2.441406,-4.272461,10.803223
2273,0.122803,-0.130127,1.052734,1.281738,-5.432129,8.178711
2283,0.065674,-0.143311,0.986084,1.098633,-6.286621,7.080078
2292,0.062622,-0.207764,0.987183,0.854492,-6.774902,5.981445
2302,0.061035,-0.252075,1.009033,0.305176,-6.835937,4.638672
2313,0.069946,-0.094971,0.983276,-0.549316,-7.263184,3.112793
2322,0.090088,-0.144653,0.912109,-0.793457,-8.239746,1.586914
2332,0.096191,-0.219116,0.879517,-1.098633,-8.850098,-0.244141
2343,0.077026,-0.135742,0.970825,-2.136230,-9.948730,-3.662109
2353,0.114746,-0.165894,1.001099,-2.380371,-9.948730,-5.126953
2362,0.066284,-0.154785,0.999146,-2.136230,-10.192871,-5.981445
2372,0.046631,-0.149536,0.891235,-1.892090,-10.681152,-6.530762
2383,0.067993,-0.147949,0.946899,-1.831055,-10.742188,-6.774902
2393,0.092285,-0.161377,0.998901,-2.136230,-10.803223,-6.835937
2402,0.042114,-0.106079,0.969604,-1.831055,-11.047363,-7.507324
2412,0.008789,-0.161621,0.910278,-1.037598,-10.864258,-7.812500
2422,-0.057373,-0.286255,0.861694,-1.220703,-10.314941,-8.728027
2432,-0.061157,-0.157471,0.882324,-1.220703,-10.070801,-10.131836
2443,-0.095459,-0.203369,0.889771,-1.525879,-9.948730,-11.413574
2452,-0.081787,-0.132446,0.897461,-1.831055,-9.460449,-12.634277
2462,-0.068848,-0.160278,0.961304,-2.075195,-9.033203,-13.427734
2472,-0.006958,-0.094849,1.000732,-1.831055,-8.300781,-14.221191
2483,-0.006348,-0.180664,0.997925,-1.281738,-7.446289,-14.038086
2493,0.001099,-0.181030,1.049438,-1.159668,-6.896973,-13.854980
2503,0.017700,-0.198853,0.989624,-0.976562,-6.408691,-13.854980
2513,0.023926,-0.108398,0.980591,-1.159668,-6.103516,-13.916016
2523,-0.018188,-0.217041,0.938477,-0.732422,-5.676270,-13.610840
2532,-0.012939,-0.091675,1.076050,-0.915527,-5.249023,-13.854980
2542,-0.042236,-0.166992,1.023804,-1.159668,-4.760742,-13.000488
2554,-0.091919,-0.113647,1.021851,-1.892090,-3.173828,-12.329102
2564,-0.092529,-0.017212,1.151733,-2.502441,-2.746582,-11.352539
2573,-0.059937,0.013062,1.114624,-2.990723,-2.258301,-10.803223
2583,-0.035645,0.084106,1.131104,-3.540039,-1.831055,-10.192871
2592,-0.003052,0.080322,1.155029,-3.479004,-1.403809,-9.521484
2602,-0.023926,0.013428,1.127197,-2.990723,-0.854492,-8.666992
2615,-0.043213,-0.018433,1.086792,-2.136230,-0.366211,-7.995605
2624,-0.029907,-0.057129,1.046631,-1.770020,-0.305176,-7.812500
2634,-0.033325,-0.154785,0.956421,-1.525879,-0.366211,-7.446289
2644,-0.077637,-0.080688,0.940186,-2.075195,-0.244141,-6.896973
2653,-0.044922,-0.112793,0.894775,-2.502441,0.000000,-6.347656
2663,-0.080811,-0.085815,0.965454,-2.868652,0.671387,-5.493164
2672,-0.075317,-0.100342,0.954590,-2.685547,1.281738,-4.272461
2682,-0.069336,-0.152954,0.903198,-2.502441,2.258301,-2.746582
2693,-0.076416,-0.209351,0.999023,-1.708984,2.807617,-1.403809
2703,-0.056641,-0.124390,0.979004,-1.098633,2.746582,-1.159668
2713,-0.043091,-0.270752,0.889282,-0.061035,2.746582,-0.854492
2722,-0.027832,-0.292358,0.840088,0.122070,2.502441,-0.854492
2732,-0.093872,-0.281006,0.919312,0.061035,2.624512,-0.793457
2743,-0.097290,-0.170776,1.000610,-0.488281,3.051758,-0.793457
2752,-0.023926,-0.086426,1.112183,15.197754,4.272461,-1.892090
2764,-0.039551,-0.125122,1.030029,0.488281,4.150391,-3.112793
2773,-0.006226,-0.153687,0.982910,1.098633,3.784180,-4.394531
2783,0.027832,-0.141235,1.020752,1.342773,3.356934,-5.737305
2792,0.063477,-0.091064,0.999512,1.586914,2.746582,-6.408691
2803,0.087158,-0.100952,1.076904,2.197266,2.685547,-6.408691
2812,0.046875,-0.161011,1.011719,2.624512,2.319336,-5.981445
2824,0.094116,-0.275513,0.911865,3.845215,2.197266,-4.821777
2834,0.130371,-0.256348,0.886108,3.173828,2.075195,-3.662109
2843,0.066772,-0.237305,0.908447,2.014160,1.953125,-2.868652
2853,0.033203,-0.119507,0.990845,1.342773,1.464844,-2.685547
2862,0.012207,-0.180298,0.947632,1.403809,1.708984,-2.685547
2873,-0.007446,-0.192627,1.033813,1.403809,2.075195,-3.356934
2882,-0.037598,-0.215820,0.987427,1.220703,1.831055,-4.516602
2895,0.015625,-0.119141,0.957397,0.366211,1.892090,-7.202148
2904,0.038330,-0.058472,0.980103,0.305176,1.953125,-7.263184
2914,0.028931,-0.161987,0.973389,0.366211,2.014160,-7.202148
2923,0.022339,-0.114136,1.021851,-0.305176,2.014160,-7.080078
2933,0.049316,-0.094482,0.984985,-0.549316,2.258301,-6.713867
2942,0.041382,-0.122681,0.988037,-0.976562,2.136230,-6.591797
2953,0.037842,-0.166138,0.962280,-1.586914,2.136230,-6.408691
2962,0.030273,-0.077271,1.114380,-1.647949,2.014160,-6.530762
2972,-0.003052,-0.040039,1.082642,-1.281738,2.136230,-6.225586
2983,-0.002563,-0.243042,1.029419,-1.037598,2.014160,-5.920410
2992,-0.028320,-0.151611,1.025146,-1.464844,2.319336,-5.249023
3002,-0.021484,-0.244507,0.948364,-1.708984,2.624512,-4.272461
3013,-0.003296,-0.109619,0.954590,-1.647949,3.112793,-3.295898
3022,0.000854,-0.238770,0.852905,-1.281738,3.479004,-2.380371
3035,-0.031616,-0.188232,0.955933,-2.014160,3.540039,-0.976562
3045,-0.028442,-0.056152,1.029175,-2.197266,4.211426,-0.549316
3054,-0.038940,-0.136475,0.990723,-1.770020,4.333496,-0.549316
3064,-0.019653,-0.058228,1.033569,-1.708984,4.394531,-0.671387
3073,0.002075,-0.180420,0.981079,-1.220703,4.150391,-0.671387
3083,0.071167,-0.098267,1.049072,-1.037598,3.845215,-0.976562
3092,0.060791,-0.214233,0.916504,-0.610352,3.417969,-0.915527
3104,0.123901,-0.169189,0.922607,-1.098633,3.234863,-0.183105
3114,0.129517,-0.053711,0.976685,-2.441406,2.197266,0.244141
3123,0.125854,-0.206055,0.982910,-2.258301,1.953125,0.671387
3133,0.111572,-0.187378,0.913574,-2.197266,1.708984,1.037598
3142,0.089478,-0.149048,0.848511,-3.051758,1.098633,0.976562
3153,0.114502,-0.082764,0.861694,-3.662109,0.549316,0.976562
3162,0.103516,-0.106445,0.788208,-4.394531,-0.122070,1.159668
3175,0.025879,-0.021851,1.033203,-4.821777,-0.183105,1.525879
3185,-0.004761,0.054932,1.035645,-4.211426,0.183105,1.586914
3194,0.006348,-0.159180,0.997070,-3.417969,0.366211,1.831055
3203,0.027466,-0.083008,1.128052,-3.234863,0.000000,1.586914
3213,-0.061768,-0.101929,1.007446,-3.356934,-0.732422,1.464844
3223,-0.054443,0.048462,1.020508,-3.051758,-1.159668,1.708984
3232,-0.063721,-0.083984,1.004883,-2.380371,-0.976562,2.685547
3244,-0.080322,-0.134766,1.045410,-1.892090,-0.305176,4.760742
3253,-0.067749,-0.102783,1.116333,-2.075195,0.610352,5.493164
3263,-0.070557,-0.069336,1.088135,-2.075195,0.732422,6.164551
3273,-0.046631,-0.144287,0.966064,-1.647949,1.220703,6.286621
3282,-0.003540,-0.257690,0.945068,-1.220703,0.732422,6.713867
3293,-0.003418,-0.428467,0.608643,-1.159668,0.000000,6.896973
3303,0.029907,-0.475952,0.409790,-2.502441,-0.427246,7.080078
3312,0.061523,-0.467163,0.351440,-10.375977,-0.915527,6.347656
3324,0.050903,0.483887,1.440308,-12.512207,-0.732422,6.530762
3333,0.076782,1.165405,2.526001,-10.498047,-0.976562,6.652832
3343,-0.030762,0.494873,1.959839,-2.319336,-1.403809,8.605957
3352,-0.294067,-0.700195,0.952393,4.394531,-0.061035,10.803223
3363,-0.042114,-0.735840,0.891968,3.540039,3.845215,11.840820
3372,0.160278,-0.430786,0.692505,1.281738,2.258301,10.070801
3384,0.068848,-0.398926,0.316406,-1.037598,-6.164551,1.708984
3394,0.178101,-0.150269,0.611572,-4.394531,-4.577637,0.793457
3404,0.137939,0.089233,1.071533,-6.225586,-3.479004,2.319336
3413,0.019775,0.237305,1.277466,-5.859375,-3.723145,3.051758
3423,0.050049,0.003662,1.323608,-4.028320,-3.356934,4.577637
3432,-0.044434,-0.340454,1.017944,-3.784180,-2.807617,5.126953
3443,-0.021362,-0.191772,0.958496,-4.882812,-3.417969,3.112793
3452,-0.015991,-0.191895,0.901001,-5.981445,-5.249023,-0.976562
3464,0.098877,-0.031128,1.046997,-5.004883,-6.164551,-1.831055
3474,0.118286,-0.171997,1.088013,-3.784180,-7.141113,-2.075195
3483,0.048096,-0.237061,1.019287,-3.234863,-6.896973,-1.647949
3493,-0.008057,-0.182495,0.988647,-3.112793,-6.347656,-1.403809
3503,0.019897,-0.058594,1.094604,-2.319336,-5.737305,-1.159668
3513,0.007446,-0.286621,0.947632,-0.976562,-5.737305,-1.892090
3522,0.011963,-0.170166,1.016113,-0.122070,-6.835937,-4.089355
3534,-0.002319,-0.261841,0.928345,-0.976562,-7.324219,-5.432129
3544,0.002197,-0.054199,1.069458,-1.525879,-7.385254,-5.737305
3553,-0.015747,-0.117798,0.982422,-1.342773,-7.141113,-5.676270
3563,-0.045654,-0.076294,0.996094,-0.915527,-6.469727,-4.760742
3573,-0.059937,-0.269653,0.936401,-0.793457,-5.676270,-3.601074
3583,-0.075195,-0.165649,0.993164,-1.464844,-4.821777,-3.173828
3592,-0.001953,-0.072388,1.065674,-2.746582,-5.126953,-3.479004
3604,0.003662,-0.031250,1.064453,-2.380371,-4.943848,-3.601074
3614,-0.058105,-0.026978,0.975464,-2.075195,-4.760742,-3.723145
3623,-0.013794,0.150879,1.065552,-0.915527,-4.333496,-3.723145
3633,-0.032959,-0.334595,0.923706,1.464844,-4.272461,-3.112793
3642,-0.059326,-0.531738,0.857544,2.624512,-4.272461,-3.295898
3653,-0.132812,-0.168213,0.843506,2.014160,-4.394531,-4.028320
3662,-0.157959,-0.609131,0.754639,-1.159668,-3.540039,-5.371094
3672,-0.162109,0.076538,1.128052,-5.065918,-2.807617,-6.286621
3687,-0.004883,0.263062,1.233887,-6.530762,-1.525879,-5.859375
3697,-0.067261,0.067139,1.166870,-6.042480,0.671387,-4.882812
3705,-0.118164,0.046753,0.818115,-6.042480,0.671387,-4.882812
3715,-0.136719,0.169678,0.874390,-2.014160,-0.793457,-5.493164
3725,0.015747,-0.237915,1.051025,-0.915527,-1.770020,-7.019043
3734,-0.048462,-0.157104,1.041260,-1.159668,-2.624512,-9.216309
3744,-0.008301,-0.008057,1.033081,-1.159668,-2.319336,-10.559082
3754,0.003662,0.027222,1.063232,-0.671387,-1.586914,-11.596680
3764,-0.031738,-0.185669,0.879150,-0.305176,-1.037598,-12.329102
3774,-0.056396,-0.079468,0.983398,-0.427246,-0.549316,-12.390137
3783,0.039673,-0.170532,0.962646,-0.793457,-0.366211,-12.756348
3793,0.050171,-0.112793,0.929810,-1.586914,-0.671387,-13.183594
3803,0.073853,0.020386,1.000732,-2.319336,-1.403809,-13.305664
3812,0.051880,-0.056030,0.957153,-2.197266,-0.976562,-13.122559
3823,0.034790,-0.225952,0.920410,-2.014160,-0.488281,-12.634277
3833,-0.006348,-0.163086,0.944458,-2.441406,-0.183105,-12.329102
3842,-0.001099,-0.116089,0.970581,-2.624512,0.183105,-11.779785
3853,-0.053467,-0.131836,0.921509,-2.441406,0.549316,-11.413574
3863,-0.069702,-0.072510,1.053345,-2.563477,0.793457,-11.596680
3873,-0.083862,-0.173340,1.014404,-2.075195,2.014160,-11.962891
3883,-0.092651,-0.056396,1.161743,-2.014160,2.441406,-12.451172
3893,-0.053955,-0.089844,1.159790,-1.953125,2.868652,-13.122559
3903,-0.025391,-0.092041,1.067505,-1.159668,2.685547,-13.488770
3913,0.014771,-0.022583,1.068481,-0.488281,2.746582,-13.549805
3923,0.007813,-0.268311,0.895264,0.183105,3.112793,-12.878418
3933,0.052002,-0.151611,0.961914,-0.122070,3.601074,-11.413574
3943,0.093018,-0.176636,0.905396,-1.281738,3.723145,-10.314941
3953,0.010986,-0.020020,0.974487,-1.831055,4.211426,-9.826660
3963,-0.016602,-0.158325,0.968750,-1.892090,4.516602,-9.094238
3973,-0.036499,-0.011353,1.063965,-1.708984,4.882812,-8.728027
3983,-0.033691,-0.125366,1.164429,-1.342773,4.821777,-8.728027
3994,-0.077271,-0.188354,1.008911,-1.098633,4.943848,-8.483887
4003,-0.006470,0.066284,1.110107,0.732422,5.859375,-7.446289
4013,0.023926,-0.078979,1.039551,1.403809,6.286621,-6.896973
4024,-0.096436,0.015259,1.023926,1.525879,6.713867,-6.286621
4033,-0.046387,-0.190674,1.004883,1.953125,7.385254,-5.310059
4043,-0.077637,-0.292114,0.829224,1.647949,7.629395,-4.516602
4053,-0.038086,-0.010986,0.977417,1.525879,8.361816,-3.540039
4063,-0.008179,-0.078979,0.974609,1.220703,8.850098,-2.319336
4073,-0.027588,-0.238647,0.903809,1.098633,9.094238,-1.464844
4085,-0.027954,-0.227783,1.064819,1.892090,8.911133,-0.122070
4094,-0.061401,-0.375244,0.876587,1.708984,9.033203,0.122070
4104,-0.058472,-0.093994,0.986206,1.647949,9.155273,0.732422
4113,-0.081299,-0.113037,0.903198,1.281738,9.582520,1.770020
4123,-0.106201,-0.217651,0.880859,0.915527,10.131836,2.868652
4133,-0.052246,-0.045532,0.908203,0.549316,10.620117,4.272461
4143,-0.048462,-0.194702,0.895020,0.427246,11.047363,5.859375
4155,-0.048218,-0.072144,1.078735,-0.122070,11.047363,7.446289
4164,-0.047241,-0.260376,0.965698,0.305176,11.230469,7.934570
4174,-0.050049,-0.121094,0.933960,0.427246,11.352539,8.422852
4183,0.014160,-0.085693,1.052856,0.549316,11.108398,8.666992
4193,0.044434,-0.294556,0.946411,-0.061035,10.803223,9.094238
4203,0.042725,-0.134888,0.957886,-1.159668,10.009766,9.460449
4213,0.057373,0.105103,1.114258,-1.770020,9.521484,10.009766
4224,-0.003662,-0.130249,1.070313,-1.770020,9.704590,12.023926
4234,0.035156,0.012573,1.172485,-1.281738,10.009766,12.817383
4243,-0.001709,-0.004028,1.143677,-0.610352,10.009766,13.916016
4253,0.022461,-0.058472,1.113770,0.610352,9.338379,14.709473
4263,0.045410,-0.065674,1.038696,1.159668,8.422852,15.441895
4273,0.043091,-0.037598,0.952271,1.464844,7.385254,16.113281
4284,0.009033,-0.189697,0.932983,0.549316,6.713867,17.028809
4293,-0.047607,0.120972,1.010376,-0.671387,6.896973,16.662598
4303,-0.011475,-0.113037,1.018311,-1.403809,6.958008,16.662598
4313,-0.094116,-0.213867,1.035767,-1.708984,7.263184,16.601562
4323,-0.100342,0.110107,1.180298,-1.770020,7.324219,15.869141
4333,-0.116211,0.097046,1.213867,-1.403809,6.408691,15.136719
4344,-0.032837,-0.206909,1.045166,-0.549316,5.798340,14.831543
4353,-0.010620,-0.067505,1.106201,-0.061035,5.371094,15.319824
4365,0.074707,-0.163574,1.121094,1.770020,4.516602,16.174316
4374,0.102661,-0.380981,0.995605,2.685547,4.516602,16.967773
4383,0.145752,-0.168091,0.969360,2.990723,3.845215,17.700195
4394,0.180664,-0.139893,0.974487,2.746582,2.868652,17.639160
4403,0.165161,-0.363770,0.747681,2.075195,1.159668,17.272949
4413,0.199341,-0.165039,0.835693,1.342773,0.000000,16.845703
4426,0.154663,-0.193848,0.868530,0.793457,-1.708984,16.174316
4435,0.121216,-0.143677,0.966797,0.793457,-2.441406,15.930176
4445,0.103271,-0.075317,1.062378,0.976562,-3.051758,14.770508
4454,0.039307,-0.147095,1.004761,1.281738,-3.906250,13.671875
4463,-0.001099,-0.147217,0.974243,1.831055,-4.577637,12.451172
4473,0.007080,-0.074097,1.007324,2.441406,-5.310059,10.864258
4483,-0.005859,-0.188354,0.942993,2.746582,-5.676270,9.704590
4496,0.026489,-0.144531,1.037109,3.417969,-6.408691,7.080078
4505,0.014038,-0.299438,0.978882,3.784180,-6.774902,5.737305
4515,0.024536,-0.315918,0.941040,3.295898,-6.958008,4.272461
4524,0.023804,-0.152344,0.999146,2.563477,-7.385254,2.685547
4534,0.093994,-0.079956,0.965942,2.258301,-7.812500,1.098633
4543,0.088989,-0.258789,0.886108,1.464844,-8.117676,0.061035
4554,0.125244,-0.270996,0.845093,0.488281,-8.361816,-0.976562
4563,0.093018,-0.132080,0.919312,-1.525879,-9.460449,-2.624512
4573,0.143799,-0.146484,0.945801,-2.014160,-9.643555,-3.479004
4583,0.122681,-0.083740,1.050415,-2.258301,-10.192871,-4.455566
4594,0.092041,-0.128296,1.025757,-2.197266,-10.253906,-4.821777
4603,0.072876,-0.229004,0.962769,-2.075195,-10.375977,-5.249023
4613,0.075562,-0.084717,1.057983,-2.380371,-10.375977,-5.615234
4624,0.092163,-0.114258,1.072266,-2.746582,-10.620117,-5.981445
4633,-0.000366,-0.344482,0.907349,-3.112793,-10.925293,-6.530762
4644,-0.026611,-0.035278,1.107056,-3.662109,-10.437012,-6.530762
4653,-0.058228,-0.099731,1.074585,-4.089355,-9.704590,-5.981445
4663,-0.044800,-0.284058,0.985596,-4.150391,-8.850098,-4.821777
4673,-0.050537,-0.196899,1.030518,-4.394531,-7.751465,-3.601074
4684,0.031860,-0.059448,1.050537,-4.394531,-7.263184,-2.929688
4694,-0.024292,-0.217773,0.951660,-4.516602,-7.446289,-2.014160
4703,-0.042114,-0.211548,0.843872,-4.333496,-7.507324,-1.586914
4715,-0.045776,-0.158447,0.925415,-4.150391,-7.324219,-1.525879
4725,-0.159790,-0.286865,0.751587,-4.577637,-7.202148,-2.075195
4735,-0.119507,-0.029297,0.924927,-4.882812,-6.469727,-2.136230
4744,-0.151733,0.156860,1.034790,-5.187988,-5.981445,-2.380371
4754,-0.183594,-0.101563,0.916382,-5.126953,-5.432129,-2.746582
4763,-0.182129,-0.205688,0.886963,-5.065918,-4.516602,-3.173828
4773,-0.158691,-0.031860,0.996216,-5.432129,-3.356934,-6.042480
4783,-0.135010,-0.029175,0.995117,-5.249023,-3.479004,-7.446289
4794,-0.071899,-0.053955,1.002197,-4.943848,-3.356934,-9.094238
4804,-0.003296,-0.006226,1.052979,-4.638672,-3.662109,-10.925293
4814,0.096191,0.105713,1.351807,-4.882812,-3.662109,-12.268066
4823,-0.139038,-0.261719,0.708618,-3.234863,-3.845215,-12.878418
4834,0.071533,-0.140503,0.736206,-2.746582,-3.173828,-13.000488
4844,0.242065,0.217407,1.369141,-3.051758,-3.295898,-15.502930
4853,0.012207,0.009766,0.550537,-0.122070,-2.990723,-16.906738
4864,0.415894,-0.135254,1.077881,-1.342773,-1.831055,-14.709473
4874,0.105469,0.092041,1.249634,-2.807617,-2.624512,-14.709473
4883,-0.067749,-0.131592,0.991211,-1.525879,-3.540039,-16.052246
4894,0.114624,-0.281128,0.873779,0.427246,-2.807617,-16.052246
4903,0.125977,-0.248047,0.989746,1.281738,-2.624512,-15.991211
4915,-0.042969,-0.356567,0.946899,0.366211,-3.173828,-16.540527
4924,-0.072998,-0.205200,0.952759,-1.281738,-1.892090,-15.747070
4934,-0.117188,0.041748,0.915771,-1.220703,-1.037598,-15.502930
4944,-0.080566,-0.124146,0.944214,-1.220703,-0.183105,-15.319824
4954,-0.078857,-0.245117,0.944946,-1.770020,0.488281,-14.587402
4963,-0.092407,-0.080566,1.027710,-2.990723,1.403809,-13.427734
4974,-0.071045,0.079468,1.032715,-3.234863,2.685547,-12.207031
4984,0.014404,-0.029907,0.965210,-2.014160,4.028320,-10.131836
4993,-0.023071,-0.013550,1.095337,-1.342773,4.028320,-9.338379
5004,-0.051758,-0.043457,1.168457,-0.732422,4.272461,-8.483887
5013,-0.026611,-0.044067,1.146484,0.244141,4.638672,-8.239746
5024,-0.024780,-0.078369,1.061401,1.892090,5.310059,-7.446289
5034,-0.037842,-0.196411,0.891724,2.685547,5.798340,-6.530762
5044,-0.049805,-0.188354,0.821899,2.807617,6.530762,-5.432129
5053,-0.025146,-0.119141,0.943726,1.281738,7.263184,-2.563477
5065,-0.074219,-0.089600,1.036743,1.464844,7.934570,-1.647949
5074,-0.093262,-0.049316,0.951538,2.197266,8.911133,-0.061035
5084,-0.064575,-0.193115,0.932129,2.563477,9.521484,1.403809
5093,-0.062134,-0.280029,0.857544,1.953125,9.765625,2.624512
5104,-0.051758,-0.465820,0.834229,0.793457,9.704590,3.784180
5113,0.004883,-0.024292,0.917725,-0.854492,9.826660,5.004883
5126,-0.046387,-0.210937,1.015503,0.366211,9.216309,7.324219
5136,0.002197,-0.325684,0.967529,-0.549316,9.338379,8.239746
5145,-0.033325,0.019165,0.975220,-1.953125,9.643555,8.911133
5155,0.011230,-0.121704,1.045532,-0.671387,9.521484,9.521484
5164,0.021851,-0.251587,1.028198,0.061035,9.277344,9.826660
5174,0.085083,-0.236572,0.982788,-1.098633,8.666992,9.826660
5184,0.025635,-0.155396,0.972534,-1.708984,7.629395,9.643555
5196,-0.010986,-0.062500,1.083862,-1.281738,6.469727,9.155273
5205,0.013916,-0.014404,1.101929,-1.098633,6.225586,9.216309
5215,-0.010864,-0.060913,1.065308,-1.037598,6.347656,10.009766
5224,0.030762,-0.174316,0.977051,-0.488281,6.225586,10.498047
5234,0.009033,-0.300049,0.984619,-0.122070,6.286621,11.474609
5244,0.024902,-0.149414,1.023315,0.061035,5.737305,12.023926
5254,0.004028,0.052124,1.057373,0.122070,5.065918,12.145996
5265,0.023315,-0.036865,1.030396,1.037598,4.455566,12.512207
5275,0.019897,-0.120239,0.958862,1.159668,4.150391,12.451172
5284,0.040039,-0.178467,0.892456,0.305176,3.967285,12.451172
5294,0.012817,-0.106079,0.939941,-0.854492,3.784180,12.512207
5304,0.037354,-0.026855,0.974487,-2.136230,3.540039,12.390137
5314,0.023071,0.053101,1.008423,-3.234863,3.356934,12.329102
5324,-0.017456,-0.062622,0.998047,-3.540039,2.868652,11.718750
5334,-0.090088,-0.145142,0.978760,-2.624512,2.075195,10.803223
5344,-0.075317,0.110718,1.118530,-2.319336,1.831055,9.765625
5354,-0.028076,-0.023071,1.056641,-1.464844,1.464844,9.216309
5364,-0.004517,-0.200928,0.987671,-0.793457,1.159668,8.789063
5374,0.057129,-0.227539,1.023682,-0.549316,0.671387,8.178711
5383,0.078735,-0.142944,1.081665,-0.183105,0.183105,7.873535
5395,0.069336,-0.103394,1.076172,1.098633,-0.122070,7.751465
5404,0.102661,-0.068848,1.105957,1.159668,-0.305176,7.507324
5415,0.118896,-0.173462,1.034180,1.281738,-1.281738,6.713867
5424,0.143677,-0.267944,0.956299,1.403809,-2.624512,5.615234
5434,0.099854,-0.228882,0.869019,1.281738,-3.417969,4.943848
5443,0.148804,-0.042114,0.885498,0.976562,-3.723145,4.211426
5454,0.110229,-0.070801,0.941040,0.732422,-4.394531,3.662109
5465,0.112793,-0.137573,0.966064,-0.488281,-5.187988,1.708984
5475,0.025757,-0.079834,1.036377,-0.122070,-5.493164,0.732422
5484,0.065552,-0.154297,1.013916,0.671387,-5.676270,-0.732422
5494,0.073486,-0.207275,1.004028,0.976562,-5.920410,-1.770020
5503,0.060913,-0.254028,1.045288,1.037598,-6.591797,-2.868652
5514,0.035522,-0.185913,1.043457,0.793457,-6.774902,-3.479004
5523,0.030518,-0.110229,1.021851,0.671387,-6.896973,-3.784180
5535,-0.048950,-0.050293,1.010620,0.549316,-6.408691,-4.150391
5544,0.036377,-0.008057,1.048828,0.305176,-5.920410,-3.845215
5555,0.047119,-0.236084,0.939087,0.183105,-6.042480,-4.211426
5564,0.021240,-0.180664,0.888672,0.122070,-5.859375,-4.821777
5574,0.007568,-0.133911,0.944580,0.366211,-6.225586,-5.187988
5584,0.036621,-0.036133,0.992676,0.610352,-6.286621,-6.103516
5594,-0.000977,-0.132324,0.966919,0.976562,-6.530762,-7.141113
5604,-0.006226,-0.258667,0.947632,0.671387,-6.774902,-7.751465
5615,-0.002563,-0.145630,0.898071,0.183105,-6.591797,-7.751465
5624,0.013794,-0.138672,0.876709,-0.305176,-4.882812,-7.202148
5634,0.014771,-0.295898,0.880981,-0.671387,-4.150391,-6.286621
5643,-0.007690,-0.244019,0.827515,-1.586914,-3.784180,-5.859375
5654,-0.043213,-0.131348,0.848267,-2.258301,-3.234863,-5.432129
5664,-0.025757,-0.039429,0.937866,-2.746582,-3.295898,-4.882812
5675,-0.030884,0.022705,0.991821,-3.845215,-2.868652,-3.540039
5685,-0.023926,-0.088013,1.071289,-4.516602,-2.258301,-2.746582
5695,-0.008179,-0.055054,1.096191,-4.211426,-1.525879,-1.708984
5704,-0.011963,-0.044312,1.056152,-3.784180,-1.342773,-0.976562
5714,0.005249,-0.004883,1.039795,-3.723145,-1.647949,-0.244141
5724,0.032349,-0.034424,1.045532,-3.356934,-2.197266,-0.488281
5734,0.007446,-0.058105,1.056030,-2.746582,-2.319336,-0.793457
5744,0.002197,-0.034058,1.010010,-2.380371,-2.380371,-0.854492
5753,-0.033203,-0.079712,1.031860,-1.770020,-1.586914,-1.220703
5765,-0.072754,-0.127808,1.050293,-2.563477,-1.708984,-1.953125
5775,-0.079102,-0.187134,0.997437,-2.746582,-1.831055,-3.051758
5785,-0.106445,-0.175415,1.012207,-2.746582,-1.770020,-4.333496
5794,-0.117554,-0.293579,0.775635,-2.624512,-1.953125,-5.187988
5804,-0.079834,-0.051025,0.856812,-3.112793,-1.708984,-5.859375
5813,-0.025269,0.081299,0.975342,-4.089355,-1.281738,-6.164551
5825,-0.007446,-0.096313,0.981689,-4.394531,-0.732422,-5.554199
5834,-0.022461,0.063599,1.101807,-5.981445,1.098633,-5.432129
5844,-0.072388,0.046997,1.084961,-5.249023,0.915527,-5.859375
5853,-0.026489,-0.060059,1.083862,-4.028320,1.098633,-5.920410
5864,0.007446,-0.082153,1.106567,-3.173828,1.281738,-5.676270
5874,0.014648,-0.059814,1.145752,-2.319336,1.342773,-5.249023
5883,0.020630,-0.067139,1.109985,-1.647949,1.159668,-4.882812
5895,0.057495,-0.092285,0.927368,-0.671387,1.464844,-3.051758
5905,0.097046,-0.135620,0.919678,0.183105,1.586914,-2.380371
5914,0.067261,-0.161621,0.907227,0.122070,1.403809,-1.831055
5923,0.024780,-0.088989,0.932251,-0.427246,1.159668,-1.708984
5934,0.013550,0.007446,0.968750,-0.427246,1.220703,-1.586914
5943,0.025879,-0.034424,0.924927,0.122070,1.342773,-1.525879
5954,-0.003784,-0.129639,0.911865,0.671387,1.281738,-1.770020
5963,0.008423,-0.150635,0.965454,0.854492,1.098633,-2.075195
5975,-0.020996,-0.058838,0.950317,0.610352,0.976562,-2.136230
5985,0.008667,-0.080322,0.911377,0.244141,0.976562,-2.319336
5994,0.032104,-0.198242,0.883545,-0.305176,0.854492,-2.136230
6004,-0.022827,-0.233643,0.889038,-1.098633,0.976562,-2.014160
6014,-0.012695,-0.099854,0.969727,-1.647949,1.403809,-1.770020
6023,0.000488,0.015259,1.041138,-2.136230,1.892090,-1.403809
6035,-0.017334,-0.099854,1.063110,-2.380371,2.136230,-0.976562
6045,-0.006104,-0.087524,1.070679,-2.136230,1.953125,-1.220703
6055,-0.003906,-0.037109,1.100098,-1.892090,1.953125,-0.915527
6064,-0.014404,-0.061035,1.053101,-1.586914,1.831055,-0.671387
6074,0.003906,-0.072021,1.020996,-1.098633,1.464844,-0.427246
6083,0.022461,-0.037720,1.057861,-0.610352,1.892090,0.061035
6095,0.016357,-0.130981,1.040527,0.549316,2.136230,1.098633
6104,0.010620,-0.098755,0.995117,0.915527,1.953125,1.464844
6113,-0.048096,-0.158081,1.017334,1.220703,1.708984,1.770020
6124,-0.018677,-0.187256,1.039795,1.159668,1.464844,1.953125
6134,-0.032104,-0.146240,1.047119,0.549316,1.708984,2.624512
6144,-0.011353,-0.106201,1.006104,0.061035,2.380371,3.173828
6154,0.014404,-0.041870,0.954956,-0.366211,2.441406,4.150391
6165,0.028564,-0.049683,0.929932,-1.403809,2.502441,6.164551
6175,0.015747,-0.260254,0.845093,-2.685547,2.075195,6.652832
6185,-0.017212,0.012939,0.916260,-3.845215,1.708984,6.652832
6194,-0.051025,0.139038,1.004517,-3.967285,1.586914,6.774902
6204,-0.094604,-0.108765,0.881348,-3.540039,1.525879,6.835937
6214,-0.055420,-0.239868,0.846802,-3.417969,1.953125,7.019043
6224,-0.060181,-0.027222,0.920288,-3.845215,1.831055,7.080078
6235,-0.019653,0.002686,0.964600,-4.577637,1.586914,6.652832
6247,-0.052490,-0.100586,0.885986,-4.882812,1.586914,6.591797
6257,-0.019897,-0.014648,0.921509,-4.150391,2.319336,6.530762
6266,0.021973,0.025513,1.037109,-3.662109,1.586914,6.652832
6276,-0.024902,-0.142822,1.046387,-3.356934,1.220703,6.225586
6285,-0.021851,-0.164185,1.061890,-3.601074,1.159668,5.737305
6295,-0.044556,-0.093750,1.026001,-3.356934,0.976562,5.310059
6304,-0.012085,-0.028442,1.010864,-2.502441,1.098633,5.126953
6314,-0.000488,-0.080933,0.998291,-1.464844,0.183105,3.845215
6324,-0.003540,-0.269043,0.880005,-1.647949,-0.305176,2.807617
6334,-0.006348,-0.180420,0.908081,-2.136230,-0.549316,2.014160
6344,0.020630,-0.028931,0.952515,-2.929688,-0.366211,1.281738
6354,0.035156,-0.100220,0.926636,-3.662109,0.305176,0.732422
6364,0.018799,-0.161255,0.895996,-4.516602,0.244141,0.183105
6374,0.058838,-0.017944,1.021362,-5.493164,-0.061035,-0.366211
6386,0.059204,-0.103271,1.057251,-6.347656,-0.732422,-1.159668
6395,0.039917,-0.133789,1.045044,-5.920410,-0.793457,-1.464844
6405,0.057129,0.011475,1.111206,-5.371094,-0.671387,-1.892090
6414,0.012817,0.040771,1.129150,-5.126953,-0.671387,-2.014160
6424,-0.014526,-0.070068,1.086426,-4.882812,-0.793457,-2.136230
6434,-0.023437,-0.148804,1.041382,-4.882812,-0.732422,-2.441406
6446,-0.000488,0.006958,1.048584,-4.089355,-0.061035,-1.708984
6456,0.001709,0.009155,1.059082,-3.234863,-0.183105,-1.586914
6466,0.045166,-0.022827,1.031982,-2.502441,-0.183105,-1.342773
6475,-0.001099,-0.172852,0.987061,-2.014160,-0.427246,-1.098633
6485,0.064819,-0.214722,0.944092,-1.953125,-0.671387,-1.464844
6495,-0.000610,-0.014648,0.944580,-2.075195,-0.915527,-1.220703
6505,-0.006104,0.049072,0.942261,-1.770020,-0.854492,-1.098633
6514,-0.044434,-0.061768,0.922974,-0.976562,-0.061035,-0.427246
6524,-0.071289,-0.156250,0.876831,-0.488281,0.732422,-0.183105
6534,-0.040283,-0.063599,0.952759,-0.244141,1.220703,0.366211
6544,-0.081299,-0.077759,0.972900,-0.305176,1.647949,0.915527
6554,-0.037842,-0.105835,0.990845,-0.427246,1.647949,0.976562
6564,-0.016846,-0.179077,0.999756,-0.244141,1.708984,1.281738
6574,-0.028564,-0.187256,0.954468,-0.061035,1.525879,1.098633
6584,0.013428,-0.058228,0.984253,-0.061035,1.098633,0.610352
6595,0.033569,-0.089478,1.059448,-0.793457,0.732422,0.183105
6605,0.020874,-0.012939,1.101929,-0.549316,0.854492,0.305176
6614,0.024780,-0.007202,1.078491,0.183105,1.098633,1.037598
6625,0.025391,-0.103516,1.048828,1.098633,1.220703,1.892090
6634,0.080811,-0.155273,1.071777,1.708984,1.342773,2.441406
6644,0.065796,-0.131348,1.040771,2.319336,0.854492,2.685547
6655,0.070923,-0.039795,1.022827,2.746582,0.000000,2.990723
6664,0.061157,-0.133911,0.907349,2.929688,-0.122070,2.929688
6674,0.020386,-0.203247,0.883301,2.380371,-0.244141,2.563477
6685,-0.017578,-0.164917,0.937012,1.464844,-0.366211,2.136230
6694,-0.052246,-0.043579,1.046265,0.366211,-0.549316,1.525879
6704,-0.057129,0.049316,1.139038,0.244141,-0.549316,1.098633
6714,-0.066040,0.046875,1.170654,0.732422,-0.183105,0.732422
6724,-0.018799,0.024902,1.157349,0.976562,0.061035,0.366211
6735,0.011597,-0.170044,1.111206,1.220703,0.000000,0.000000
6745,0.045654,-0.221802,1.082153,2.624512,-0.061035,-0.366211
6754,0.046143,-0.237549,0.955566,3.356934,-0.305176,-0.610352
6765,0.083008,-0.106201,0.912598,3.417969,-0.366211,-1.037598
6774,0.102905,-0.012573,1.049316,3.051758,-1.037598,-1.525879
6784,0.122559,-0.122559,0.990967,2.563477,-1.647949,-2.197266
6796,0.048828,-0.164795,0.924561,2.197266,-1.892090,-3.723145
6806,0.041138,-0.059570,0.990112,1.953125,-1.525879,-3.906250
6815,0.032593,-0.084717,0.937256,2.014160,-1.464844,-4.150391
6825,0.027588,0.031738,1.260986,1.586914,-1.220703,-4.272461
6834,-0.027588,0.136230,1.218506,2.136230,-1.708984,-4.577637
6844,-0.042603,-0.194458,0.961792,4.333496,-1.464844,-4.394531
6855,-0.005859,-0.350342,0.795898,4.882812,-1.342773,-4.211426
6864,0.053467,-0.641235,0.379272,1.464844,-1.525879,-3.479004
6874,0.058960,-0.397583,0.804199,-2.441406,-1.220703,-2.807617
6884,0.024292,0.313843,0.818237,-4.699707,-0.976562,-1.708984
6895,0.026245,0.099121,0.893433,-3.784180,-0.305176,-0.915527
6904,-0.054810,-0.110107,0.990967,-3.417969,0.000000,-0.915527
6914,-0.063965,-0.002808,1.152466,-4.028320,0.061035,-1.464844
6925,-0.106689,0.112427,1.350220,-4.821777,0.061035,-1.770020
6935,-0.087891,0.137451,1.290283,-2.014160,0.610352,-0.488281
6944,-0.074097,0.005859,0.930298,0.549316,1.159668,1.037598
6955,0.051880,-0.183472,0.916626,1.708984,1.037598,1.831055
6964,0.104736,-0.234253,0.925781,0.610352,0.976562,2.380371
6975,0.100098,-0.169434,0.850708,-1.464844,0.549316,2.868652
6984,0.081787,0.122314,0.852051,-3.540039,0.183105,3.112793
6995,0.063110,0.061768,0.903442,-4.333496,0.061035,3.417969
7004,-0.004639,-0.173828,0.863892,-4.272461,-0.183105,2.563477
7014,0.011719,-0.111816,1.068237,-5.493164,-0.732422,1.831055
7025,-0.077026,-0.001099,1.116089,-6.347656,-1.037598,0.854492
7040,-0.017578,0.087036,1.128662,-6.469727,-0.915527,0.366211
7049,-0.052734,0.034058,1.018188,-5.004883,-0.305176,0.549316
7059,-0.033203,0.084351,1.126099,-4.150391,-0.366211,0.183105
7068,-0.008179,-0.067871,1.189575,-3.906250,-0.183105,-0.183105
7078,-0.004028,-0.104248,1.113525,-4.150391,-0.244141,-0.854492
7088,0.050049,-0.059448,0.970093,-4.760742,0.122070,-0.854492
7098,0.039307,0.074951,0.905518,-5.065918,0.549316,-0.915527
7107,0.064941,0.029297,0.801636,-4.516602,0.244141,-1.159668
7116,0.057251,-0.261841,0.840454,-3.540039,-0.244141,-1.708984
7126,0.049316,-0.156494,1.064087,-4.455566,-1.220703,-3.051758
7136,0.022461,0.157593,1.335938,-6.835937,-1.525879,-5.249023
7145,-0.045776,0.150391,1.331909,-5.737305,-0.732422,-5.798340
7155,-0.016479,0.361328,1.092285,-3.112793,-0.244141,-5.859375
7164,-0.026245,-0.191895,0.854004,2.563477,-0.183105,-5.615234
7174,0.051514,-0.428101,0.754395,6.164551,-1.342773,-5.798340
7185,0.125732,-0.390137,0.808960,5.554199,-2.441406,-6.347656
7195,0.136719,-0.240479,0.778931,1.464844,-2.502441,-5.981445
7205,0.072998,-0.050415,0.659912,-2.075195,-1.281738,-4.882812
7214,0.053223,0.149414,0.754150,-3.479004,0.122070,-3.479004
7226,-0.071899,-0.046143,1.058838,-1.342773,0.488281,-3.662109
7235,-0.081421,-0.063354,1.388428,-1.464844,0.305176,-4.150391
7245,-0.113037,-0.008179,1.342896,-2.319336,0.122070,-4.394531
7255,-0.120972,0.214111,1.272217,-1.953125,1.220703,-3.234863
7264,-0.042725,0.083374,1.001221,0.366211,2.502441,-1.403809
7275,0.004761,-0.147461,0.734375,4.272461,3.051758,0.183105
7284,0.091553,-0.236694,0.837280,4.638672,1.281738,1.342773
7296,0.071167,-0.157959,0.930054,0.244141,0.671387,1.892090
7305,0.082031,0.199585,0.997314,-3.112793,1.281738,2.868652
7315,0.019043,0.219238,0.903931,-3.112793,2.319336,4.333496
7324,-0.048218,-0.012329,0.841675,-0.488281,2.868652,5.554199
7334,-0.035400,-0.155151,1.004272,1.281738,2.746582,5.981445
7345,-0.044312,-0.311279,1.118164,1.220703,2.197266,5.798340
7354,-0.089233,-0.160034,1.068481,-3.295898,1.892090,6.286621
7366,-0.061401,-0.003174,0.739502,-3.540039,2.746582,7.507324
7376,-0.092896,0.059692,0.790039,-2.685547,2.868652,8.117676
7385,-0.067993,-0.063110,0.924805,-2.380371,2.502441,8.483887
7395,-0.097168,-0.019043,1.201294,-3.662109,2.258301,7.812500
7405,-0.074097,0.181519,1.308350,-5.493164,2.380371,7.507324
7415,-0.063599,0.250977,1.134399,-5.859375,3.356934,8.361816
7425,-0.015991,0.180542,1.055054,-0.488281,4.760742,10.192871
7436,0.074341,-0.129150,1.151611,1.770020,3.723145,9.704590
7445,0.058960,-0.281616,1.211792,1.342773,1.708984,8.178711
7455,0.029297,-0.172363,1.187378,-1.098633,0.183105,5.859375
7464,0.050293,0.173584,1.133789,-3.784180,-0.061035,4.516602
7475,0.049438,0.037109,0.915527,-4.211426,0.549316,4.272461
7485,0.055786,0.026611,0.804443,-2.380371,1.037598,4.211426
7494,0.061768,-0.075195,0.883057,-0.488281,-0.488281,2.746582
7506,0.022827,-0.061768,1.013672,-1.159668,-1.342773,1.770020
7516,0.060303,0.014648,0.993896,-2.624512,-1.098633,1.525879
7525,0.055542,0.095825,0.987549,-3.173828,-0.244141,1.892090
7534,-0.003906,0.012085,0.869019,-1.831055,-0.061035,1.953125
7544,-0.052002,-0.091675,0.822021,-0.183105,-0.671387,1.220703
7555,-0.031128,-0.086426,1.067505,-0.122070,-1.525879,0.244141
7565,-0.026489,-0.224731,0.936523,-3.295898,-1.342773,-0.671387
7575,0.025024,0.029663,0.927612,-5.249023,-0.549316,-0.183105
7584,0.042358,0.120483,0.895386,-5.798340,0.061035,0.366211
7595,0.027588,0.036621,0.864258,-4.211426,0.000000,0.671387
7605,0.053955,-0.055908,0.988892,-2.319336,-0.610352,0.244141
7615,0.028198,-0.083740,1.137573,-2.075195,-1.403809,-0.549316
7624,0.031860,-0.041504,1.132202,-2.441406,-1.892090,-0.915527
7636,0.068970,0.028076,0.988281,-2.868652,-1.159668,-0.488281
7646,0.065918,-0.041016,0.885010,-1.281738,-1.281738,-0.488281
7656,0.070190,-0.133179,0.907715,-0.061035,-2.197266,-1.098633
7666,0.031128,-0.117310,1.008057,-0.061035,-2.990723,-1.708984
7675,0.021729,-0.034424,1.081421,-0.976562,-3.479004,-2.075195
7685,-0.019409,0.011597,1.071655,-1.281738,-2.380371,-1.403809
7695,-0.033447,0.012573,1.005371,-0.671387,-1.159668,-0.061035
7704,-0.032837,0.050293,1.050781,2.624512,-0.549316,0.854492
7716,-0.003174,-0.226929,0.958130,3.295898,-1.342773,0.183105
7726,-0.004272,-0.151123,1.023926,2.380371,-1.953125,-0.366211
7736,-0.014038,-0.126099,0.985718,0.854492,-2.319336,-1.098633
7745,-0.007324,-0.075928,0.894531,-0.976562,-2.075195,-1.464844
7755,0.005981,0.082764,0.931885,-2.197266,-1.281738,-1.220703
7764,-0.027222,0.011353,0.935669,-2.319336,-0.793457,-1.647949
7776,-0.033813,-0.041748,1.076904,-1.770020,-0.854492,-3.173828
7786,0.017578,0.024780,1.207764,-2.136230,-1.464844,-4.028320
7796,0.010132,-0.002075,1.163574,-2.258301,-1.586914,-4.333496
7805,0.039063,0.003540,1.119141,-2.502441,-1.037598,-4.272461
7815,0.015381,0.074463,1.134277,-2.746582,-0.671387,-4.089355
7825,0.050293,0.106201,1.008301,-1.953125,-0.793457,-4.028320
7835,0.019165,-0.084595,0.845215,-0.305176,-0.976562,-3.967285
7846,0.063599,-0.056274,1.012085,0.061035,-1.464844,-3.601074
7856,0.036011,-0.142578,0.954102,-0.976562,-1.464844,-3.540039
7865,0.047729,-0.012695,0.910645,-2.685547,-1.159668,-3.540039
7875,-0.011719,0.131714,0.929443,-3.967285,-0.793457,-3.295898
7885,-0.036377,0.036011,0.858887,-3.723145,-0.732422,-2.990723
7895,-0.054687,0.026733,0.940430,-2.929688,-0.854492,-3.356934
7905,-0.029297,-0.031616,0.902710,-2.319336,-0.915527,-3.662109
7915,-0.034180,-0.034668,0.982666,-2.258301,-0.244141,-2.746582
7925,0.007690,-0.041138,0.960449,-2.563477,0.671387,-1.586914
7935,0.004883,0.038330,0.966187,-2.990723,1.220703,-0.366211
7944,0.018066,0.031982,0.859131,-2.563477,1.281738,0.427246
7955,0.000000,-0.108887,0.831421,-1.525879,0.915527,0.732422
7965,0.007813,-0.100342,0.927124,-1.220703,0.427246,0.793457
7975,-0.003296,-0.150635,0.955078,-2.075195,0.244141,1.159668
7985,0.009521,-0.069946,1.000000,-4.394531,1.159668,2.929688
7995,-0.023804,0.086426,1.010254,-5.004883,1.281738,3.540039
8005,-0.005249,0.049072,1.009277,-4.333496,1.403809,3.723145
8015,-0.039673,0.007813,1.055908,-3.540039,1.281738,3.784180
8025,-0.007813,-0.037476,1.064087,-3.051758,0.854492,3.295898
8035,-0.028198,-0.135986,1.027222,-2.807617,0.305176,2.929688
8045,0.017822,-0.104858,1.006836,-3.295898,0.183105,2.624512
8054,0.016724,-0.104980,1.027466,-4.028320,0.732422,2.441406
8066,-0.002319,0.017822,1.028564,-4.760742,0.549316,1.831055
8076,0.008057,-0.060425,0.964844,-4.333496,0.244141,0.976562
8085,0.013428,-0.053589,1.034668,-3.784180,-0.183105,-0.122070
8095,-0.007446,0.009888,1.057861,-3.845215,-0.610352,-0.915527
8105,0.009644,-0.016357,1.010620,-3.479004,-0.305176,-1.342773
8117,-0.013672,0.030518,1.133545,-3.723145,0.244141,-2.685547
8126,-0.021118,0.038208,1.018066,-3.845215,0.000000,-3.601074
8135,0.008911,0.077271,0.964478,-3.356934,-0.305176,-4.272461
8145,0.005249,-0.033447,0.960571,-2.319336,-0.610352,-4.821777
8155,0.059937,-0.041748,0.983032,-2.014160,-0.854492,-5.493164
8165,0.061646,-0.055054,1.023804,-2.258301,-0.976562,-5.737305
8175,0.070801,-0.084351,1.033203,-2.868652,-0.427246,-5.737305
8187,0.056274,-0.053711,1.058472,-3.723145,-0.183105,-5.859375
8196,0.010742,0.034302,0.997925,-3.417969,-0.183105,-5.920410
8206,0.033447,0.006104,1.003418,-2.441406,-0.610352,-5.920410
8216,0.010498,-0.034546,0.924194,-1.220703,-0.610352,-5.737305
8225,0.065552,0.022583,1.021851,-0.793457,-0.610352,-5.187988
8235,0.016968,-0.073242,0.984009,-1.037598,-0.488281,-4.394531
8245,0.034058,-0.076538,0.937866,-1.647949,-0.061035,-3.540039
8255,0.019653,0.034668,0.978271,-2.502441,0.183105,-2.807617
8266,-0.036865,0.062134,0.984741,-2.868652,0.549316,-1.342773
8276,-0.047974,-0.008911,0.997925,-1.586914,0.427246,-0.549316
8286,-0.033691,0.037231,1.071777,-0.854492,0.549316,-0.366211
8295,-0.055908,0.010864,1.000854,-0.366211,0.549316,0.061035
8306,-0.052368,-0.026978,1.003418,0.061035,1.159668,0.915527
8315,-0.045288,-0.036743,0.997437,0.427246,1.770020,1.953125
8327,-0.027710,-0.054932,1.007202,-0.244141,2.075195,2.868652
8336,-0.033447,-0.016968,0.941162,-0.305176,1.953125,3.479004
8346,-0.015747,0.030273,1.029907,0.183105,2.258301,4.272461
8356,-0.040039,-0.022339,1.047974,1.281738,2.502441,5.187988
8365,-0.057373,-0.074951,1.090820,1.892090,2.563477,5.920410
8375,-0.055298,-0.069214,1.117188,1.953125,2.868652,6.164551
8385,-0.052124,-0.075439,1.082031,2.197266,3.173828,6.530762
8395,-0.043579,-0.068726,0.994385,2.014160,3.112793,6.774902
8406,0.001587,-0.034668,0.984497,2.319336,2.685547,7.568359
8416,-0.015381,-0.090332,0.928833,2.807617,2.685547,7.568359
8425,-0.005981,-0.087646,1.008911,2.563477,2.624512,7.690430
8435,-0.020996,-0.077393,1.045288,1.708984,2.624512,7.812500
8445,-0.042847,-0.061768,1.015747,1.281738,2.929688,7.812500
8455,-0.010864,-0.016724,1.013306,1.281738,3.356934,7.507324
8465,-0.008911,-0.024048,1.026733,1.647949,3.234863,7.324219
8476,-0.013916,-0.081543,1.002319,2.136230,2.380371,5.554199
8485,0.010376,-0.110107,0.955200,2.746582,1.525879,4.943848
8495,0.051025,-0.060425,1.030640,2.258301,1.403809,4.455566
8505,-0.015503,-0.021240,0.969116,1.831055,1.220703,4.333496
8515,0.017700,-0.038818,1.039185,1.525879,1.647949,4.089355
8525,0.015503,0.012573,1.114014,0.976562,1.708984,3.784180
8535,-0.010620,0.042969,1.012451,0.610352,1.525879,3.479004
8547,0.049072,-0.004639,0.987915,1.586914,1.342773,2.929688
8556,0.056641,-0.003418,1.066650,2.319336,0.610352,2.685547
8566,0.068848,-0.075317,1.011597,2.502441,0.244141,2.258301
8575,0.069336,-0.052734,1.037964,2.380371,0.061035,1.831055
8586,0.057495,-0.012939,1.045044,2.014160,0.000000,1.831055
8595,0.032837,-0.032227,1.051025,1.770020,0.061035,1.647949
8606,0.022827,0.012939,0.963501,0.915527,-0.488281,1.037598
8616,0.034302,-0.010864,0.954102,1.342773,-0.488281,0.793457
8625,0.045532,-0.092285,1.047363,2.258301,-0.671387,0.793457
8635,0.003540,-0.076294,1.011841,2.563477,-0.732422,1.037598
8645,-0.006348,-0.057495,1.060181,2.685547,-0.610352,1.281738
8655,0.004028,-0.049683,1.035767,2.685547,-0.305176,1.220703
8666,0.022827,0.002197,1.096680,2.502441,0.183105,1.525879
8675,-0.001221,0.020264,1.016357,2.502441,0.000000,1.647949
8687,-0.013184,-0.072021,0.912109,3.784180,-0.793457,1.647949
8696,0.039307,-0.061157,0.880737,4.028320,-1.159668,1.647949
8707,0.024780,-0.102783,0.850220,3.479004,-0.915527,1.647949
8716,0.016602,-0.185791,0.826660,2.624512,-0.610352,1.770020
8726,0.018188,-0.307007,0.661011,1.525879,-0.183105,1.708984
8735,0.052002,-0.179565,0.763062,0.000000,-0.183105,1.220703
8748,-0.013550,0.007568,0.955811,-2.563477,-0.915527,-0.427246
8757,-0.068359,-0.040283,0.928101,-2.563477,-0.793457,-1.037598
8767,-0.036987,-0.017334,0.992554,-2.136230,-0.366211,-1.586914
8777,-0.016602,0.005005,1.055664,-1.464844,-0.183105,-1.770020
8786,-0.026489,-0.053345,1.031372,-1.586914,-0.305176,-1.831055
8796,-0.003174,-0.014160,1.051880,-1.892090,-0.305176,-1.281738
8806,0.034180,-0.037598,1.035522,-2.319336,0.000000,-0.732422
8815,0.027100,0.008179,0.962646,-2.868652,0.000000,-0.183105
8827,0.024536,0.070068,1.031738,-2.807617,-0.122070,-0.122070
8836,0.028076,0.033936,0.991699,-2.868652,-0.427246,0.122070
8846,0.042358,-0.063477,1.065552,-2.624512,-0.366211,0.305176
8855,0.042480,0.076782,1.120361,-2.685547,-0.427246,0.488281
8866,0.032349,0.005005,1.073608,-2.563477,-0.305176,0.793457
8875,0.041748,-0.052368,1.044922,-2.380371,-0.061035,1.159668
8885,0.017944,-0.089966,1.081665,-2.319336,0.244141,1.525879
8896,-0.015015,-0.052490,1.002686,-2.746582,-0.793457,1.037598
8906,-0.029785,-0.059814,0.967285,-3.356934,-0.976562,0.793457
8916,-0.043457,0.060669,0.934082,-3.173828,-0.610352,1.281738
8925,-0.015137,-0.089355,0.944824,-2.258301,0.305176,1.831055
8936,-0.003662,-0.122681,1.015259,-2.563477,0.061035,1.892090
8945,-0.004639,-0.048218,1.043091,-3.173828,0.122070,1.831055
8955,-0.017212,0.020752,1.008423,-3.784180,0.122070,1.708984
8966,-0.007568,-0.062256,1.001343,-3.601074,0.305176,1.525879
8976,-0.009033,0.022949,1.037720,-3.601074,0.488281,1.220703
8986,-0.026489,0.017212,1.032471,-3.479004,0.488281,0.976562
8995,-0.027832,0.027954,1.010986,-3.295898,0.366211,0.915527
9006,0.009155,-0.031128,0.975464,-3.051758,0.549316,0.976562
9015,0.030396,-0.037720,0.982788,-2.685547,0.549316,1.098633
9025,0.048462,-0.060059,0.964233,-2.624512,0.488281,1.037598
9037,0.043579,-0.052490,0.964600,-3.540039,0.427246,1.159668
9046,0.026001,-0.071655,0.996460,-3.601074,0.610352,1.464844
9056,0.025391,-0.014771,1.063354,-3.540039,0.549316,1.831055
9065,-0.008667,-0.041382,1.063110,-3.356934,0.183105,2.014160
9075,-0.007935,-0.027954,1.016235,-3.173828,0.183105,2.319336
9085,-0.023437,-0.037964,0.996704,-2.746582,0.244141,2.746582
9095,0.003174,-0.019775,0.992676,-2.502441,0.366211,3.112793
9106,-0.007568,-0.039185,0.983154,-3.112793,0.549316,3.479004
9116,-0.026855,-0.035156,0.985840,-3.906250,0.610352,3.540039
9125,-0.011230,-0.053833,1.000977,-4.394531,0.793457,3.356934
9135,-0.006592,0.049561,1.010132,-5.004883,0.610352,3.112793
9145,-0.005737,0.140747,1.044800,-5.554199,0.793457,3.173828
9155,-0.025879,0.064453,1.012573,-5.126953,0.732422,3.051758
9166,-0.001099,-0.000977,1.008911,-4.089355,0.610352,2.746582
9176,0.000244,0.012573,1.021606,-3.295898,0.549316,2.563477
9186,0.066040,-0.051025,0.982666,-2.563477,0.244141,1.770020
9196,0.051147,0.023926,0.949951,-2.319336,-0.061035,1.220703
9205,0.059570,-0.057617,0.957642,-1.770020,-0.427246,0.610352
9216,0.033203,-0.078125,0.931274,-1.220703,-0.610352,-0.122070
9225,0.010986,-0.099243,0.976929,-0.793457,-0.732422,-0.854492
9238,-0.016724,-0.066650,0.976929,-0.854492,-0.732422,-1.464844
9247,-0.001831,-0.030640,0.967529,-1.281738,-0.671387,-1.464844
9257,-0.004761,-0.011841,0.955566,-1.342773,-0.366211,-1.281738
9267,0.021973,-0.044434,0.941895,-0.915527,-0.549316,-0.915527
9276,0.045532,-0.076294,0.956299,-0.305176,-0.488281,-0.732422
9286,0.036743,-0.089478,0.970825,-0.305176,-0.671387,-0.793457
9296,0.030396,-0.103271,0.972534,-0.854492,-0.732422,-0.793457
9305,0.006714,-0.028564,0.981445,-1.525879,-0.610352,-0.488281
9317,0.028320,-0.064575,0.985107,-1.098633,-0.183105,-0.366211
9326,0.030396,-0.083496,1.026611,-0.976562,-0.305176,-0.427246
9336,0.013550,-0.001099,1.032227,-1.403809,-0.915527,-0.671387
9346,0.029419,-0.046753,1.027100,-1.586914,-1.037598,-0.732422
9355,0.034058,-0.013306,1.016113,-1.525879,-0.549316,-0.610352
9365,0.028320,-0.114990,0.993164,-0.976562,-0.427246,-0.305176
9378,0.017334,-0.072388,1.042603,-1.159668,-1.220703,-0.976562
9387,0.015259,-0.021484,1.032227,-1.647949,-1.281738,-1.525879
9397,-0.002930,-0.068848,1.001587,-2.014160,-1.220703,-2.075195
9406,0.020874,-0.013184,1.017212,-1.953125,-1.159668,-2.502441
9416,-0.005249,-0.052124,1.039551,-1.647949,-1.281738,-2.929688
9426,0.017944,-0.033936,1.038574,-1.647949,-1.586914,-3.784180
9435,0.003662,-0.029541,1.020874,-1.953125,-1.464844,-4.272461
9445,0.015137,0.035889,0.993164,-1.892090,-1.464844,-4.455566
9456,0.042358,-0.022705,0.968506,-1.831055,-1.281738,-4.882812
9466,0.032593,-0.071899,0.984863,-1.647949,-1.220703,-5.126953
9476,0.041748,-0.009644,1.005371,-2.258301,-1.281738,-5.126953
9485,0.016235,0.018433,1.014404,-2.746582,-0.976562,-4.943848
9495,0.027466,0.033081,1.010620,-2.929688,-0.854492,-4.394531
9505,-0.015625,-0.001343,1.014893,-2.502441,-0.671387,-3.967285
9515,-0.000977,0.028931,1.038330,-2.319336,-0.244141,-3.295898
9525,-0.020752,0.078613,1.064087,-2.441406,-0.488281,-1.953125
9535,-0.008789,-0.007813,0.971191,-2.136230,-0.366211,-1.403809
9545,-0.000610,-0.062500,0.936646,-1.770020,-0.183105,-0.427246
9555,-0.002563,-0.015991,0.964111,-1.586914,-0.061035,0.366211
9566,-0.007813,-0.051270,0.990723,-1.708984,0.366211,1.464844
9575,-0.024536,-0.018555,0.973877,-2.014160,0.854492,2.441406
9585,-0.057495,-0.120728,0.958008,-2.014160,1.159668,3.845215
9596,-0.073975,-0.045044,1.015503,-1.831055,1.403809,5.371094
9606,-0.068970,-0.077026,0.989258,-1.770020,1.586914,6.225586
9616,-0.102783,-0.077271,0.988525,-2.197266,1.892090,6.896973
9625,-0.044067,0.008667,0.989868,-2.624512,2.319336,7.873535
9635,-0.056274,-0.026855,0.966919,-2.441406,2.502441,8.728027
9645,-0.026489,-0.057129,0.915283,-1.892090,2.319336,9.216309
9655,-0.022583,-0.013062,0.955322,-1.403809,2.624512,9.826660
9665,-0.023315,-0.081787,0.975586,-2.014160,3.051758,10.009766
9676,-0.020752,0.020264,0.998169,-2.624512,3.234863,10.498047
9685,-0.026245,-0.025513,0.983154,-2.380371,3.479004,10.925293
9695,-0.006958,-0.041260,0.986206,-2.258301,3.356934,11.047363
9705,-0.003052,-0.114502,0.994507,-1.708984,2.807617,10.314941
9715,0.010742,-0.034790,1.029785,-2.075195,2.197266,9.521484
9726,-0.013306,-0.038086,0.996582,-2.929688,2.136230,8.422852
9736,0.012207,0.041626,0.996948,-2.624512,2.319336,8.239746
9745,0.010742,-0.051270,0.973877,-1.892090,2.319336,8.239746
9755,0.019165,-0.036499,1.037354,-1.403809,1.953125,7.873535
9765,0.029297,-0.005005,1.090210,-1.403809,1.708984,7.507324
9775,0.020508,0.014771,1.057129,-1.708984,1.403809,7.385254
9785,0.043701,0.010498,1.033325,-1.892090,1.647949,7.507324
9795,0.051880,-0.053101,1.000244,-1.342773,1.892090,7.568359
9807,0.029175,-0.137573,1.025513,-0.732422,1.037598,6.591797
9816,0.040894,-0.028198,1.058228,-0.915527,0.610352,5.798340
9825,0.046997,-0.053101,1.055908,-1.770020,0.427246,5.065918
9835,0.030273,-0.017090,0.970825,-2.136230,0.427246,4.333496
9845,0.037720,-0.003906,0.979736,-1.831055,0.488281,3.723145
9855,0.028809,-0.059692,0.975952,-1.220703,-0.061035,2.868652
9866,0.032104,-0.074219,1.005615,-0.549316,-0.854492,0.854492
9876,0.020630,-0.075562,0.972290,-0.732422,-1.220703,0.000000
9886,0.058472,-0.007202,0.971436,-1.342773,-1.220703,-0.671387
9895,0.053101,-0.083740,0.947388,-1.220703,-1.037598,-1.159668
9905,0.069946,-0.030029,0.938843,-0.976562,-1.281738,-1.770020
9915,0.035767,-0.089355,0.955933,-1.098633,-1.647949,-2.258301
9925,0.028931,-0.030151,0.997925,-1.403809,-1.770020,-2.807617
9938,0.040039,0.009766,0.991821,-2.624512,-1.831055,-2.746582
9947,0.030029,0.048462,0.976318,-2.685547,-1.342773,-2.380371
9957,0.002319,0.011719,0.989990,-2.197266,-1.220703,-1.953125
9966,-0.025024,0.035522,0.991577,-1.892090,-1.403809,-1.708984
9976,-0.027710,-0.007568,1.018921,-1.708984,-1.403809,-1.220703
9985,-0.013184,-0.030151,1.036743,-1.647949,-1.220703,-0.793457
9995,-0.034302,-0.008423,1.003784,-1.770020,-1.220703,-0.488281
10005,-0.033691,-0.043701,1.003418,-1.708984,-0.732422,0.122070
10016,0.015259,-0.021973,1.017212,-1.586914,-0.122070,1.098633
10025,0.000854,-0.067261,0.983032,-1.464844,-0.244141,1.770020
10035,0.023682,-0.069092,1.023560,-1.281738,0.000000,2.258301
10045,0.040649,-0.068359,1.016357,-1.708984,-0.244141,2.624512
10055,0.032837,-0.058960,1.009155,-1.770020,-0.183105,3.173828
10065,-0.002686,-0.015503,0.993042,-1.953125,-0.122070,3.601074
10075,-0.027832,-0.010986,0.998657,-1.953125,0.061035,4.333496
10086,-0.007690,-0.041992,0.951050,-1.342773,0.488281,5.187988
10096,-0.014526,-0.102295,1.013550,-1.098633,0.671387,5.737305
10105,-0.009521,-0.051147,1.015869,-1.403809,0.671387,5.737305
10115,-0.015381,-0.043579,0.985596,-1.953125,0.610352,5.737305
10125,0.008545,-0.001709,0.942871,-2.441406,0.793457,5.187988
10135,0.005493,-0.002075,0.980591,-2.136230,0.976562,4.760742
10145,0.013184,-0.068359,0.960693,-1.770020,0.488281,4.028320
10156,0.033691,-0.043091,1.051880,-1.953125,-0.061035,2.685547
10166,0.047607,-0.010620,1.036255,-2.685547,-0.061035,2.014160
10175,0.064087,0.074951,1.006714,-2.990723,-0.061035,1.403809
10186,0.064575,0.003784,0.950928,-2.624512,-0.183105,0.915527
10196,0.037842,-0.048096,0.980347,-2.075195,-0.671387,0.549316
10205,0.053711,0.017944,1.028931,-2.075195,-1.037598,-0.122070
10217,0.080933,-0.081421,1.000610,-2.075195,-1.770020,-0.976562
10227,0.073608,-0.006592,0.998657,-1.831055,-1.647949,-1.586914
10237,0.086670,-0.058838,1.009521,-1.525879,-1.953125,-2.075195
10246,0.048950,-0.099121,1.010742,-1.220703,-2.075195,-2.807617
10256,0.042969,-0.060181,1.039673,-1.464844,-2.319336,-3.784180
10266,0.033447,-0.067627,1.024902,-1.342773,-2.624512,-4.638672
10275,0.045898,-0.080322,0.990601,-1.464844,-3.051758,-5.554199
10285,0.028931,-0.061646,1.008667,-1.464844,-3.051758,-6.958008
10297,0.026001,-0.049072,1.012329,-0.976562,-3.173828,-7.568359
10306,0.007568,-0.056519,1.033569,-1.281738,-3.356934,-8.239746
10316,0.014526,-0.039185,1.023804,-1.159668,-3.479004,-9.033203
10325,0.026733,-0.052368,0.983032,-0.976562,-3.967285,-9.826660
10335,0.044556,-0.042236,0.976562,-0.732422,-4.028320,-10.253906
10345,0.047119,-0.056030,0.978516,-0.244141,-3.967285,-10.498047
10355,0.043213,-0.083130,0.982178,0.061035,-3.967285,-11.047363
10367,0.006348,-0.069092,0.986572,0.061035,-3.479004,-10.986328
10376,-0.011963,-0.057983,0.959717,-0.305176,-3.051758,-10.864258
10386,-0.008667,-0.007202,0.973511,-0.427246,-2.990723,-10.620117
10396,-0.033691,-0.039551,0.969116,-0.183105,-3.112793,-10.437012
10406,-0.030640,-0.045288,0.971558,0.000000,-3.051758,-10.192871
10415,-0.025391,-0.053223,1.023804,-0.122070,-2.624512,-9.582520
10425,-0.024170,-0.063110,1.019165,-0.427246,-2.197266,-8.056641
10435,-0.014160,0.030151,1.009521,-1.098633,-1.220703,-7.263184
10445,-0.007324,-0.047852,0.943604,-0.854492,-1.159668,-6.286621
10455,-0.008301,-0.004883,0.983887,-0.793457,-0.915527,-5.065918
10465,-0.034058,0.015747,1.000610,-0.915527,-0.366211,-3.845215
10475,-0.065430,0.001953,1.000244,-0.915527,-0.244141,-2.624512
10485,-0.082397,-0.019531,0.978027,-1.159668,0.183105,-1.403809
10495,-0.087402,-0.030151,1.016235,-0.793457,1.159668,0.061035
10506,-0.080200,-0.000122,1.015625,-1.525879,2.014160,1.892090
10516,-0.090820,0.032104,0.997925,-1.647949,2.075195,2.685547
10525,-0.069092,-0.047241,0.978760,-1.281738,2.502441,3.845215
10536,-0.057495,-0.054443,1.027954,-0.976562,2.990723,4.821777
10545,-0.053223,0.015503,1.027344,-1.281738,3.479004,6.103516
10555,-0.050293,-0.011597,1.015015,-1.342773,3.784180,7.263184
10567,-0.014282,0.016113,0.997070,-1.403809,4.272461,8.972168
10577,0.009277,0.005859,1.005981,-1.464844,4.333496,9.582520
10586,0.009033,-0.089600,0.976074,-1.342773,4.089355,10.009766
10596,0.000000,0.015991,0.998047,-1.770020,4.211426,10.131836
10605,0.001587,0.018433,0.986328,-1.831055,4.028320,10.498047
10615,-0.024048,-0.047241,0.979004,-1.342773,4.089355,10.986328
10626,0.008057,0.028320,0.987549,-1.464844,4.272461,11.352539
10635,-0.020142,0.008057,1.005005,-1.342773,4.333496,12.145996
10647,-0.022217,-0.068237,0.981934,-1.098633,4.089355,12.023926
10656,-0.027222,-0.000122,1.005493,-1.525879,4.150391,12.084961
10666,-0.035400,-0.032349,0.974487,-1.403809,4.272461,11.779785
10676,-0.047852,-0.070312,0.985229,-1.098633,4.516602,12.084961
10685,-0.024902,-0.062622,0.986694,-1.037598,4.516602,12.145996
10695,-0.015137,0.000366,1.012207,-1.281738,4.272461,12.268066
10708,0.020752,-0.074707,0.987427,-0.976562,4.455566,13.061523
10717,0.040039,-0.020996,1.005981,-1.403809,4.394531,13.549805
10726,0.000732,-0.037720,0.985840,-1.831055,4.516602,14.038086
10736,0.003784,-0.095703,1.010742,-1.525879,4.699707,14.404297
10746,-0.002319,-0.074341,0.998413,-1.525879,4.211426,14.526367
10755,-0.001099,-0.012207,1.045044,-1.708984,4.028320,14.282227
10765,0.033936,-0.041870,1.008057,-1.159668,3.967285,13.916016
10778,0.080200,0.017822,1.022827,-1.342773,3.173828,12.268066
10787,0.057373,-0.057495,1.001953,-1.037598,2.624512,11.535645
10796,0.096802,-0.132324,0.992065,-0.793457,2.319336,10.314941
10806,0.085571,-0.045898,1.009399,-1.220703,2.136230,9.277344
10815,0.100952,-0.005737,1.004639,-1.342773,1.647949,8.117676
10825,0.071533,-0.035400,0.986816,-1.281738,1.403809,7.263184
10836,0.074585,-0.077759,0.972778,-1.525879,1.220703,6.774902
10845,0.055298,-0.008911,0.996704,-1.525879,0.793457,6.164551
10856,0.012695,-0.024292,1.003540,-1.525879,0.305176,5.065918
10866,0.008423,-0.070801,0.981812,-1.525879,0.183105,4.638672
10875,0.013672,0.007446,0.984253,-1.647949,0.305176,4.272461
10885,-0.020386,-0.016968,0.996826,-1.464844,0.061035,3.723145
10895,-0.003662,-0.088013,0.978516,-1.525879,-0.305176,3.051758
10905,0.008789,-0.063721,1.013428,-1.525879,-0.183105,2.258301
10918,-0.003174,0.012939,1.015259,-1.708984,0.000000,1.220703
10927,0.011719,-0.081909,0.964111,-1.464844,-0.061035,0.671387
10936,0.031128,-0.035522,1.013306,-1.586914,0.244141,0.488281
10946,0.019653,0.020874,0.992432,-1.708984,0.122070,0.488281
10955,0.028809,-0.012817,0.998901,-1.770020,-0.061035,0.549316
10965,0.043701,-0.120605,0.970825,-1.098633,0.122070,1.220703
10975,0.048950,-0.052246,0.999390,-1.342773,0.061035,1.892090
10988,-0.024780,-0.031738,0.975220,-1.708984,0.427246,3.723145
10997,-0.032837,-0.075317,0.965332,-1.403809,0.915527,4.821777
11007,-0.042114,-0.010864,1.000977,-1.647949,1.342773,5.310059
11016,-0.046387,0.020630,1.001953,-1.831055,1.525879,5.859375
11026,-0.038696,-0.045288,1.013916,-1.464844,1.525879,6.408691
11035,0.001587,-0.065063,0.988892,-1.525879,1.586914,7.019043
11045,0.009155,-0.004639,1.032349,-1.770020,1.708984,7.507324
11056,0.021606,-0.004150,0.999512,-1.403809,2.258301,8.850098
11066,0.030884,-0.049927,0.988403,-1.708984,2.380371,9.216309
11075,0.042480,0.012451,1.037598,-2.014160,2.319336,9.460449
11085,0.026245,0.011353,0.996582,-2.014160,2.319336,9.765625
11096,0.023926,-0.003662,0.988770,-1.770020,2.258301,9.887695
11105,0.021729,-0.005371,1.003540,-1.831055,2.197266,10.131836
11115,0.011475,-0.044067,1.011108,-1.647949,2.319336,10.131836
11125,0.011719,0.001465,1.041870,-1.464844,2.502441,10.375977
11135,0.011230,0.004150,0.991089,-1.403809,2.441406,10.192871
11146,0.036743,-0.070801,0.968872,-1.403809,1.892090,9.887695
11155,0.060425,-0.032471,0.994141,-1.281738,1.647949,9.582520
11166,0.021729,-0.021484,1.003662,-1.525879,1.403809,9.521484
11175,0.023193,-0.053589,0.994385,-1.831055,1.586914,9.460449
11185,0.033936,-0.021362,1.008789,-1.831055,1.770020,9.704590
11195,0.015015,-0.054199,0.995850,-1.525879,2.014160,9.887695
11206,0.016479,-0.019043,0.974365,-1.586914,1.953125,10.070801
11216,0.054199,-0.089111,0.976929,-1.159668,1.770020,9.948730
11225,0.053345,-0.066895,1.004639,-1.220703,1.403809,9.826660
11235,0.041626,-0.023071,0.987915,-1.586914,1.281738,9.826660
11246,0.032593,0.031616,1.022461,-1.892090,1.647949,10.070801
11255,0.017456,-0.030518,0.970459,-1.586914,2.197266,10.192871
11267,0.012695,-0.086060,1.038940,-1.464844,1.586914,9.765625
11277,0.010742,-0.017334,1.007080,-1.770020,1.342773,9.338379
11287,0.037720,0.045166,1.024170,-2.563477,1.281738,9.033203
11296,0.029175,-0.033203,0.968750,-2.258301,1.281738,8.728027
11305,0.044922,-0.059570,0.977661,-1.892090,1.220703,8.300781
11315,0.050659,-0.022949,1.028320,-2.136230,1.220703,7.507324
11325,0.032593,-0.017212,0.997681,-2.075195,1.098633,6.591797
11335,0.081665,0.015381,1.033569,-2.380371,0.793457,5.554199
11346,0.067993,-0.049805,0.991577,-1.647949,0.183105,3.906250
11356,0.067749,0.023315,1.045776,-2.014160,-0.183105,3.234863
11365,0.060181,-0.027344,0.981201,-1.770020,-0.061035,2.746582
11376,0.067139,-0.046265,0.982300,-1.647949,0.122070,2.502441
11385,0.085815,-0.008789,1.003174,-1.220703,0.244141,2.197266
11396,0.068970,-0.058838,0.962891,-1.281738,0.000000,1.342773
11405,0.079834,-0.016235,1.000244,-1.770020,-0.366211,0.183105
11417,0.069458,-0.037598,0.973511,-1.953125,-1.220703,-0.244141
11426,0.040771,0.018311,1.041504,-2.075195,-1.403809,-0.305176
11435,0.053223,0.032715,1.028320,-1.953125,-1.464844,-0.488281
11445,0.045166,-0.041626,0.967285,-1.586914,-1.098633,0.061035
11456,0.072144,-0.012695,1.009888,-1.281738,-1.098633,0.305176
11465,0.087280,0.005615,1.021973,-1.281738,-1.403809,-0.061035
11475,0.064575,-0.048828,0.975220,-1.098633,-1.647949,0.000000
11486,0.082764,0.044434,1.018311,-1.525879,-1.831055,-0.610352
11496,0.061157,-0.035400,0.972534,-1.464844,-2.014160,-0.793457
11505,0.032593,-0.043335,0.990967,-1.281738,-2.380371,-0.915527
11515,0.058716,0.000854,1.037109,-1.403809,-2.502441,-1.586914
11525,0.071289,-0.012573,1.010742,-1.403809,-2.624512,-1.770020
11535,0.024414,0.007690,0.988403,-1.770020,-2.319336,-1.647949
11546,0.046509,0.077393,0.968506,-1.647949,-2.136230,-2.258301
11556,0.022461,-0.045654,0.985107,-1.159668,-2.075195,-2.441406
11565,0.002319,0.003296,1.017456,-1.647949,-2.319336,-3.234863
11575,0.020874,0.058594,1.058350,-2.197266,-2.136230,-3.845215
11585,0.022095,0.045898,1.009277,-2.380371,-1.525879,-4.089355
11595,0.027466,0.032349,0.972168,-2.197266,-1.281738,-3.662109
11605,0.029663,0.073364,0.983643,-2.197266,-1.892090,-3.784180
11615,0.046387,0.060425,1.033447,-1.953125,-2.258301,-3.723145
11627,0.046265,-0.035278,1.006470,-1.770020,-1.770020,-2.685547
11636,0.047607,0.032104,1.027466,-2.258301,-1.770020,-2.380371
11646,0.048828,0.069824,0.994751,-2.563477,-2.258301,-2.746582
11655,0.082520,-0.001953,0.997803,-1.892090,-2.380371,-2.502441
11665,0.046753,-0.045776,0.983032,-1.220703,-2.197266,-2.380371
11675,0.076538,-0.033447,1.029785,-1.037598,-2.258301,-2.563477
11685,0.043579,-0.031006,1.015747,-1.159668,-2.685547,-3.295898
11696,0.066772,-0.034790,0.979248,-1.403809,-2.136230,-3.845215
11706,0.029053,-0.025024,0.973511,-1.525879,-1.953125,-4.394531
11716,0.043213,-0.014404,1.041626,-1.892090,-2.441406,-5.676270
11725,0.008789,-0.023071,1.024048,-2.075195,-2.807617,-6.652832
11735,0.035400,-0.049561,1.020386,-1.586914,-2.807617,-7.263184
11745,0.065918,-0.073730,0.996826,-1.342773,-2.990723,-7.751465
11755,0.053101,-0.068481,0.957886,-1.098633,-3.173828,-7.995605
11766,0.058472,-0.052612,0.970093,-1.220703,-3.051758,-8.300781
11776,0.056396,-0.052612,0.999512,-1.281738,-2.929688,-7.995605
11785,0.023193,-0.034180,1.007446,-1.464844,-2.563477,-7.873535
11795,0.016357,-0.017090,1.007446,-1.525879,-2.868652,-7.934570
11805,0.011108,-0.028320,1.003052,-1.464844,-3.051758,-8.239746
11815,0.004272,-0.041016,1.000366,-1.464844,-3.173828,-8.544922
11826,0.000122,-0.023193,1.014771,-1.647949,-2.746582,-8.117676
11836,-0.018677,-0.044800,1.000854,-1.586914,-2.441406,-8.117676
11846,-0.012207,-0.014404,0.998779,-1.892090,-2.685547,-8.056641
11856,-0.011353,0.042114,1.006470,-2.075195,-2.624512,-7.995605
11865,-0.000244,0.008545,0.988525,-1.708984,-2.502441,-7.751465
11875,0.026489,-0.042847,0.988770,-1.403809,-2.014160,-7.141113
11885,0.022095,-0.012939,1.008667,-1.403809,-1.953125,-6.591797
11896,0.030518,-0.010620,1.010620,-1.525879,-1.831055,-6.042480
11906,0.032471,-0.037598,0.990356,-1.586914,-1.708984,-5.920410
11915,0.051392,-0.039429,0.975098,-1.586914,-1.647949,-5.859375
11925,0.046997,-0.020752,0.985840,-1.770020,-1.892090,-5.615234
11935,0.021973,-0.018311,1.010498,-1.831055,-1.770020,-5.004883
11945,0.017090,-0.044189,1.004028,-1.831055,-1.525879,-4.577637
11955,0.010620,-0.033813,1.018066,-1.953125,-1.525879,-4.760742
11965,-0.002808,-0.008057,1.015625,-1.953125,-1.708984,-5.004883
11977,-0.025635,-0.022705,0.990479,-1.586914,-1.892090,-5.676270
11986,-0.010742,-0.043091,0.992676,-1.342773,-1.647949,-5.737305
11996,-0.017578,-0.024780,1.018799,-1.525879,-1.525879,-5.676270
12006,-0.036865,-0.024170,1.007690,-1.586914,-1.281738,-5.676270
12015,-0.044556,-0.022339,0.997559,-1.586914,-0.915527,-5.737305
12025,-0.034912,-0.010986,0.993042,-1.647949,-0.549316,-5.798340
12035,-0.035156,-0.002075,0.998291,-1.464844,-0.427246,-6.103516
12047,-0.019287,-0.005127,1.008057,-1.464844,-0.732422,-6.530762
12057,-0.000366,0.000854,1.017578,-1.770020,-0.488281,-6.591797
12066,0.006958,0.011719,1.025879,-1.770020,-0.305176,-6.591797
12076,0.007690,0.010620,1.011108,-1.831055,-0.244141,-6.286621
12086,0.017578,0.019287,1.001709,-1.831055,0.000000,-6.347656
12095,0.022583,0.015259,0.997437,-1.647949,-0.061035,-6.164551
12107,0.008667,0.008911,0.993774,-1.464844,0.000000,-5.920410
12117,0.001587,0.006592,0.992432,-1.525879,0.183105,-6.042480
12126,-0.005249,0.008301,0.996826,-1.342773,0.122070,-5.981445
12136,-0.004395,0.018921,1.000977,-1.647949,0.305176,-6.225586
12146,-0.001099,0.030029,1.008301,-1.586914,0.488281,-6.164551
12155,-0.002197,0.028687,1.012939,-1.586914,0.671387,-6.042480
12165,-0.001099,0.025513,1.014160,-1.342773,0.671387,-5.615234
12175,0.005615,0.024170,1.010254,-1.281738,0.610352,-4.211426
12186,-0.000366,0.038208,1.000366,-1.525879,0.976562,-3.662109
12196,0.000000,0.032593,0.994995,-1.647949,1.098633,-3.173828
12206,0.000366,0.029907,1.000488,-1.403809,0.915527,-2.685547
12215,-0.003418,0.033691,1.008301,-1.525879,1.220703,-2.563477
12226,-0.014404,0.045288,1.019653,-1.464844,1.159668,-2.197266
12235,-0.022095,0.062500,1.021973,-1.525879,1.464844,-2.014160
12245,-0.017456,0.082153,1.019165,-1.647949,1.647949,-0.854492
12257,-0.038330,0.111084,1.036255,-1.037598,1.953125,0.244141
12267,-0.062500,0.045654,1.066040,-0.976562,2.197266,1.464844
12276,0.070435,-0.006836,1.083008,-0.549316,2.624512,2.746582
12286,0.046265,-0.076416,1.057129,-0.183105,2.746582,4.028320
12295,0.002930,-0.140625,1.010376,0.244141,2.319336,4.882812
12305,0.078491,-0.154663,0.998047,0.305176,2.258301,5.920410
12315,0.080811,-0.155029,0.963257,-0.122070,2.014160,6.835937
12327,0.125122,-0.148560,0.919800,-0.793457,1.586914,7.690430
12336,0.114868,-0.134033,0.958130,-1.342773,1.586914,8.605957
12345,0.080811,-0.147095,1.008545,-1.525879,1.586914,9.033203
12356,0.051147,-0.168213,1.011597,-1.708984,1.159668,9.155273
12366,0.028442,-0.171265,0.991455,-1.464844,0.732422,9.094238
12375,0.029175,-0.142090,0.981689,-1.342773,0.427246,8.972168
12386,0.006836,-0.082397,0.978638,-1.525879,0.488281,8.605957
12396,0.001465,-0.052612,0.942383,-1.647949,0.854492,8.483887
12405,0.036621,-0.077393,0.953125,-1.708984,1.281738,8.056641
12415,0.045532,-0.086426,0.997559,-1.586914,1.037598,7.324219
12425,0.038696,-0.097900,1.030640,-1.464844,1.159668,6.164551
12436,0.050781,-0.116821,1.026245,-1.403809,0.976562,5.065918
12445,0.059082,-0.126953,1.000122,-1.342773,0.732422,4.089355
12458,0.060425,-0.118896,0.990723,-1.220703,0.000000,2.075195
12467,0.059814,-0.108154,0.983887,-1.220703,-0.366211,1.342773
12477,0.057495,-0.110596,0.978149,-1.403809,-0.488281,0.854492
12487,0.050049,-0.110474,0.986328,-1.342773,-0.244141,0.427246
12496,0.037476,-0.102539,0.996704,-1.281738,-0.183105,0.366211
12505,0.036011,-0.108521,0.994629,-1.525879,-0.488281,-0.061035
12515,0.030029,-0.114502,0.991577,-1.464844,-0.793457,-0.610352
12528,0.028076,-0.108032,1.000977,-1.342773,-1.220703,-1.770020
12537,0.020508,-0.105469,0.996826,-1.586914,-1.586914,-2.258301
12547,0.007202,-0.098145,0.982910,-1.342773,-1.525879,-2.563477
12557,0.004883,-0.092407,0.979248,-1.464844,-1.281738,-2.807617
12566,0.006836,-0.082031,0.992554,-1.708984,-1.159668,-2.746582
12576,-0.000854,-0.075317,1.014404,-1.647949,-0.915527,-2.807617
12586,-0.006714,-0.081299,1.032593,-1.708984,-1.037598,-2.807617
12596,-0.005249,-0.088257,1.031982,-1.464844,-1.281738,-3.112793
12606,-0.008423,-0.086060,1.006104,-1.281738,-1.220703,-3.173828
12615,-0.004883,-0.077393,0.991211,-1.220703,-1.220703,-3.051758
12625,-0.003540,-0.070068,0.981201,-1.037598,-0.976562,-2.807617
12636,-0.007690,-0.068848,0.982544,-1.159668,-0.610352,-2.258301
12646,-0.014893,-0.076904,0.988281,-1.098633,-0.244141,-1.953125
12655,-0.023560,-0.081299,0.989380,-1.281738,-0.061035,-1.647949
12665,-0.029419,-0.086304,0.992065,-1.098633,0.366211,-0.671387
12677,-0.035278,-0.086182,1.000244,-1.037598,0.793457,-0.122070
12687,-0.039917,-0.086792,0.999023,-0.915527,0.793457,0.610352
12697,-0.042480,-0.086426,0.993774,-1.159668,1.037598,1.403809
12706,-0.046387,-0.088745,0.984619,-1.281738,1.403809,2.441406
12716,-0.046509,-0.092407,0.976562,-1.159668,1.831055,3.479004
12725,-0.031738,-0.095703,0.984009,-1.464844,2.136230,4.333496
12738,0.000000,-0.111816,1.000366,-1.464844,2.563477,5.554199
12748,0.004761,-0.113159,0.995972,-1.464844,2.380371,5.920410
12757,0.013672,-0.104614,0.994507,-1.525879,2.441406,5.859375
12766,0.024658,-0.092651,0.998901,-1.586914,2.441406,5.859375
12776,0.040405,-0.085571,0.999146,-1.342773,2.502441,5.859375
12785,0.053955,-0.087769,0.995361,-1.403809,2.624512,5.859375
12796,0.052734,-0.088013,0.986694,-1.525879,2.441406,5.676270
12805,0.065674,-0.102173,0.982544,-1.464844,2.441406,6.164551
12817,0.081421,-0.107910,0.999756,-1.464844,2.502441,6.408691
12827,0.070190,-0.146851,0.997314,-1.342773,2.197266,6.469727
12836,0.062500,-0.173950,1.014893,-1.342773,1.770020,6.103516
12845,0.056763,-0.170898,1.030396,-1.403809,1.708984,5.676270
12856,0.054321,-0.174927,1.020264,-1.647949,1.342773,4.943848
12866,0.048584,-0.194214,0.994873,-1.525879,0.976562,3.967285
12877,0.039063,-0.235474,0.963135,-1.220703,0.366211,2.136230
12887,0.046509,-0.238770,0.986084,-1.464844,0.488281,1.342773
12896,0.059448,-0.223145,1.000488,-1.708984,0.671387,1.098633
12906,0.060547,-0.206421,0.995972,-1.831055,0.549316,0.976562
12915,0.060791,-0.212402,0.978760,-1.464844,0.122070,1.037598
12926,0.043213,-0.233398,0.977173,-1.281738,0.305176,0.915527
12935,0.032227,-0.245972,0.991089,-1.281738,0.122070,0.488281
12947,0.007935,-0.211548,1.008911,-1.770020,-0.061035,-1.831055
12957,-0.002808,-0.190918,0.996948,-1.586914,-0.305176,-2.807617
12967,0.039429,-0.215698,0.981079,-1.586914,-0.366211,-3.723145
12976,0.044189,-0.213745,0.972168,-1.586914,-0.793457,-4.455566
12986,0.046143,-0.217896,0.975586,-1.708984,-0.732422,-4.882812
12996,0.055786,-0.199951,0.993530,-1.708984,-0.915527,-5.126953
13005,0.027100,-0.189697,0.985840,-1.953125,-0.915527,-5.065918
13017,0.048706,-0.183716,1.004639,-1.953125,-0.549316,-4.638672
13027,0.019897,-0.194336,0.989624,-1.892090,-0.854492,-4.699707
13036,0.015015,-0.210083,1.008057,-1.708984,-0.793457,-5.187988
13046,0.036743,-0.226074,1.007080,-1.525879,-1.098633,-5.310059
13056,0.030518,-0.245972,0.987061,-1.586914,-0.976562,-5.981445
13066,0.024292,-0.255005,0.973022,-1.647949,-1.037598,-6.530762
13076,0.021729,-0.244751,0.965210,-2.014160,-1.281738,-7.995605
13086,0.036499,-0.217041,1.004517,-2.136230,-1.586914,-8.666992
13096,0.046997,-0.246582,1.014771,-2.075195,-1.892090,-9.704590
13106,0.057739,-0.228638,1.000977,-1.953125,-2.319336,-10.681152
13116,0.089355,-0.224609,0.975586,-1.953125,-2.441406,-11.108398
13126,0.111938,-0.239990,0.953125,-2.258301,-2.990723,-10.681152
13136,0.095703,-0.255615,0.939453,-2.197266,-2.868652,-10.131836
13146,0.069092,-0.245728,0.960815,-2.502441,-3.112793,-9.399414
13157,0.046387,-0.192749,1.051025,-2.746582,-2.929688,-8.056641
13167,0.042480,-0.217285,1.010864,-2.319336,-2.990723,-7.324219
13176,0.030640,-0.273682,0.931763,-2.258301,-3.051758,-6.164551
13186,0.018066,-0.307007,0.882690,-2.319336,-3.173828,-4.577637
13196,-0.006470,-0.256104,0.907104,-2.746582,-2.807617,-2.746582
13206,0.060913,-0.210815,0.998657,-2.990723,-2.685547,-0.671387
13217,0.098877,-0.249878,1.020508,-2.136230,-2.502441,3.234863
13227,0.051025,-0.426025,0.935181,-2.197266,-2.197266,4.455566
13236,0.032471,-0.384033,0.968140,-2.868652,-2.441406,4.272461
13246,-0.012329,-0.307007,1.000488,-3.051758,-2.868652,3.112793
13255,-0.031250,-0.297363,0.949219,-2.563477,-3.112793,1.525879
13266,-0.037598,-0.367676,0.869629,-1.953125,-2.319336,0.915527
13276,-0.030029,-0.353394,0.935791,-1.708984,-1.647949,0.183105
13287,0.003174,-0.319092,1.006836,-1.464844,-2.014160,-1.525879
13297,0.002319,-0.327393,0.915161,-1.220703,-1.892090,-2.441406
13307,0.009277,-0.317505,0.924316,-1.525879,-1.525879,-3.112793
13316,0.026611,-0.337280,0.911499,-1.892090,-1.098633,-4.089355
13326,0.029175,-0.310669,0.958374,-2.014160,-1.098633,-5.798340
13336,0.053589,-0.265869,1.018311,-2.014160,-1.831055,-7.812500
13346,0.078613,-0.237671,1.023071,-1.831055,-2.990723,-10.192871
13356,0.071777,-0.211670,1.027222,-1.464844,-3.967285,-12.329102
13366,0.090698,-0.276978,0.979858,-0.854492,-4.760742,-14.404297
13376,0.065430,-0.259399,0.980469,-1.220703,-4.882812,-15.441895
13386,0.043701,-0.232178,0.933105,-1.770020,-4.699707,-16.052246
13396,-0.015381,-0.113770,0.990112,-1.892090,-4.943848,-17.456055
13406,-0.051392,-0.167114,0.914795,-1.403809,-4.577637,-19.165039
13416,-0.061646,-0.181763,0.991333,-1.159668,-4.150391,-20.446777
13426,-0.099243,-0.101685,1.072510,-1.220703,-4.211426,-22.583008
13436,-0.064941,-0.101440,1.095703,-0.427246,-4.699707,-26.000977
13446,-0.136108,-0.035278,1.042358,-0.122070,-5.187988,-27.587891
13456,-0.070312,-0.016357,1.015625,0.183105,-4.516602,-27.770996
13466,-0.104248,0.005493,0.994263,0.366211,-4.028320,-28.015137
13475,0.011353,0.016846,0.945679,0.488281,-3.479004,-27.648926
13486,0.031616,0.022461,0.992676,0.122070,-2.502441,-25.817871
13497,0.067139,0.057617,1.001587,-1.037598,-1.586914,-21.667480
13507,0.031982,0.123535,1.054443,-1.037598,-1.220703,-19.226074
13517,0.033081,0.104492,1.037231,-0.793457,-0.976562,-16.479492
13526,-0.022217,0.064941,1.000366,-0.671387,-0.183105,-13.061523
13536,-0.100464,0.039185,0.969116,-0.549316,0.305176,-10.742188
13546,-0.094849,0.045166,1.006104,-0.915527,1.037598,-8.178711
13556,-0.128540,0.046753,1.026001,-1.159668,2.075195,-6.347656
13566,-0.109985,0.032959,0.997192,-1.525879,2.136230,-4.638672
13575,0.005249,0.011963,1.062378,-1.708984,2.746582,-0.610352
13586,-0.033569,-0.037109,0.995239,-1.831055,2.563477,0.427246
13596,-0.003662,-0.008667,1.002319,-2.075195,2.441406,1.892090
13606,0.084961,-0.016235,1.000000,-2.136230,2.563477,3.295898
13616,0.085083,-0.089233,0.947266,-1.953125,2.563477,4.272461
13626,0.087036,-0.076660,0.963013,-1.892090,2.380371,5.249023
13637,0.074219,-0.052734,0.996826,-1.831055,3.295898,7.568359
13647,-0.030151,-0.114990,0.986816,-1.708984,3.356934,7.263184
13656,-0.040283,-0.095337,1.015015,-1.586914,2.990723,6.164551
13665,-0.017944,-0.110229,1.032715,-1.281738,2.563477,5.004883
13676,-0.018433,-0.139893,1.034180,-1.037598,1.892090,3.417969
13686,0.026733,-0.117188,1.011963,-0.915527,1.220703,2.136230
13696,0.072632,-0.132812,0.997070,-0.976562,1.037598,1.586914
13706,0.042847,-0.138428,0.972290,-1.037598,1.098633,1.586914
13719,0.097412,-0.088135,0.979980,-1.159668,2.136230,2.136230
13729,0.041260,-0.149170,0.952515,-1.037598,1.892090,3.112793
13738,0.014404,-0.082520,0.995850,-1.281738,1.037598,3.784180
13748,0.024292,-0.095337,1.035522,-1.464844,1.037598,4.699707
13757,-0.081299,-0.146484,1.010498,-1.159668,0.671387,5.432129
13767,-0.102295,-0.108032,1.035278,-1.464844,0.549316,5.615234
13777,-0.100220,-0.065308,1.032471,-1.098633,2.197266,7.873535
13786,-0.118164,-0.148071,0.984863,-1.342773,2.319336,9.155273
13796,-0.026367,-0.099487,1.007813,-1.708984,2.197266,10.742188
13806,-0.067261,-0.162231,0.959717,-1.647949,2.746582,12.878418
13816,-0.068115,-0.130493,0.973999,-1.647949,3.234863,14.709473
13826,-0.034058,-0.118408,0.985718,-1.586914,4.638672,17.150879
13836,-0.089111,-0.189209,0.966187,-1.525879,5.432129,18.798828
13847,-0.031860,-0.123901,1.029541,-1.342773,4.821777,21.118164
13857,-0.042480,-0.186035,1.000000,-1.220703,4.455566,22.216797
13867,-0.015991,-0.117310,0.982544,-1.525879,4.577637,23.193359
13876,-0.012695,-0.178711,0.983154,-1.403809,5.493164,24.841309
13886,-0.016235,-0.083130,0.979980,-1.281738,6.225586,25.939941
13896,0.010132,-0.014282,0.950684,-1.525879,6.286621,26.428223
13906,-0.007446,-0.110840,0.964844,-1.525879,6.469727,27.832031
13915,-0.086792,-0.139404,0.942139,-1.586914,6.286621,28.076172
13927,-0.019287,-0.055664,1.031494,-1.586914,5.859375,28.991699
13937,0.025024,-0.021484,0.999878,-1.525879,6.408691,29.724121
13946,0.013794,0.003174,0.969482,-1.464844,6.469727,30.273437
13955,-0.045166,-0.021118,0.792847,-0.366211,6.347656,30.578613
13966,0.034302,-0.116699,0.969727,0.000000,6.713867,30.944824
13976,0.089722,-0.160767,1.014038,-0.305176,6.530762,31.127930
13987,-0.000488,-0.066406,0.987183,-1.281738,5.737305,29.907227
13997,-0.005615,-0.060791,0.930420,-0.793457,5.371094,28.991699
14007,0.016357,-0.154541,1.004883,-0.427246,4.577637,27.709961
14016,0.116455,-0.095947,1.094116,-0.732422,4.455566,26.306152
14026,0.052246,-0.100708,1.022827,-1.037598,3.967285,24.841309
14036,0.181396,-0.188965,0.927856,-1.220703,2.990723,23.498535
14046,0.140137,-0.020386,1.126953,-1.525879,2.563477,22.216797
14057,0.117065,0.131714,1.200073,-1.525879,2.136230,20.751953
14066,-0.175293,-0.082520,0.916748,-1.281738,1.098633,18.676758
14076,-0.044800,-0.133301,0.926270,-0.976562,1.098633,17.333984
14085,0.160034,-0.065674,1.001465,-0.915527,1.220703,16.601562
14096,-0.030640,0.089844,0.953735,-0.854492,0.305176,14.953613
14105,0.024658,-0.182861,0.961426,-0.488281,0.610352,15.014648
14116,0.132446,-0.315186,1.046631,-0.854492,0.732422,14.526367
14126,0.056885,-0.180054,1.135254,-1.831055,0.061035,13.305664
14137,-0.004272,-0.102783,0.927734,-2.014160,-0.305176,11.962891
14147,0.025513,-0.167236,1.027832,-0.732422,-0.122070,11.718750
14157,-0.037231,-0.162231,1.007202,-0.671387,-0.305176,10.864258
14166,-0.026001,-0.159790,0.991211,-0.488281,-0.427246,9.887695
14176,0.047241,-0.179687,1.003418,-0.549316,0.122070,10.009766
14186,0.009766,-0.106567,0.988647,-0.793457,0.305176,10.559082
14198,0.104980,-0.190552,0.968994,0.183105,0.183105,12.084961
14208,0.095703,-0.157837,1.049927,0.000000,0.244141,12.695313
14217,0.124878,-0.169067,1.038330,-0.244141,-0.427246,12.817383
14227,0.111084,-0.123291,0.966553,-0.427246,-0.549316,13.244629
14237,0.107178,-0.119995,1.016968,-0.610352,-0.793457,13.610840
14246,0.119141,-0.136353,0.986084,-0.427246,-1.159668,14.160156
14256,0.117065,-0.172607,0.993408,0.061035,-1.342773,14.587402
14267,0.147827,-0.143555,1.036011,0.488281,-2.075195,15.075684
14277,0.041138,-0.152588,0.978271,0.488281,-2.441406,15.258789
14286,0.002075,-0.150757,0.956909,0.427246,-2.624512,15.441895
14296,-0.060547,-0.138062,0.901245,0.427246,-2.258301,15.441895
14305,-0.029053,-0.134277,0.956055,0.488281,-1.831055,15.319824
14316,-0.031128,-0.141724,0.933228,0.305176,-1.525879,15.563965
14326,-0.014893,-0.182861,0.932739,0.061035,-1.647949,15.502930
14337,0.001221,-0.121704,0.998291,-0.427246,-1.586914,16.479492
14347,0.023682,-0.112183,1.005005,0.000000,-1.342773,16.967773
14356,0.025146,-0.168945,1.008789,0.305176,-0.549316,18.066406
14366,0.025879,-0.236694,0.982178,0.366211,-0.732422,17.822266
14377,0.031128,-0.200684,0.999512,-0.122070,-0.854492,17.761230
14386,0.017578,-0.199951,0.987671,-0.061035,-1.098633,16.723633
14396,0.043213,-0.220703,0.962891,0.000000,-1.525879,15.075684
14407,0.042480,-0.251831,0.995728,-0.244141,-2.319336,11.840820
14417,0.035278,-0.230103,1.011841,-0.488281,-2.746582,10.192871
14426,0.009399,-0.194336,0.972656,-0.732422,-3.417969,8.666992
14436,0.020752,-0.195679,0.952637,-0.549316,-3.112793,6.896973
14446,0.033569,-0.270264,0.978271,-0.244141,-2.868652,6.286621
14456,0.001953,-0.243774,0.965332,-0.671387,-2.929688,5.676270
14466,-0.016846,-0.194580,0.982178,-0.793457,-2.624512,5.249023
14476,-0.033691,-0.157715,1.010010,-0.732422,-2.746582,5.859375
14488,-0.049683,-0.268066,0.971313,-0.244141,-2.502441,6.896973
14497,-0.042603,-0.244507,0.973389,-0.671387,-2.136230,6.958008
14507,-0.037598,-0.159668,0.989746,-0.732422,-2.136230,6.652832
14517,0.029175,-0.161377,0.991699,-0.244141,-1.647949,6.713867
14527,0.089111,-0.241699,1.005615,0.000000,-1.586914,6.286621
14536,0.115234,-0.246338,1.010010,-0.244141,-2.258301,5.859375
14546,0.075928,-0.147339,1.002197,-0.549316,-2.441406,5.187988
14557,0.116577,-0.204102,1.002441,15.136719,-2.990723,3.356934
14567,0.142090,-0.261353,1.000366,0.122070,-3.295898,2.197266
14576,0.129883,-0.166016,1.034546,-0.061035,-4.089355,0.854492
14586,0.120239,-0.106567,1.012451,0.061035,-4.882812,-0.488281
14596,0.124390,-0.169067,1.031372,0.549316,-5.310059,-1.892090
14606,0.137451,-0.253662,0.997925,0.427246,-5.920410,-3.051758
14617,0.120972,-0.235596,1.017700,-0.122070,-7.202148,-5.554199
14627,0.110107,-0.224487,0.975952,-0.122070,-7.324219,-6.713867
14636,0.129150,-0.253784,0.998535,0.061035,-7.629395,-7.568359
14646,0.090820,-0.249512,1.004761,-0.183105,-8.056641,-8.666992
14656,0.100952,-0.213257,1.036743,0.000000,-8.422852,-10.009766
14666,0.075195,-0.279785,0.980103,-0.122070,-8.728027,-10.925293
14676,0.099609,-0.225830,1.007813,-0.122070,-8.666992,-11.779785
14687,0.082886,-0.242065,0.955566,0.305176,-9.277344,-12.268066
14697,0.085083,-0.296509,0.978516,0.427246,-9.704590,-12.145996
14706,0.036865,-0.229980,0.987427,0.305176,-9.399414,-11.779785
14716,0.024292,-0.269043,0.980225,0.671387,-9.460449,-11.413574
14726,-0.000122,-0.320435,0.927002,0.671387,-9.399414,-10.681152
14736,-0.026123,-0.257202,0.939819,0.427246,-9.094238,-9.948730
14746,-0.049561,-0.241943,0.918579,0.244141,-8.422852,-9.277344
14756,-0.048584,-0.235229,0.959229,0.366211,-7.812500,-8.361816
14767,-0.072021,-0.225952,0.974487,-0.549316,-6.958008,-6.835937
14777,-0.052612,-0.203003,0.964233,-0.305176,-6.347656,-5.554199
14787,-0.059448,-0.253784,0.937134,-0.610352,-5.859375,-4.333496
14796,-0.068359,-0.235352,0.971924,-0.854492,-5.432129,-3.540039
14806,-0.052124,-0.251221,0.955200,-0.854492,-5.065918,-2.624512
14817,-0.052979,-0.257935,0.959595,-1.037598,-4.882812,-2.075195
14827,-0.045776,-0.225708,1.008057,-1.403809,-4.577637,-1.403809
14836,-0.037109,-0.218262,0.996216,-1.342773,-4.150391,-1.037598
14846,-0.040405,-0.248169,1.014526,-1.220703,-4.272461,-0.671387
14856,-0.053223,-0.298950,0.965698,-1.220703,-4.089355,-0.244141
14867,-0.045898,-0.242432,0.964355,-1.647949,-3.662109,-0.183105
14876,-0.030029,-0.242187,0.989624,-1.831055,-3.540039,-0.183105
14887,-0.034180,-0.289429,0.953003,-1.831055,-3.601074,-0.488281
14896,-0.033325,-0.249878,0.954102,-2.197266,-3.906250,-1.647949
14906,0.005615,-0.243286,0.982666,-2.319336,-3.845215,-2.136230
14916,0.072144,-0.319458,0.969604,-2.624512,-3.967285,-2.441406
14926,0.087769,-0.243408,0.998779,-2.990723,-4.638672,-2.685547
14936,0.073486,-0.208374,1.022095,-3.295898,-5.187988,-3.051758
14946,0.068481,-0.264038,0.998657,-2.990723,-5.187988,-2.746582
14956,0.053833,-0.282837,0.986938,-3.112793,-5.187988,-2.868652
14968,0.022217,-0.235229,0.973511,-3.234863,-5.676270,-3.601074
14978,-0.001221,-0.211548,0.985718,-3.479004,-6.103516,-4.272461
14988,-0.004272,-0.249390,0.982788,-3.295898,-6.103516,-5.065918
14998,-0.002197,-0.209351,1.012329,-3.417969,-6.225586,-5.981445
15007,0.008911,-0.232422,0.989868,-3.417969,-6.164551,-6.835937
15017,0.023804,-0.197998,0.976074,-3.417969,-6.469727,-7.568359
15027,0.015625,-0.189453,0.954224,-3.356934,-6.713867,-8.422852
15037,0.028931,-0.216919,0.979736,-3.295898,-6.835937,-10.192871
15046,0.013672,-0.214844,1.007690,-3.479004,-7.080078,-11.230469
15056,-0.010498,-0.161743,1.066650,-3.723145,-7.324219,-12.207031
15066,-0.004517,-0.181763,1.053589,-3.295898,-7.263184,-13.000488
15076,-0.016724,-0.297852,0.933716,-2.868652,-7.141113,-13.610840
15087,-0.017212,-0.297974,0.915894,-3.173828,-7.080078,-14.282227
15096,0.015991,-0.212891,0.970825,-3.295898,-6.896973,-14.953613
15106,0.016724,-0.192627,1.042725,-3.112793,-6.896973,-15.686035
15118,-0.019165,-0.282471,0.971313,-2.014160,-7.202148,-15.930176
15127,-0.026855,-0.303955,0.860596,-2.075195,-6.835937,-15.502930
15137,-0.006470,-0.192017,0.984619,-2.990723,-6.408691,-15.014648
15147,-0.076294,-0.059326,1.060059,-3.112793,-6.530762,-14.465332
15156,-0.066650,-0.100464,1.068359,-2.258301,-6.591797,-13.854980
15166,-0.114014,-0.181641,1.000244,-1.220703,-5.981445,-12.695313
15177,-0.075806,-0.258179,0.959595,-1.403809,-4.028320,-10.375977
15187,-0.085571,-0.165405,0.961304,-1.770020,-3.906250,-9.216309
15197,-0.093140,-0.138672,1.009155,-1.464844,-3.479004,-8.056641
15206,-0.054932,-0.135986,1.010010,-0.793457,-2.990723,-6.958008
15216,0.003296,-0.174805,1.027832,-0.610352,-2.319336,-6.103516
15227,-0.024048,-0.164185,1.015259,-0.183105,-2.014160,-5.615234
15236,-0.006470,-0.122192,1.001709,-0.244141,-1.892090,-5.126953
15249,-0.028198,-0.119873,1.010376,0.000000,-2.380371,-5.554199
15259,-0.044312,-0.177490,0.977295,0.244141,-2.380371,-6.347656
15268,-0.072510,-0.177246,0.979492,0.061035,-2.502441,-7.446289
15278,-0.040527,-0.148315,1.010132,-0.244141,-2.441406,-8.666992
15288,-0.088867,-0.110107,0.994873,-0.549316,-2.990723,-9.948730
15297,-0.041260,-0.068726,1.004395,-0.427246,-3.051758,-10.925293
15307,-0.067871,-0.062256,1.001587,-0.244141,-2.929688,-11.352539
15316,-0.038086,-0.069214,1.011475,-0.427246,-2.441406,-11.962891
15326,-0.077637,-0.036865,1.002808,-0.549316,-2.380371,-12.390137
15337,-0.044556,-0.077637,0.979858,-0.549316,-2.502441,-12.756348
15346,0.008301,-0.144897,0.944092,-0.793457,-2.868652,-12.939453
15356,-0.012329,-0.138550,0.933105,-0.854492,-2.746582,-13.244629
15367,0.021851,-0.080566,0.995361,-0.854492,-2.319336,-13.732910
15376,0.040161,-0.063843,1.050049,-1.159668,-2.136230,-13.793945
15389,-0.013672,-0.118896,1.010498,-1.525879,-2.502441,-14.953613
15399,-0.064697,-0.078369,0.986816,-1.708984,-2.502441,-16.052246
15408,-0.042114,-0.089844,0.992187,-1.525879,-2.380371,-17.028809
15418,-0.026367,-0.164307,0.991577,-1.037598,-2.441406,-17.822266
15428,0.038696,-0.173828,1.001587,-0.793457,-2.502441,-18.493652
15437,-0.012451,-0.141479,1.010498,-0.854492,-3.295898,-19.165039
15447,-0.035889,-0.131104,1.009888,-0.366211,-3.784180,-20.568848
15457,0.013428,-0.163452,1.018433,0.549316,-2.807617,-21.545410
15467,0.003052,-0.174072,1.058472,0.915527,-2.502441,-21.850586
15476,-0.031128,-0.174072,1.040527,1.220703,-2.258301,-22.583008
15486,-0.042114,-0.234009,1.008545,1.342773,-2.380371,-23.681641
15496,-0.052368,-0.187622,0.968018,1.342773,-2.624512,-24.963379
15506,-0.015869,-0.185181,0.925903,1.586914,-2.685547,-26.367187
15516,-0.044800,-0.185669,0.896851,1.770020,-2.807617,-27.160645
15529,-0.004272,-0.157959,0.924438,1.647949,-2.502441,-26.977539
15538,0.028564,-0.100952,0.987549,1.525879,-2.197266,-26.550293
15548,0.016235,-0.076660,1.038086,1.586914,-1.770020,-25.878906
15558,0.060181,-0.058228,1.078003,1.464844,-1.586914,-25.756836
15567,0.052856,-0.077881,1.079102,2.075195,-1.525879,-25.817871
15577,0.038574,-0.080078,1.081421,2.197266,-1.953125,-26.184082
15586,0.038452,-0.126831,1.081421,2.502441,-2.258301,-26.367187
15599,0.004883,-0.158936,0.978638,2.746582,-2.563477,-26.184082
15608,-0.002563,-0.165527,0.919556,2.502441,-2.319336,-25.207520
15618,0.021118,-0.231689,0.875488,2.197266,-1.953125,-23.803711
15628,0.012573,-0.181274,0.832153,1.586914,-1.708984,-22.460937
15637,0.029419,-0.120850,0.868652,0.976562,-1.098633,-20.690918
15647,-0.051270,-0.098999,0.943970,0.915527,-0.854492,-19.165039
15656,-0.035645,-0.144897,1.045654,0.976562,-0.610352,-18.981934
15666,-0.067871,-0.149536,1.057495,1.098633,-0.793457,-20.019531
15676,-0.062988,-0.210571,1.030151,1.342773,-0.549316,-21.301270
15687,-0.098511,-0.262207,0.988770,1.098633,-0.610352,-21.972656
15696,-0.142822,-0.102173,0.912598,0.976562,-0.183105,-22.277832
15707,-0.150024,-0.185791,0.924438,0.732422,0.549316,-21.667480
15716,-0.157715,-0.238281,0.904419,1.098633,1.770020,-20.080566
15726,-0.125122,-0.237915,0.925171,0.671387,2.929688,-17.883301
15736,-0.128174,-0.159302,0.976196,0.122070,3.601074,-14.770508
15747,-0.107056,-0.176880,1.012207,0.183105,4.516602,-13.671875
15757,-0.117676,-0.210449,0.989380,0.061035,4.821777,-13.000488
15767,-0.106812,-0.183105,1.007446,0.061035,5.249023,-12.512207
15776,-0.093994,-0.204712,1.009644,-0.061035,5.554199,-11.779785
15787,-0.070679,-0.191162,0.996338,0.305176,6.164551,-10.925293
15796,-0.055664,-0.235962,0.960571,0.488281,6.225586,-10.131836
15806,-0.041504,-0.197754,0.954102,-0.061035,6.469727,-8.117676
15816,-0.055176,-0.184448,0.977905,-0.183105,7.141113,-7.385254
15826,-0.093506,-0.230103,0.984741,-0.305176,7.324219,-6.225586
15836,-0.070435,-0.207275,0.963623,-0.305176,7.995605,-5.065918
15847,-0.109131,-0.224854,0.953735,-0.366211,8.422852,-3.601074
15856,-0.069580,-0.183594,0.947021,-0.671387,8.605957,-2.807617
15867,-0.085449,-0.152344,0.955322,-1.037598,8.728027,-2.136230
15876,-0.103638,-0.182739,0.988892,-0.915527,8.666992,-1.098633
15888,-0.081665,-0.215332,1.006226,-0.793457,9.155273,-0.427246
15898,-0.082642,-0.215820,0.959839,-0.366211,9.460449,0.366211
15907,-0.073975,-0.227539,0.918823,-0.427246,9.216309,0.305176
15917,-0.092163,-0.213867,0.881592,-0.488281,9.155273,0.366211
15926,-0.080566,-0.265747,0.916626,-0.549316,9.155273,0.122070
15937,-0.068359,-0.163330,1.031128,-0.732422,9.338379,-0.366211
15947,-0.015625,-0.208740,1.023682,-0.915527,9.460449,-0.671387
15956,-0.023804,-0.165771,0.994629,-1.037598,9.460449,-0.854492
15967,0.004517,-0.217651,0.912231,-1.403809,8.911133,-1.220703
15976,0.007202,-0.180542,0.896362,-1.525879,8.728027,-1.342773
15987,0.005737,-0.151367,0.993164,-1.708984,8.422852,-2.014160
15996,0.041504,-0.159302,1.028809,-2.136230,8.361816,-2.319336
16007,0.061890,-0.172241,1.034424,-2.258301,7.934570,-2.258301
16016,0.011108,-0.099243,1.041504,-1.892090,7.080078,-2.746582
16026,0.017822,-0.142334,1.056763,-1.464844,6.835937,-2.502441
16036,-0.004517,-0.133789,1.011108,-1.037598,7.019043,-2.319336
16046,0.004639,-0.157959,1.069458,-1.281738,7.080078,-1.953125
16057,-0.004150,-0.209839,1.058594,-1.220703,7.141113,-1.464844
16066,-0.010742,-0.214844,1.020630,-1.159668,6.774902,-1.220703
16077,-0.016235,-0.223145,0.992310,-1.403809,6.652832,-1.281738
16087,-0.053833,-0.294312,1.001343,-1.281738,6.469727,-3.051758
16096,-0.116211,-0.114624,1.019897,-0.915527,6.774902,-4.455566
16106,-0.072876,-0.136719,1.068359,-0.671387,7.080078,-5.554199
16117,-0.049927,-0.212158,1.049561,-0.427246,7.385254,-6.591797
16126,0.016113,-0.261597,0.968018,-0.244141,7.019043,-7.751465
16137,0.044312,-0.211670,0.932495,-0.549316,6.286621,-8.789063
16146,0.100830,-0.234863,0.857056,-0.671387,5.493164,-9.460449
16159,0.114380,-0.269531,0.911743,-1.098633,4.882812,-9.155273
16168,0.094849,-0.150879,1.015259,-1.342773,5.249023,-8.789063
16177,0.066650,-0.127686,1.046509,-1.037598,5.554199,-8.239746
16188,0.055176,-0.176147,1.013062,-0.671387,5.554199,-8.178711
16197,0.052002,-0.117676,0.977661,-0.305176,5.493164,-8.300781
16207,0.081665,-0.118164,0.977905,0.061035,4.638672,-8.605957
16216,0.073730,-0.142822,0.946777,0.061035,4.272461,-8.544922
16229,0.024902,-0.054687,1.034912,-0.244141,4.028320,-7.202148
16238,-0.018799,0.006470,1.060425,-0.305176,4.333496,-5.981445
16248,-0.041382,0.030640,1.050415,0.061035,5.187988,-3.967285
16257,-0.037720,-0.013550,0.929810,0.000000,6.103516,-2.075195
16267,-0.059326,-0.093750,0.910400,0.000000,6.530762,-0.122070
16276,-0.050293,-0.197998,0.867554,-0.488281,6.469727,1.770020
16287,-0.039429,-0.109619,0.877563,-0.976562,6.164551,3.662109
16296,-0.046021,-0.061768,0.944580,-1.037598,6.835937,8.300781
16306,-0.033203,-0.018799,1.008789,-1.220703,7.873535,11.169434
16316,-0.075928,-0.073608,0.991577,-0.915527,9.155273,14.038086
16326,-0.100220,-0.030762,1.040771,-1.037598,9.277344,16.235352
16336,-0.102051,-0.101685,0.954224,-1.342773,9.338379,18.493652
16346,-0.151855,-0.124634,0.962036,-1.220703,9.399414,20.996094
16357,-0.119019,-0.090576,1.036499,-0.793457,10.070801,24.108887
16366,-0.120239,-0.034912,1.044678,-0.732422,11.474609,31.188965
16378,-0.091675,-0.092651,1.000488,-1.098633,11.962891,34.362793
16387,-0.088867,-0.128418,0.986328,-0.671387,12.023926,37.353516
16397,-0.136230,-0.111084,0.949585,-0.427246,11.657715,39.550781
16406,-0.110352,-0.132568,1.037720,-0.976562,11.596680,40.771484
16417,-0.109131,-0.084595,1.047119,-1.403809,10.925293,41.137695
16426,-0.058716,-0.125854,1.036743,-1.586914,10.314941,41.076660
16436,-0.035767,-0.105347,1.091187,-1.525879,9.765625,40.100098
16447,-0.094360,-0.158691,1.047363,-0.854492,8.911133,39.428711
16457,-0.051025,-0.237061,1.010742,-0.488281,8.544922,37.902832
16467,-0.042480,-0.230103,0.975952,-0.854492,7.507324,35.949707
16476,-0.015137,-0.183960,0.965820,-1.464844,6.652832,33.996582
16486,0.080200,-0.118408,1.022583,-1.647949,5.676270,31.982422
16496,0.034668,-0.161743,0.950073,-1.708984,3.906250,30.029297
16506,0.091431,-0.204956,0.939209,-1.770020,2.746582,27.465820
16518,0.196777,-0.216431,1.052002,-2.197266,1.281738,26.306152
16527,0.203979,-0.149902,1.067383,-2.258301,-0.122070,24.902344
16537,0.142822,-0.132568,1.120483,-1.953125,-1.159668,23.315430
16546,0.114136,-0.163330,1.063354,-1.220703,-2.380371,21.484375
16556,0.091309,-0.182739,1.021973,-0.671387,-2.929688,18.798828
16567,0.124512,-0.279053,1.012085,-0.915527,-4.089355,15.686035
16576,0.101074,-0.212524,1.023804,-1.220703,-7.080078,8.728027
16586,0.085937,-0.169189,1.059814,-0.305176,-7.873535,6.286621
16596,0.053589,-0.283569,0.861572,0.305176,-8.117676,4.028320
16607,0.086426,-0.364258,0.833618,0.183105,-8.361816,1.708984
16616,0.095581,-0.260620,0.912964,-0.427246,-8.605957,-0.061035
16627,0.058228,-0.246338,0.951050,-0.854492,-9.155273,-2.014160
16636,0.047607,-0.216309,1.037109,-0.610352,-9.521484,-4.638672
16646,0.057495,-0.198608,1.042114,0.183105,-10.070801,-8.544922
16657,0.071777,-0.314331,0.924072,0.610352,-10.620117,-10.498047
16667,0.068848,-0.213745,0.905640,-0.122070,-10.498047,-11.657715
16676,0.056030,-0.180054,0.828491,-0.793457,-10.559082,-12.756348
16687,0.067993,-0.216309,0.917236,-1.281738,-10.375977,-13.610840
16696,0.087402,-0.193237,0.983887,-1.586914,-10.192871,-13.977051
16706,0.094604,-0.183472,1.026733,-1.770020,-10.314941,-14.465332
16718,0.027466,-0.204224,0.925293,-0.854492,-9.948730,-14.038086
16728,0.030029,-0.392700,0.848511,-0.488281,-9.155273,-13.488770
16738,-0.005981,-0.309814,0.789551,-1.159668,-8.605957,-12.756348
16747,-0.058960,-0.065308,0.995972,-2.197266,-8.361816,-11.718750
16757,-0.085937,-0.074707,1.162720,-1.831055,-7.629395,-10.925293
16766,-0.128052,-0.177490,1.101074,-0.427246,-6.958008,-10.009766
16777,-0.149292,-0.197754,1.081787,0.427246,-6.286621,-9.277344
16787,-0.141113,-0.225586,1.014648,-0.183105,-4.394531,-7.812500
16796,-0.164917,-0.138672,0.859375,-0.610352,-3.234863,-6.652832
16807,-0.180054,-0.136475,0.899902,-1.342773,-1.831055,-5.187988
16817,-0.174316,-0.166870,0.939331,-1.708984,-0.671387,-3.723145
16827,-0.145630,-0.139648,1.020752,-2.014160,0.183105,-2.563477
16836,-0.133667,-0.050171,1.045776,-2.563477,0.610352,-1.892090
16846,-0.158691,-0.053711,1.034546,-2.746582,1.098633,-1.159668
16859,-0.164062,-0.070068,1.052856,-2.868652,2.441406,0.305176
16868,-0.128662,-0.076782,0.995850,-2.929688,2.929688,0.915527
16878,-0.105469,-0.118164,0.932495,-2.929688,3.479004,1.953125
16887,-0.082153,-0.023804,1.002441,-3.234863,4.028320,2.990723
16897,-0.107422,-0.071167,0.998901,-2.990723,4.699707,4.516602
16906,-0.111938,-0.141968,0.971802,-2.807617,4.760742,5.432129
16917,-0.062744,-0.113892,0.911133,-2.746582,5.004883,6.164551
16926,-0.061646,-0.070312,0.978027,-2.502441,5.615234,7.324219
16936,-0.025757,-0.184692,0.934692,-2.990723,6.042480,7.873535
16947,-0.019287,-0.154419,0.934570,-3.784180,5.981445,7.751465
16956,-0.009155,-0.079468,0.972046,-4.638672,5.554199,7.202148
16966,0.011108,-0.084229,0.959595,-5.249023,4.760742,6.408691
16977,0.012817,-0.078491,1.009888,-5.493164,4.394531,5.554199
16986,0.032959,-0.061890,1.097534,-5.249023,4.516602,4.821777
16999,0.057129,-0.106445,1.116943,-4.089355,4.272461,3.051758
17008,0.080933,-0.150146,1.056885,-3.173828,3.234863,1.586914
17017,0.094238,-0.171997,0.982300,-2.380371,2.380371,0.488281
17027,0.078369,-0.139771,0.949097,-2.197266,1.708984,-0.183105
17036,0.050659,-0.114380,1.021362,-2.014160,1.464844,-1.037598
17046,0.074829,-0.211426,0.969360,-2.014160,1.770020,-1.647949
17057,0.104980,-0.228027,0.905762,-2.380371,1.770020,-2.502441
17066,0.056519,-0.130127,0.981079,-2.868652,0.610352,-5.126953
17078,0.081299,-0.186035,0.942749,-2.807617,-0.244141,-6.469727
17087,0.047852,-0.143188,1.020264,-2.929688,-0.671387,-7.446289
17097,0.036865,-0.016724,1.010132,-2.868652,-0.549316,-8.117676
17106,0.003784,-0.159302,0.978271,-2.502441,-0.366211,-8.666992
17116,0.025391,-0.113403,0.944580,-2.319336,0.244141,-9.399414
17126,0.008789,-0.120361,1.023193,-2.197266,0.915527,-9.155273
17136,0.015503,-0.141357,0.954834,-1.892090,0.732422,-8.178711
17148,0.039673,-0.011597,1.011719,-1.525879,0.671387,-7.324219
17157,0.077637,-0.084229,1.011108,-1.892090,0.976562,-6.042480
17167,0.012085,-0.141846,0.985840,-1.953125,1.403809,-4.333496
17176,-0.014771,0.021118,1.031250,-2.746582,1.708984,-2.563477
17186,-0.040527,0.033691,1.029541,-2.563477,2.624512,-1.159668
17196,-0.022827,0.025757,1.100708,-1.953125,3.295898,-0.244141
17206,-0.050171,-0.089600,1.081909,-0.915527,3.234863,1.342773
17218,-0.024048,-0.096069,1.057373,0.305176,3.112793,2.502441
17227,-0.026489,-0.150513,0.950928,0.610352,3.295898,3.723145
17236,-0.023193,-0.214966,0.890991,0.793457,3.601074,5.371094
17246,-0.051147,-0.145264,0.898315,0.000000,4.272461,6.774902
17257,-0.049927,-0.180664,0.906250,-0.976562,5.004883,7.873535
17267,-0.067261,-0.096802,0.951416,-1.770020,5.371094,8.117676
17276,-0.049072,-0.081421,0.989136,-1.831055,5.004883,7.629395
17288,-0.020508,-0.211670,1.015991,-1.281738,5.004883,7.202148
17298,-0.000732,-0.095947,1.066284,-1.220703,4.516602,6.652832
17307,0.003296,-0.152100,0.982544,-1.098633,4.211426,6.286621
17316,0.005859,-0.192993,0.931885,-0.610352,4.394531,6.225586
17326,0.026733,-0.154419,0.976318,-0.366211,4.577637,6.164551
17337,-0.027710,-0.224121,0.954956,-0.122070,4.455566,5.920410
17346,-0.016235,-0.277954,0.899902,0.122070,4.516602,5.920410
17358,0.057373,-0.253662,0.818237,-1.098633,3.967285,5.981445
17367,0.065186,-0.246582,0.899170,-2.197266,3.967285,6.286621
17377,0.065186,-0.158936,0.922485,-2.868652,3.784180,6.530762
17386,0.057739,-0.110107,1.059204,-3.356934,3.784180,6.469727
17396,0.047119,-0.011963,1.088013,-3.540039,3.723145,5.981445
17407,-0.000977,-0.140503,1.061035,-2.929688,3.784180,5.493164
17416,-0.025024,-0.218262,0.983398,-2.136230,3.051758,4.333496
17428,0.033081,-0.093384,0.941528,-2.563477,2.319336,4.150391
17437,0.091675,-0.072876,0.991211,-2.502441,2.197266,4.638672
17447,0.034546,-0.088989,0.980957,-2.014160,2.014160,5.615234
17456,0.046997,-0.166504,0.969727,-2.075195,2.258301,6.530762
17467,0.029297,-0.097412,0.999268,-2.136230,2.746582,7.019043
17476,0.020874,-0.092529,0.969238,-2.197266,2.685547,7.263184
17489,0.040283,-0.097900,0.975342,-3.601074,2.258301,7.629395
17498,0.024414,-0.015015,0.993896,-4.150391,1.647949,7.507324
17507,0.056641,0.034058,1.036743,-3.906250,1.403809,7.812500
17517,0.075439,-0.026855,1.049194,-3.601074,1.403809,8.117676
17526,0.082886,-0.157471,1.036743,-3.356934,1.037598,8.972168
17537,0.049805,-0.029907,1.077271,-3.723145,0.976562,9.826660
17546,0.058228,-0.034912,1.035645,-3.479004,0.793457,10.742188
17559,0.036987,-0.099243,1.000732,-2.868652,0.610352,13.427734
17568,0.012573,-0.088745,0.987061,-3.112793,0.671387,14.221191
17577,0.011108,-0.046875,1.045654,-3.417969,0.671387,15.075684
17587,0.013672,-0.095459,1.031250,-3.540039,0.732422,15.930176
17596,-0.004883,-0.015991,1.130493,-3.662109,0.549316,16.296387
17607,-0.034546,0.005005,1.139893,-3.540039,0.427246,16.723633
17617,0.004517,-0.080566,1.084839,-2.624512,0.244141,16.723633
17626,0.005127,-0.021851,1.100830,-1.403809,-0.427246,16.113281
17638,0.015015,-0.111328,0.981934,-0.793457,-0.854492,15.808105
17647,-0.018433,-0.130981,0.921265,-0.793457,-0.793457,15.747070
17657,-0.084229,-0.179565,0.937256,-1.159668,-0.732422,15.197754
17667,-0.111450,-0.136353,0.936646,-1.586914,-1.098633,13.610840
17676,-0.127930,-0.137207,0.892090,-1.831055,-1.525879,12.084961
17687,-0.127075,-0.161377,0.912720,-1.892090,-1.525879,10.009766
17696,-0.116943,-0.058472,0.950562,-2.258301,-1.464844,5.126953
17708,-0.023682,-0.081909,1.009155,-1.953125,-1.403809,3.234863
17718,-0.017578,-0.071899,1.011597,-1.403809,-1.342773,1.220703
17727,0.030762,-0.130615,0.959595,-0.671387,-1.647949,-0.732422
17737,0.075684,-0.101563,0.978760,-0.488281,-2.075195,-1.831055
17746,0.089233,-0.127930,0.963257,-0.183105,-1.892090,-2.075195
17756,0.059204,-0.121216,0.965210,0.061035,-2.014160,-2.258301
17768,0.079590,-0.103271,0.850952,-0.366211,-2.258301,-1.647949
17778,0.129028,-0.129761,0.845581,-0.915527,-2.441406,-1.281738
17787,0.075073,-0.118164,0.884766,-1.464844,-2.685547,-0.793457
17797,0.077759,-0.186890,0.848633,-1.770020,-2.685547,-0.366211
17807,0.068604,-0.063110,1.002563,-2.563477,-2.441406,-0.122070
17816,0.062500,-0.012573,1.033325,-2.990723,-2.441406,-0.244141
17828,0.053223,-0.026978,1.106201,-1.892090,-2.441406,-0.305176
17837,0.056152,-0.020996,1.154297,-1.403809,-2.807617,-0.427246
17847,0.046753,-0.027588,1.156738,-1.159668,-3.234863,-0.671387
17857,0.058960,0.026978,1.185181,-0.366211,-3.417969,-0.488281
17866,0.008789,-0.077637,1.098877,0.671387,-3.356934,0.122070
17877,-0.002930,-0.155762,0.987671,1.281738,-3.112793,0.732422
17886,-0.009766,-0.108887,1.043335,1.342773,-2.929688,1.342773
17898,0.014893,-0.131592,1.005249,1.159668,-2.624512,2.502441
17907,0.030518,-0.103394,0.962158,0.671387,-2.624512,2.685547
17917,0.006226,-0.149536,0.936157,0.366211,-2.807617,2.868652
17926,0.003418,-0.130493,0.986694,0.427246,-2.380371,3.234863
17937,-0.015137,-0.101318,1.022217,0.244141,-1.831055,3.662109
17947,-0.019409,-0.141724,1.022339,-0.427246,-1.647949,3.845215
17957,-0.009888,-0.086426,1.028809,-0.854492,-1.770020,3.845215
17966,-0.026611,-0.093018,0.940796,-0.854492,-1.342773,3.906250
17978,-0.007324,-0.114014,0.985474,-1.037598,-1.525879,2.990723
17988,0.018677,-0.188721,0.980469,-2.075195,-1.892090,2.258301
17997,0.015259,-0.110840,0.971069,-2.807617,-2.136230,1.098633
18007,0.015625,-0.038330,0.957153,-3.723145,-2.258301,0.427246
18016,0.000977,-0.059937,1.009521,-3.784180,-2.197266,-0.427246
18027,0.039551,0.010986,1.061523,-3.540039,-1.770020,-1.037598
18038,0.029663,-0.026489,1.067871,-2.075195,-1.647949,-1.831055
18048,0.020508,-0.056885,1.024170,-1.220703,-1.708984,-2.014160
18057,0.044922,-0.137207,1.035400,-0.549316,-2.014160,-2.014160
18067,0.034912,-0.047119,1.013306,-0.610352,-2.197266,-2.014160
18077,0.030273,-0.136719,0.915894,-0.244141,-2.380371,-1.586914
18086,0.038574,-0.154297,0.907227,-0.244141,-2.075195,-1.342773
18097,0.023560,-0.161621,0.894287,-0.549316,-1.831055,-0.732422
18107,0.018677,-0.168335,0.847534,-0.854492,-1.525879,-0.549316
18116,0.004761,-0.112305,0.937378,-1.770020,-1.159668,-0.122070
18128,0.007324,-0.116089,0.935547,-1.892090,-1.098633,-0.061035
18137,0.020996,-0.024536,1.021118,-1.953125,-1.037598,-0.061035
18147,0.018677,-0.066528,1.031372,-1.159668,-1.098633,0.122070
18157,0.026367,-0.105469,1.019043,-0.061035,-0.915527,0.366211
18167,0.035645,-0.154663,0.989990,0.488281,-0.976562,0.488281
18177,0.035645,-0.198608,0.941406,0.854492,-1.037598,0.671387
18188,0.024536,-0.160400,0.916626,1.037598,-1.098633,0.732422
18198,0.049805,-0.179321,0.968506,0.671387,-0.976562,0.671387
18207,0.016357,-0.121094,0.917969,0.183105,-1.037598,0.366211
18217,0.046387,-0.167358,0.945679,-0.366211,-1.220703,0.488281
18227,0.035278,-0.077759,1.023438,-1.342773,-1.403809,0.305176
18236,0.043945,-0.127197,1.011475,-2.014160,-1.525879,0.244141
18248,0.008667,0.003418,1.076538,-2.868652,-1.525879,0.305176
18258,0.001953,0.059570,1.110718,-2.929688,-1.281738,0.244141
18267,-0.005249,0.000610,1.146606,-2.441406,-1.098633,0.000000
18277,0.005859,0.010254,1.132202,-2.136230,-1.037598,-0.610352
18287,0.028564,-0.054321,1.066650,-1.831055,-1.220703,-1.037598
18297,0.046143,-0.051880,1.045044,-1.403809,-1.586914,-1.708984
18307,0.031616,-0.030396,0.988647,-1.220703,-1.831055,-2.746582
18316,0.022583,0.082886,1.138306,-1.586914,-2.014160,-3.723145
18328,0.009033,-0.166260,0.908447,-1.281738,-1.647949,-4.211426
18337,0.064453,0.030029,1.052490,-2.075195,-1.525879,-5.310059
18347,0.031738,0.073975,1.052979,-1.953125,-1.770020,-5.249023
18357,0.006714,-0.132202,0.877563,-0.854492,-1.831055,-4.821777
18367,0.070312,-0.216553,0.893677,0.061035,-1.342773,-4.150391
18377,0.056641,-0.104858,0.987427,-0.976562,-1.464844,-3.723145
18387,0.053223,-0.156616,0.802979,-2.014160,-1.708984,-3.234863
18398,0.019409,0.067139,1.028076,-2.014160,-0.488281,-1.647949
18407,-0.041504,0.081909,1.122559,-3.540039,-0.244141,-0.854492
18417,-0.061279,0.079590,1.157959,-2.746582,-0.061035,-0.122070
18427,-0.057983,-0.045532,1.152954,-1.037598,0.427246,0.427246
18437,-0.015503,-0.184570,1.026245,0.610352,0.427246,1.037598
18446,0.008667,-0.105713,1.046143,1.159668,0.305176,1.525879
18457,0.032349,-0.093750,0.990723,1.464844,-0.061035,2.319336
18468,-0.002930,-0.100586,0.823364,0.610352,0.793457,4.882812
18478,-0.007324,0.014893,0.861816,-0.488281,1.220703,5.859375
18487,-0.040283,-0.066528,0.875732,-0.732422,1.159668,6.347656
18496,-0.030151,-0.097534,0.955322,-0.915527,1.098633,6.347656
18507,-0.089844,-0.030762,1.126221,-1.831055,1.037598,6.286621
18517,-0.067993,0.090820,1.243896,-2.319336,1.098633,6.225586
18528,-0.102539,-0.018433,1.119507,-1.037598,1.953125,6.469727
18538,-0.061279,0.087158,1.111572,0.122070,2.197266,7.019043
18547,-0.013184,-0.075928,1.016602,1.403809,1.770020,6.958008
18556,-0.016968,-0.021118,1.014038,2.136230,1.647949,6.958008
18567,-0.047607,-0.066162,1.026123,1.953125,1.892090,7.324219
18577,-0.001831,0.015747,1.034180,1.770020,1.892090,7.202148
18587,-0.025635,-0.047363,1.050659,2.014160,2.502441,7.690430
18598,0.000854,-0.103882,1.023926,1.953125,2.380371,8.056641
18608,0.043701,-0.017944,0.978149,2.136230,2.014160,7.934570
18617,-0.014648,-0.076538,0.906372,2.685547,1.281738,7.751465
18627,0.014404,-0.083984,0.951416,2.563477,1.403809,7.812500
18636,-0.038696,-0.090576,0.899902,1.770020,1.525879,8.239746
18647,0.005249,-0.175171,0.927002,0.915527,1.647949,8.605957
18657,-0.006714,-0.103516,0.895630,-0.122070,1.708984,8.483887
18667,-0.017090,0.021240,0.917236,-1.464844,1.647949,8.361816
18678,-0.006470,0.045898,0.946655,-2.136230,1.525879,7.690430
18688,0.031616,-0.069580,0.942139,-1.281738,1.403809,7.080078
18697,0.019897,0.085693,1.054321,-1.464844,1.220703,6.469727
18707,0.026978,0.065796,1.068726,-1.464844,0.915527,6.042480
18717,0.011963,-0.061035,1.053955,-1.098633,0.549316,5.432129
18727,0.064575,-0.099609,1.031494,-1.525879,0.427246,4.699707
18737,0.077515,0.065552,1.054077,-2.319336,0.366211,3.601074
18751,0.034790,-0.002197,0.993530,-0.488281,-0.183105,3.112793
18761,0.031494,-0.080933,0.965576,0.732422,-0.671387,2.502441
18770,0.075562,0.023926,1.093384,0.427246,-0.976562,2.441406
18779,0.067749,-0.222412,1.013550,0.793457,-0.915527,2.502441
18789,0.077271,-0.161255,0.947266,0.000000,-0.732422,2.929688
18798,0.084717,0.043823,0.882446,-1.586914,-0.976562,3.356934
18807,0.063354,0.071045,0.902344,-2.502441,-1.647949,2.746582
18817,0.006592,-0.052856,0.953735,-4.272461,-1.525879,2.197266
18827,-0.017944,0.073608,1.140625,-4.333496,-1.525879,2.075195
18837,-0.017212,0.096436,1.141846,-3.723145,-1.647949,1.464844
18847,0.007324,0.053223,1.208130,-2.624512,-1.647949,0.793457
18857,0.026123,-0.082642,1.062500,-1.708984,-1.525879,0.244141
18867,0.043945,-0.102417,1.000732,-0.854492,-1.708984,-0.427246
18877,0.070679,-0.113403,1.009644,-0.488281,-2.197266,-0.915527
18886,0.053589,-0.023071,0.916382,-1.464844,-2.441406,-2.258301
18898,0.044556,-0.096436,0.884766,-0.671387,-2.685547,-2.502441
18908,0.026978,-0.142212,0.969604,-0.854492,-2.563477,-2.990723
18917,0.030884,-0.045166,1.051025,-1.586914,-2.624512,-3.417969
18926,0.019409,0.018433,1.058350,-2.197266,-2.441406,-3.662109
18937,0.008667,0.001587,1.091797,-2.563477,-2.258301,-3.845215
18946,0.004517,0.033203,1.054199,-2.624512,-2.441406,-3.906250
18958,-0.010132,0.103638,1.014648,-2.075195,-2.197266,-3.967285
18968,-0.001953,-0.002930,1.086548,-1.281738,-1.953125,-4.028320
18977,0.033569,0.015747,1.016479,-0.976562,-1.708984,-3.967285
18987,0.019531,-0.003052,1.042358,-0.854492,-1.525879,-3.540039
18997,0.040039,-0.053711,1.059448,-0.915527,-1.464844,-2.807617
19007,0.030273,-0.050781,0.991455,-1.525879,-1.159668,-2.380371
19017,0.058228,-0.042236,1.113525,-1.464844,-1.220703,-2.136230
19028,0.003906,0.045898,1.015991,-1.525879,-1.281738,-1.403809
19037,-0.017578,0.076416,1.010376,-1.098633,-1.342773,-1.098633
19047,-0.005371,-0.026489,0.968994,-0.671387,-1.525879,-0.671387
19057,-0.005493,-0.085571,0.927979,-0.183105,-1.098633,0.000000
19067,-0.033081,0.027832,0.996582,-0.183105,-0.671387,0.610352
19077,-0.021240,0.010864,0.995972,-0.122070,-0.610352,1.159668
19088,-0.037720,-0.099976,0.947144,0.000000,0.549316,2.197266
19097,-0.001465,0.013550,0.997070,0.122070,0.488281,2.563477
19108,0.013550,-0.033081,0.930054,0.000000,0.305176,2.685547
