timestamp,accX,accY,accZ,gyrX,gyrY,gyrZ
11,-0.102051,-0.173462,0.906006,-2.075195,7.202148,2.197266
20,-0.092651,-0.078003,0.935181,-2.502441,7.690430,2.929688
32,-0.083862,0.024902,1.034058,-2.746582,8.972168,4.394531
41,-0.086426,-0.104614,0.981079,-2.197266,9.277344,4.455566
52,-0.083862,0.002441,1.007324,-2.319336,9.094238,3.784180
61,-0.065430,0.053101,1.032715,-2.685547,9.155273,3.173828
71,-0.078369,0.007080,1.020874,-2.685547,8.666992,2.136230
81,-0.076660,-0.052734,0.984009,-2.380371,8.911133,1.342773
90,-0.077637,-0.025391,0.953857,-2.136230,9.094238,1.159668
102,-0.048584,-0.092529,0.930176,-2.441406,9.765625,1.586914
111,-0.027710,-0.083252,1.062256,-2.380371,10.070801,2.197266
122,-0.041626,-0.022705,1.040771,-2.075195,10.620117,2.807617
131,-0.073975,-0.124634,0.944214,-1.831055,10.253906,2.746582
141,-0.073364,-0.129639,0.937012,-2.075195,10.314941,2.746582
151,-0.081421,-0.027222,0.989502,-2.441406,10.009766,2.685547
160,-0.120972,-0.082031,0.958130,-2.563477,9.826660,2.990723
172,-0.121094,-0.112671,0.922852,-2.624512,12.084961,5.615234
181,-0.068115,-0.143188,0.947388,-2.990723,12.145996,6.774902
192,-0.086182,-0.172852,0.903198,-3.051758,12.145996,7.751465
201,-0.153931,-0.105225,0.962524,-3.173828,12.634277,8.789063
211,-0.142334,-0.016113,1.063843,-3.112793,13.610840,9.887695
221,-0.123291,-0.063721,1.062744,-2.563477,14.648438,10.925293
231,-0.112061,-0.058838,1.026978,-1.953125,14.953613,11.413574
242,-0.093262,-0.092651,1.039795,-1.586914,14.709473,12.878418
252,-0.060181,-0.086182,0.954102,-1.342773,15.075684,13.916016
261,-0.003174,-0.049927,1.000244,-1.403809,15.686035,15.869141
270,-0.007324,-0.107056,1.021484,-1.281738,15.869141,18.005371
281,-0.015869,-0.185913,0.967773,-1.220703,15.563965,19.592285
291,-0.051392,-0.084839,0.955933,-1.525879,15.563965,21.484375
301,-0.065674,-0.016602,1.010498,-2.075195,15.197754,22.766113
312,-0.054199,-0.080078,1.013916,-2.319336,15.930176,24.719238
322,-0.037598,-0.142578,0.966187,-2.319336,16.235352,25.268555
331,-0.041626,-0.075806,1.062256,-2.258301,16.113281,25.512695
341,-0.051392,-0.116089,1.060059,-2.380371,15.563965,25.939941
350,-0.049927,-0.118530,1.003906,-2.441406,15.563965,26.123047
361,-0.022461,-0.056885,1.017212,-2.502441,15.686035,26.245117
370,-0.003296,-0.086670,0.991089,-2.502441,15.625000,26.550293
382,0.020996,-0.187134,0.947876,-2.258301,14.526367,27.099609
391,0.051880,-0.164917,0.924805,-2.380371,14.099121,27.587891
402,0.074585,-0.066406,1.000732,-2.502441,13.488770,28.076172
411,0.109497,-0.098877,1.046387,-2.075195,13.427734,28.381348
421,0.114990,-0.205811,0.971191,-1.525879,12.634277,28.015137
431,0.115234,-0.262939,0.952271,-1.159668,11.840820,27.526855
440,0.101685,-0.198975,0.990967,-0.976562,10.986328,26.428223
451,0.168945,-0.215088,0.956055,-0.610352,9.765625,25.634766
462,0.080811,-0.277710,0.966797,-0.305176,7.934570,23.986816
471,0.140015,-0.233887,0.912842,-0.549316,7.812500,23.864746
481,0.100098,-0.212646,0.982056,-0.915527,7.019043,23.376465
491,0.058838,-0.171753,0.937988,-1.403809,6.225586,23.254395
500,0.050781,-0.123291,0.907837,-1.403809,5.920410,23.132324
511,0.099976,-0.153320,1.032715,-1.220703,6.103516,23.620605
520,0.054687,-0.129761,0.957031,-1.464844,5.249023,22.705078
532,0.017334,0.023315,1.126465,-1.892090,4.882812,23.254395
541,0.025879,0.045898,1.074341,-1.892090,5.004883,23.071289
551,0.019897,-0.050415,1.119751,-1.098633,5.310059,24.291992
561,0.008789,-0.139038,1.038452,-0.610352,4.821777,23.742676
571,0.020020,-0.094238,1.109741,-0.488281,4.211426,23.193359
581,-0.022217,-0.044312,1.082520,-0.488281,3.967285,23.620605
592,-0.012939,-0.046143,1.113525,0.732422,4.638672,24.536133
602,0.044312,-0.120728,1.036011,1.647949,4.760742,26.062012
612,0.052612,-0.239990,0.947876,2.258301,4.211426,27.038574
621,0.014160,-0.278687,0.885742,1.953125,3.540039,28.198242
630,0.001587,-0.265137,0.885010,1.586914,3.234863,29.724121
641,-0.004517,-0.244141,0.913818,1.037598,3.417969,31.494141
651,0.012085,-0.240112,0.942749,0.915527,4.089355,33.325195
660,-0.015991,-0.262329,0.887451,0.671387,4.211426,34.729004
672,-0.047119,-0.234131,0.919678,0.549316,3.845215,35.461426
681,-0.010254,-0.155151,1.011230,-0.549316,2.746582,35.156250
690,0.036865,-0.178345,0.982422,-0.549316,2.685547,34.423828
701,0.068726,-0.185303,0.951416,-0.671387,2.075195,33.264160
711,0.109741,-0.118774,1.041626,-0.732422,1.342773,31.738281
721,0.126099,-0.058472,0.998413,-0.793457,0.122070,29.785156
732,0.147461,-0.092529,1.018555,-0.549316,-1.647949,24.963379
741,0.182861,-0.050537,1.050537,-0.244141,-3.051758,21.789551
752,0.182007,-0.089478,1.020996,-0.061035,-4.699707,18.249512
761,0.228882,-0.066162,1.047485,0.000000,-6.042480,14.282227
770,0.213257,-0.068115,1.028809,0.122070,-7.873535,10.742188
781,0.224243,-0.093872,1.030640,0.244141,-8.789063,8.117676
791,0.231934,-0.093506,1.065186,0.305176,-9.460449,5.798340
800,0.211426,-0.093750,1.014404,0.244141,-10.498047,3.906250
812,0.193481,-0.128540,0.969727,0.183105,-10.864258,0.305176
821,0.165527,-0.079712,1.002930,-0.061035,-11.596680,-1.464844
831,0.156494,-0.051147,0.981689,-0.366211,-12.084961,-3.356934
841,0.106812,-0.083618,0.956787,-0.549316,-12.207031,-5.676270
851,0.117676,-0.039673,0.989136,-1.342773,-12.573242,-7.690430
860,0.138184,0.006958,1.037598,-1.525879,-13.183594,-10.253906
872,0.204590,-0.089478,1.008179,-0.793457,-14.648438,-15.258789
882,0.245117,-0.102783,0.958862,-1.098633,-15.991211,-17.150879
891,0.170410,-0.149902,0.977539,-0.488281,-15.747070,-16.479492
900,0.140015,-0.163086,1.054688,0.061035,-14.648438,-13.793945
911,0.090820,-0.147705,1.056641,0.549316,-13.610840,-10.742188
921,-0.035034,-0.161255,1.083862,1.220703,-12.451172,-8.117676
931,-0.071167,-0.260620,1.010742,2.258301,-11.718750,-6.774902
942,-0.040894,-0.263672,0.997437,2.685547,-10.803223,-6.225586
952,-0.108276,-0.248047,0.857910,2.746582,-10.253906,-6.469727
961,-0.045898,-0.268433,0.805420,2.258301,-9.826660,-7.019043
971,-0.002808,-0.110718,0.890015,0.854492,-8.850098,-7.263184
981,0.024536,-0.068237,0.904419,-0.305176,-7.812500,-7.568359
991,0.097290,-0.069214,0.954102,-1.159668,-7.385254,-7.995605
1001,0.119385,-0.043457,1.031006,-1.647949,-7.080078,-8.666992
1011,0.137573,-0.003784,1.022217,-2.258301,-7.629395,-9.216309
1022,0.114624,0.038818,1.048828,-2.197266,-7.690430,-8.361816
1032,0.040527,0.011963,0.994507,-1.708984,-7.568359,-7.202148
1041,-0.005127,-0.086914,1.015869,-1.525879,-6.591797,-5.493164
1051,-0.001465,-0.022949,1.015137,-1.708984,-5.310059,-2.990723
1061,-0.004883,-0.028076,0.946289,-1.708984,-4.211426,-0.366211
1071,-0.004395,-0.140015,0.941040,-1.708984,-2.990723,2.563477
1080,-0.027588,-0.104370,0.965210,-1.403809,-3.112793,5.249023
1092,-0.016968,-0.172974,0.956543,-1.098633,-2.258301,8.850098
1101,-0.037842,-0.143921,1.005249,-0.671387,-1.953125,10.131836
1111,-0.048950,-0.112427,1.008667,-0.488281,-1.831055,11.230469
1120,-0.028931,-0.205688,0.930054,-0.183105,-1.586914,12.023926
1131,-0.014038,-0.177368,0.999878,-0.366211,-1.525879,12.390137
1140,-0.005859,-0.125977,1.026001,-0.366211,-1.403809,13.000488
1152,-0.014160,-0.188843,0.931519,0.000000,-1.342773,13.183594
1161,-0.030640,-0.163452,0.985840,-0.183105,-1.342773,13.244629
1171,-0.034912,-0.286621,0.951050,-0.305176,-1.342773,12.817383
1181,-0.028442,-0.039185,1.025391,-0.854492,-1.281738,12.329102
1191,-0.019531,-0.032104,0.993652,-0.488281,-1.525879,12.145996
1201,0.025146,-0.272461,0.994385,0.244141,-1.525879,12.329102
1211,0.001465,-0.212524,1.026733,-0.061035,-2.075195,11.657715
1220,0.022827,-0.209839,0.950684,-0.488281,-2.380371,11.108398
1232,0.056030,-0.076782,1.024536,-0.915527,-2.136230,11.108398
1241,0.004639,-0.228271,0.944458,-0.366211,-2.258301,11.108398
1251,0.079102,-0.216064,0.949585,-0.610352,-2.075195,10.742188
1261,0.043579,-0.160156,0.949463,-1.342773,-2.563477,10.498047
1271,0.107788,-0.212891,0.965088,-1.525879,-2.929688,10.131836
1281,0.105713,-0.125854,1.038940,-1.770020,-3.723145,9.216309
1291,0.084717,-0.171265,1.021362,-1.831055,-4.516602,8.605957
1302,0.027344,-0.049805,1.051636,-2.807617,-5.554199,6.408691
1312,0.009888,-0.135376,0.993774,-2.380371,-5.249023,5.859375
1321,-0.047119,-0.080078,1.017456,-2.441406,-5.310059,4.943848
1331,-0.067261,-0.107178,1.001099,-2.685547,-5.126953,3.845215
1341,-0.078125,-0.098389,1.000854,-2.563477,-4.821777,2.807617
1351,-0.075562,-0.063599,1.018188,-2.502441,-4.699707,1.892090
1363,-0.069824,-0.200317,1.002930,-1.525879,-5.126953,-0.732422
1373,-0.023193,-0.148437,0.953247,-1.342773,-4.821777,-1.892090
1383,-0.042969,-0.137573,0.961548,-1.342773,-3.967285,-2.685547
1392,-0.047852,-0.106689,1.000366,-1.098633,-3.356934,-2.990723
1402,-0.064575,-0.185181,0.954956,-1.220703,-3.112793,-2.929688
1412,-0.044434,-0.124634,0.977783,-1.037598,-2.807617,-3.112793
1422,-0.031860,-0.136475,0.932617,-0.915527,-2.380371,-3.112793
1432,-0.010254,-0.124146,1.039063,-1.098633,-1.220703,-3.356934
1441,-0.043823,-0.042114,1.010620,-1.098633,-0.793457,-3.723145
1451,-0.046021,-0.039063,0.977905,-0.793457,-0.305176,-4.272461
1461,0.004517,-0.160522,0.956665,-0.244141,0.305176,-4.760742
1472,0.017090,-0.021484,1.044800,-0.732422,0.061035,-4.943848
1481,0.015869,-0.012817,0.981689,-1.098633,-0.183105,-4.638672
1492,0.019531,-0.026367,0.939819,-1.159668,0.183105,-3.845215
1501,0.028076,-0.019897,0.938110,-1.831055,0.976562,-1.525879
1511,0.004761,-0.011230,0.951904,-1.953125,1.464844,-0.732422
1522,0.020630,0.012085,1.078613,-2.014160,2.624512,-0.061035
1531,0.033081,-0.017944,1.055054,-1.770020,2.380371,-0.183105
1541,0.031250,-0.076538,1.026611,-1.525879,2.014160,-0.793457
1551,0.083130,-0.129272,1.007813,-1.281738,1.831055,-1.831055
1561,0.099487,-0.189331,1.021484,-0.854492,1.342773,-2.624512
1571,0.116577,-0.167603,1.003052,-1.037598,0.793457,-4.089355
1582,0.104980,-0.185181,1.040161,-1.037598,-0.427246,-4.516602
1592,0.052124,-0.195190,0.957153,-1.098633,-0.427246,-4.638672
1602,0.057983,-0.140747,0.950806,-1.098633,-0.122070,-4.089355
1611,0.028442,-0.150269,0.977173,-0.793457,0.427246,-3.967285
1621,-0.023315,-0.169189,1.019043,-0.549316,0.793457,-4.028320
1632,-0.008789,-0.090332,1.069702,-0.305176,1.281738,-3.784180
1641,-0.062134,-0.160767,1.058960,0.549316,1.647949,-3.784180
1651,-0.089966,-0.051392,1.023438,0.976562,2.075195,-3.417969
1661,-0.115479,-0.042969,0.976929,1.037598,2.990723,-2.868652
1671,-0.072388,-0.056396,0.969849,1.159668,4.333496,-1.708984
1681,-0.050781,-0.031738,1.052856,1.037598,5.432129,-0.488281
1691,-0.064819,-0.019775,1.043335,1.037598,5.981445,0.549316
1702,-0.049194,-0.054321,0.957520,1.342773,6.286621,1.464844
1711,0.013306,-0.052856,0.962036,1.892090,6.347656,2.014160
1722,0.014771,-0.071655,1.132446,1.647949,6.103516,2.014160
1731,-0.024902,-0.072754,1.053467,1.525879,5.798340,2.075195
1741,-0.011719,-0.077881,1.008057,1.831055,5.798340,1.770020
1751,0.029663,-0.140869,0.936646,2.319336,6.042480,1.647949
1761,0.021362,-0.206421,0.890015,2.136230,6.591797,2.502441
1771,0.043335,-0.127319,0.894775,1.708984,7.385254,4.577637
1782,0.022705,-0.181152,0.863892,0.915527,8.850098,9.826660
1792,-0.024658,-0.180176,0.899780,0.366211,9.338379,12.634277
1801,-0.065308,-0.210937,0.934814,0.000000,9.643555,14.892578
1812,-0.072998,-0.136841,0.993286,-0.427246,9.460449,16.357422
1821,-0.053833,-0.165161,0.932129,-0.793457,9.643555,17.272949
1832,-0.045288,-0.183350,0.877441,-1.037598,9.704590,18.249512
1841,-0.037720,-0.182617,0.848511,-1.525879,9.460449,19.287109
1851,-0.073608,-0.207275,0.855347,-2.075195,9.277344,20.568848
1862,-0.079224,-0.149536,0.912109,-2.990723,9.887695,21.423340
1872,-0.056885,-0.051636,1.002808,-3.662109,10.620117,22.888184
1881,-0.072754,-0.071777,1.013672,-3.662109,10.742188,24.047852
1891,-0.060669,-0.148437,0.976318,-3.540039,11.230469,24.780273
1902,-0.053833,-0.151245,0.925903,-3.356934,11.230469,25.268555
1911,-0.049805,-0.176514,0.944458,-3.601074,10.742188,25.573730
1924,-0.015503,-0.142090,1.007324,-3.845215,9.765625,25.878906
1933,0.020020,-0.041748,1.027832,-3.479004,9.826660,25.817871
1943,0.062012,-0.171143,1.015503,-3.173828,9.399414,26.123047
1952,0.064697,-0.144897,1.060547,-3.234863,8.789063,26.245117
1962,0.085937,-0.209229,0.995605,-3.417969,8.117676,26.123047
1971,0.067871,-0.095703,1.048462,-3.662109,7.385254,25.634766
1982,0.084229,-0.108276,1.116455,-3.540039,6.835937,25.024414
1991,0.097534,-0.137939,1.155518,-2.685547,5.065918,22.827148
2003,0.119263,-0.150513,1.091797,-2.258301,3.784180,21.850586
2012,0.145386,-0.090210,1.095581,-1.831055,3.112793,21.057129
2022,0.141724,-0.150879,1.036743,-1.464844,2.990723,20.874023
2032,0.118286,-0.114136,1.064697,-1.708984,2.502441,20.751953
2041,0.126343,-0.109009,1.063477,-2.319336,1.770020,20.080566
2052,0.089722,-0.093018,1.061890,-2.197266,1.037598,19.226074
2061,0.117676,-0.066162,0.989990,-2.563477,0.122070,16.906738
2073,0.100342,-0.062500,0.997437,-3.234863,-0.793457,15.625000
2082,0.110840,-0.029663,1.006836,-3.662109,-2.014160,14.526367
2092,0.080566,-0.049927,0.975586,-3.417969,-2.197266,14.282227
2101,0.067627,-0.148193,0.825806,-3.601074,-2.319336,14.160156
2111,0.100830,-0.095459,0.821533,-3.967285,-2.441406,14.404297
2123,0.119385,-0.062988,0.814697,-5.126953,-2.685547,15.319824
2132,0.106934,-0.081909,0.912109,-5.615234,-3.051758,15.075684
2142,0.075317,-0.062012,0.925903,-5.615234,-3.540039,14.465332
2151,0.038208,-0.010986,0.991699,-5.798340,-4.211426,13.183594
2161,-0.003052,-0.077759,0.941406,-5.371094,-4.272461,12.084961
2171,0.034912,0.005005,1.034180,-4.760742,-4.882812,11.413574
2182,0.008789,-0.073120,0.983643,-3.845215,-4.760742,11.230469
2191,0.012939,-0.068726,1.000488,-2.746582,-4.150391,11.474609
2203,0.000244,-0.052979,1.008423,-0.854492,-3.601074,12.329102
2213,0.007568,-0.209351,0.908936,0.305176,-3.112793,12.512207
2222,0.038330,-0.205933,0.998779,0.976562,-3.417969,12.145996
2231,0.021973,-0.237793,0.941528,0.732422,-3.967285,11.352539
2242,0.048950,-0.091064,1.003418,0.427246,-4.577637,10.314941
2251,0.068237,-0.165161,0.998291,0.305176,-5.187988,9.643555
2262,0.090454,-0.014282,1.126831,0.549316,-5.065918,9.277344
2271,0.110352,-0.096069,1.115845,1.281738,-5.249023,9.765625
2283,0.101685,-0.102295,1.059692,1.770020,-4.760742,10.437012
2292,0.080444,-0.114990,1.114136,1.953125,-4.821777,11.352539
2302,0.096313,-0.119873,1.071289,1.770020,-4.943848,11.901855
2311,0.047607,-0.070190,0.982666,1.098633,-5.249023,12.390137
2322,0.036621,-0.087524,1.019775,0.732422,-5.493164,12.817383
2331,0.069824,-0.122803,1.008423,0.122070,-5.798340,12.939453
2343,0.067383,-0.108032,1.087158,-0.610352,-6.042480,13.488770
2353,0.067627,-0.066528,1.110840,-1.403809,-6.042480,12.939453
2362,0.046875,-0.163086,1.037720,-1.342773,-6.286621,12.512207
2372,0.048462,-0.167725,1.078979,-1.098633,-6.530762,11.840820
2382,0.044922,-0.240112,0.931763,-1.220703,-7.080078,10.742188
2391,0.039063,-0.145142,0.983521,-1.342773,-7.385254,10.192871
2402,0.042847,-0.220459,0.925659,-1.647949,-7.446289,9.460449
2413,0.081177,-0.163208,0.950928,-2.136230,-8.361816,7.629395
2423,0.104858,-0.034424,0.964355,-2.197266,-8.422852,6.958008
2432,0.062866,-0.128174,0.906250,-1.770020,-8.666992,6.225586
2442,0.079346,-0.049683,1.009033,-1.159668,-8.666992,4.943848
2451,0.013794,-0.135132,0.982788,-0.183105,-9.033203,4.089355
2461,0.023804,-0.006226,1.066162,0.610352,-8.972168,3.234863
2472,-0.024170,-0.171753,0.957886,1.831055,-8.972168,2.319336
2481,-0.010010,-0.154297,0.921631,3.906250,-8.728027,0.183105
2493,-0.050537,-0.269165,0.887573,4.516602,-8.300781,-0.122070
2502,-0.020996,-0.237305,0.866577,4.638672,-7.934570,-0.610352
2512,-0.030762,-0.299805,0.852661,4.150391,-7.690430,-0.732422
2522,-0.033447,-0.192139,0.901855,3.662109,-7.751465,-0.610352
2531,-0.032593,-0.290527,0.868896,3.112793,-7.202148,-0.122070
2541,0.000488,-0.079834,1.027466,2.563477,-6.286621,0.915527
2553,-0.024414,-0.122803,1.004761,2.258301,-5.249023,2.380371
2563,-0.078857,-0.126587,1.024658,2.258301,-4.760742,3.051758
2572,-0.042725,-0.193970,1.010254,2.197266,-3.845215,4.394531
2582,0.003906,-0.069092,1.054199,1.831055,-3.845215,5.432129
2591,-0.035889,-0.082520,1.030884,1.953125,-3.356934,6.774902
2602,-0.074097,-0.077393,1.035767,1.403809,-2.502441,8.239746
2612,-0.028809,-0.036621,1.034302,0.854492,-1.586914,9.399414
2623,-0.047852,-0.093262,1.041870,0.244141,-1.525879,10.375977
2633,-0.023926,-0.077881,1.065430,-0.061035,-1.708984,10.253906
2643,-0.009277,0.016968,1.019287,-0.488281,-1.831055,10.253906
2652,-0.004028,-0.010132,1.000610,-0.976562,-2.197266,10.253906
2662,-0.029053,-0.020264,0.903442,-1.708984,-2.807617,9.765625
2672,-0.029541,-0.022949,0.933472,-2.746582,-2.807617,9.582520
2681,-0.046509,0.019653,0.941895,-3.540039,-2.807617,9.155273
2693,-0.061890,-0.055786,0.868896,-4.089355,-2.990723,7.202148
2702,-0.043457,-0.032959,0.966919,-3.967285,-2.868652,6.042480
2712,-0.003906,-0.085083,0.950073,-4.089355,-2.746582,4.882812
2722,0.006836,-0.046631,1.004761,-4.028320,-2.502441,3.845215
2731,0.011841,-0.129272,0.965942,-3.723145,-2.868652,2.868652
2742,0.015991,-0.017822,1.102051,-3.234863,-3.173828,1.586914
2752,0.027466,-0.192871,0.993652,-2.441406,-3.234863,0.732422
2763,0.054443,-0.165527,1.069092,-1.892090,-2.990723,-0.305176
2773,0.053955,-0.123169,0.985962,-2.258301,-2.868652,-0.610352
2782,0.081909,-0.106812,0.996216,-2.136230,-2.685547,-0.427246
2792,0.065796,-0.173706,0.908691,-1.892090,-2.563477,-0.122070
2801,0.103638,-0.108154,0.956055,-1.770020,-2.685547,-0.244141
2812,0.105347,-0.202515,0.936035,-2.136230,-2.868652,-0.305176
2822,0.134399,-0.090210,1.111938,-2.563477,-2.929688,-0.183105
2831,0.066284,-0.089966,1.052612,-2.014160,-4.333496,-0.915527
2842,0.022949,-0.072754,1.066895,-1.525879,-4.333496,-0.732422
2852,0.067993,-0.065918,1.007690,-1.281738,-3.601074,-0.854492
2861,0.114624,-0.072266,1.128906,-1.159668,-2.868652,-0.549316
2872,0.053467,-0.130127,1.078125,-0.732422,-2.929688,-0.854492
2882,0.015747,-0.024536,0.993652,-0.915527,-3.479004,-2.380371
2891,0.011230,-0.180054,0.982422,-0.854492,-4.150391,-4.455566
2903,0.033569,-0.228149,0.893188,-0.854492,-5.615234,-8.422852
2913,0.018188,-0.078247,0.898682,-2.136230,-5.737305,-10.070801
2922,0.071899,-0.125610,0.785400,-2.746582,-5.371094,-11.169434
2932,0.126099,-0.038574,0.915771,-3.356934,-4.455566,-11.901855
2941,0.108154,-0.162720,0.862061,-3.540039,-4.211426,-11.962891
2952,0.144775,-0.055176,0.972778,-4.211426,-4.028320,-12.329102
2962,0.123169,-0.190186,0.897949,-4.150391,-4.089355,-12.695313
2971,0.145142,-0.036133,0.959229,-4.089355,-3.723145,-12.756348
2983,0.089600,-0.040405,0.941650,-4.150391,-3.601074,-12.512207
2992,0.046509,-0.123413,0.959351,-4.089355,-3.173828,-11.596680
3002,0.041138,-0.062988,1.005737,-3.356934,-2.441406,-10.803223
3012,0.005859,0.020386,1.083984,-2.807617,-1.831055,-9.399414
3022,-0.027832,-0.208496,0.949097,-1.953125,-1.525879,-8.544922
3032,-0.012207,-0.026123,1.081543,-1.159668,-1.037598,-6.591797
3042,0.000977,-0.232788,1.016113,0.122070,-0.488281,-5.554199
3051,-0.029175,-0.115234,0.995728,0.244141,0.183105,-4.150391
3062,-0.015747,-0.235596,0.849365,0.427246,0.793457,-2.868652
3072,-0.004883,-0.113525,1.000977,-0.122070,1.342773,-1.525879
3081,-0.023804,-0.233276,0.986938,-0.610352,1.525879,-0.244141
3092,-0.058472,-0.035522,0.977417,-1.403809,1.831055,0.610352
3102,-0.036133,-0.043335,1.036865,-1.586914,2.502441,1.403809
3111,-0.066406,-0.149048,0.913208,-2.014160,2.502441,3.295898
3122,-0.042969,-0.111084,0.995605,-2.380371,2.990723,4.455566
3132,-0.005737,-0.012695,1.010864,-2.563477,3.845215,5.310059
3141,-0.026245,-0.086182,1.003296,-2.807617,3.967285,6.225586
3152,-0.001465,-0.043335,0.920654,-3.173828,4.150391,6.713867
3162,0.002686,-0.286865,0.632568,-3.417969,4.089355,7.202148
3172,-0.005981,-0.283691,0.580811,-5.065918,4.211426,7.812500
3181,0.085937,0.051514,1.077271,-9.826660,3.845215,8.789063
3193,-0.016602,0.404297,1.592651,-8.728027,2.563477,8.544922
3202,-0.116699,0.195312,1.378174,-5.859375,2.502441,8.483887
3212,-0.146240,-0.076050,1.145264,-1.831055,3.417969,9.216309
3222,-0.100098,-0.197266,1.190063,0.122070,5.126953,10.925293
3232,-0.002075,-0.109009,1.139404,0.610352,6.408691,12.878418
3242,-0.027344,-0.174194,0.793823,0.488281,6.042480,14.465332
3251,-0.014771,-0.246826,0.536255,-1.342773,5.310059,16.357422
3263,0.085815,-0.172729,0.737183,-2.380371,4.882812,15.930176
3272,0.011108,-0.056763,0.971802,-2.929688,3.845215,14.953613
3282,-0.016113,0.038208,1.151978,-2.929688,3.234863,14.526367
3292,-0.001343,-0.065186,1.145142,-2.563477,3.295898,14.587402
3302,-0.038574,0.062378,1.257813,-0.915527,3.479004,14.831543
3312,-0.047119,-0.084351,1.284912,1.586914,3.295898,14.953613
3323,-0.051880,-0.283325,1.144897,5.432129,3.784180,15.930176
3333,0.000854,-0.295044,1.039551,5.126953,3.845215,16.479492
3342,0.017334,-0.192261,0.905518,4.333496,3.662109,16.723633
3352,0.008057,-0.080933,0.877197,3.662109,3.479004,17.028809
3362,0.027832,-0.149414,0.878052,3.479004,3.417969,17.028809
3372,0.053833,-0.188477,0.863525,3.417969,3.112793,17.028809
3381,0.087524,-0.082642,0.968140,2.868652,2.380371,16.662598
3393,0.078003,-0.060791,1.087158,2.075195,1.220703,15.625000
3403,0.065552,0.004517,1.095947,0.732422,-0.427246,15.258789
3412,0.099609,-0.111328,1.097534,0.976562,-0.915527,14.587402
3422,0.066040,-0.074585,1.077271,1.770020,-1.586914,14.282227
3432,0.103394,-0.096436,1.064331,2.014160,-1.892090,13.793945
3442,0.073853,-0.078735,0.971069,1.770020,-2.563477,13.366699
3452,0.069458,-0.073730,0.955200,1.708984,-3.112793,12.451172
3462,0.038574,-0.207886,0.794678,1.831055,-3.662109,11.901855
3472,0.044189,0.035278,0.731323,1.220703,-4.150391,10.803223
3482,0.090576,-0.020386,0.879150,2.014160,-4.577637,9.765625
3491,0.088135,-0.511108,0.754639,3.662109,-5.187988,8.728027
3502,0.031860,-0.474243,0.882080,2.197266,-5.981445,7.263184
3511,0.072754,-0.293335,1.035889,0.183105,-6.042480,6.164551
3522,0.040527,-0.171631,1.123535,-1.464844,-6.408691,4.760742
3533,0.132935,0.079834,1.188721,-3.112793,-7.324219,1.647949
3543,0.094604,-0.205566,0.904907,-2.502441,-7.507324,0.549316
3552,-0.013062,0.129761,0.946777,-1.953125,-7.690430,-0.671387
3562,0.011719,-0.091675,0.904907,-0.427246,-7.751465,-1.525879
3572,0.085205,-0.182251,0.955933,1.159668,-7.690430,-2.014160
3581,0.088623,-0.243408,0.865601,0.976562,-7.507324,-2.624512
3593,0.067993,-0.158325,0.868408,-2.136230,-7.263184,-2.685547
3602,0.070557,-0.264526,0.932007,-2.136230,-7.751465,-3.723145
3613,0.020996,-0.173096,0.989990,-2.807617,-8.361816,-5.310059
3622,0.043335,-0.144897,1.115967,-3.967285,-9.094238,-6.408691
3632,0.040161,-0.233032,1.056396,-5.004883,-8.911133,-6.896973
3642,0.011108,0.059814,1.120483,-6.408691,-8.605957,-7.141113
3652,-0.014648,-0.009277,1.022461,-6.835937,-8.605957,-7.446289
3662,-0.040039,-0.026367,0.949585,-6.896973,-7.385254,-5.920410
3672,0.023804,-0.019897,1.024292,-7.019043,-5.737305,-5.371094
3681,-0.026367,-0.014404,1.068726,-7.019043,-5.310059,-5.126953
3692,-0.074463,0.032227,1.122314,-6.530762,-5.004883,-5.126953
3702,-0.090820,-0.006348,1.120972,-5.554199,-4.943848,-5.187988
3712,-0.066284,-0.105347,1.067993,-4.272461,-4.821777,-5.432129
3722,-0.126709,-0.172974,1.023438,-3.051758,-4.333496,-5.187988
3732,-0.085083,-0.153809,1.047729,-2.685547,-3.662109,-4.455566
3741,-0.111938,-0.202637,1.000854,-2.868652,-1.647949,-2.929688
3752,-0.151489,-0.052368,0.866943,-2.929688,-1.098633,-2.563477
3762,-0.089722,-0.228394,0.714966,-2.990723,-0.305176,-2.319336
3772,-0.060791,-0.028564,0.881348,-3.479004,-0.061035,-2.807617
3782,-0.049072,-0.140747,0.882935,-3.723145,-0.122070,-3.051758
3791,-0.077759,0.064087,0.983521,-3.601074,0.122070,-3.479004
3805,-0.003540,-0.091187,1.077637,-0.793457,1.464844,-3.601074
3815,-0.055908,-0.083496,1.038696,1.098633,2.136230,-3.295898
3825,-0.024414,-0.126831,1.072021,1.892090,2.197266,-2.929688
3835,-0.055786,-0.303223,0.922363,2.197266,2.746582,-2.258301
3844,0.023437,-0.100464,0.933472,1.220703,2.868652,-1.953125
3854,0.030518,-0.142212,0.896240,0.427246,2.624512,-1.708984
3863,0.010010,-0.022461,0.891357,-0.488281,2.807617,-0.793457
3873,0.041504,0.084351,1.004761,-1.098633,3.112793,0.122070
3882,0.052002,-0.031128,1.067139,-0.793457,3.662109,1.098633
3893,0.027954,0.009277,1.130493,-0.305176,3.784180,1.953125
3902,0.032471,-0.056885,1.115479,0.305176,3.723145,2.807617
3912,0.028442,-0.095703,1.079712,0.976562,3.967285,3.356934
3922,0.070312,-0.094849,1.086548,1.220703,3.479004,3.356934
3932,0.008911,-0.188232,0.988525,1.342773,2.502441,3.112793
3944,-0.001465,-0.021973,1.017090,0.976562,2.258301,3.112793
3954,0.006226,-0.049805,1.010620,1.220703,2.807617,4.028320
3963,0.019653,0.043335,1.041382,1.403809,2.990723,4.943848
3973,-0.003418,-0.212280,0.975342,2.197266,3.417969,5.737305
3982,-0.072144,-0.289673,1.004272,2.685547,3.295898,5.737305
3992,-0.075806,-0.019409,1.093872,2.258301,3.051758,5.126953
4002,-0.033813,-0.126221,1.075439,2.136230,3.051758,4.821777
4014,-0.075684,-0.024170,1.034180,2.685547,3.112793,3.540039
4024,-0.144165,-0.317505,0.774414,3.112793,3.784180,3.967285
4033,-0.014893,-0.212524,0.785278,2.380371,4.699707,4.638672
4043,0.033203,-0.308350,0.785889,1.098633,5.187988,5.126953
4052,0.018799,-0.075439,0.778198,-1.098633,5.432129,6.103516
4062,0.099609,0.061279,0.944092,-2.380371,5.187988,6.652832
4072,0.076172,-0.081787,0.879272,-2.136230,4.943848,6.591797
4082,0.056885,-0.017578,1.017212,-1.953125,4.577637,6.225586
4094,0.028564,-0.160156,1.012573,-1.647949,3.417969,5.554199
4103,0.045654,-0.030151,1.099609,-1.831055,3.662109,6.408691
4112,-0.037231,-0.136353,1.005737,-1.831055,3.845215,7.385254
4122,-0.024048,-0.036133,1.021118,-1.708984,3.845215,7.934570
4133,-0.011108,-0.107544,0.980225,-1.464844,3.906250,8.544922
4142,0.041016,-0.212769,1.012329,-1.647949,4.577637,9.277344
4152,0.002563,-0.012695,1.128662,-2.136230,4.455566,9.704590
4163,-0.068970,-0.148437,0.961914,-1.525879,4.577637,11.352539
4173,0.001343,-0.048462,1.079834,-1.037598,4.638672,12.145996
4183,-0.054321,-0.112061,1.044800,-0.732422,4.821777,12.756348
4192,-0.007202,-0.194214,1.010010,-1.037598,4.638672,12.878418
4202,-0.004395,-0.108276,1.043457,-1.037598,4.211426,12.878418
4212,0.030640,-0.204346,1.046753,-1.281738,4.028320,12.451172
4224,0.029419,-0.026855,0.958740,-1.098633,3.173828,10.864258
4234,0.076538,-0.224243,1.026978,-1.220703,2.807617,10.131836
4243,0.068726,-0.179443,0.995239,-1.831055,2.380371,9.460449
4252,0.095581,-0.020630,1.079468,-2.075195,2.197266,9.094238
4262,0.097534,-0.069946,1.028931,-2.014160,1.281738,8.789063
4272,0.092529,-0.178345,0.999390,-1.525879,1.159668,8.544922
4282,0.131958,-0.150146,1.092163,-1.037598,0.671387,8.666992
4293,0.096313,-0.131348,0.995850,-2.014160,-0.244141,9.094238
4303,0.076904,-0.034058,0.939087,-2.380371,-0.610352,9.216309
4312,0.093018,-0.178467,0.826172,-2.868652,-0.793457,8.972168
4322,0.048462,0.058472,0.946045,-3.723145,-1.098633,8.300781
4332,0.053467,-0.059814,0.913452,-4.516602,-1.831055,7.080078
4342,0.021606,0.017944,0.950562,-5.310059,-2.136230,5.920410
4352,0.023315,0.202881,1.059326,-5.065918,-2.380371,4.882812
4362,0.011475,-0.034180,0.956177,-3.479004,-2.319336,3.784180
4372,-0.001465,0.030029,0.991577,-1.525879,-2.014160,3.906250
4382,-0.005127,-0.215576,0.996216,-0.976562,-1.831055,4.577637
4392,-0.012207,0.001709,1.025024,-0.915527,-1.159668,4.882812
4402,-0.027710,-0.141235,0.945190,-0.549316,-1.159668,5.249023
4413,-0.024170,-0.150635,0.861206,0.061035,-1.037598,5.493164
4422,-0.020386,-0.143066,0.927368,0.305176,-0.915527,5.432129
4432,-0.007446,-0.308716,0.843018,0.183105,-0.976562,4.882812
4443,0.046021,-0.166504,1.048584,-1.037598,-1.098633,4.638672
4453,0.059448,-0.248291,0.928711,-0.915527,-1.037598,4.394531
4462,0.078003,-0.034180,1.010376,-0.549316,-1.220703,4.272461
4472,0.104980,-0.191284,0.959351,-0.366211,-1.708984,4.333496
4483,0.078491,-0.228149,0.966187,-0.671387,-2.014160,4.333496
4492,0.153687,-0.107178,1.081055,-1.403809,-2.441406,4.455566
4504,0.110229,0.033203,1.046753,-2.258301,-3.295898,4.516602
4514,0.119629,0.049072,1.099121,-1.953125,-3.173828,4.516602
4524,0.099121,-0.034912,1.085938,-1.770020,-3.356934,4.699707
4533,0.049316,-0.067627,1.119263,-1.403809,-3.417969,4.455566
4543,0.016357,-0.024902,1.100342,-1.464844,-3.723145,4.211426
4552,0.009399,-0.118164,1.084839,-1.586914,-4.028320,4.089355
4562,-0.046631,-0.075684,0.979126,-1.892090,-4.272461,3.784180
4572,0.036621,0.036255,1.033569,-1.953125,-4.333496,4.028320
4583,0.037476,-0.130981,0.903687,-2.685547,-3.845215,4.150391
4593,0.034424,-0.035400,1.024658,-3.356934,-3.295898,4.089355
4602,-0.012085,-0.187256,0.896729,-3.356934,-3.295898,4.150391
4612,0.000122,-0.024170,1.012451,-3.173828,-3.540039,3.601074
4623,0.022095,-0.117676,0.983765,-2.929688,-3.784180,2.990723
4632,-0.000610,-0.135376,0.958008,-2.319336,-3.662109,2.746582
4642,0.018677,-0.033691,0.972290,-2.075195,-3.906250,1.831055
4653,-0.000244,-0.099854,0.945801,-1.098633,-3.601074,1.647949
4663,0.005615,-0.077393,1.012817,-0.793457,-3.417969,1.525879
4672,-0.030151,-0.278320,0.819946,-0.305176,-3.234863,1.831055
4682,-0.012329,-0.279785,0.783081,-0.061035,-2.807617,2.868652
4692,0.012207,-0.255615,0.826782,-0.976562,-2.197266,3.723145
4702,-0.019287,-0.157959,0.838013,-2.380371,-2.014160,4.333496
4712,-0.005493,-0.103027,0.943115,-3.112793,-2.075195,4.577637
4724,-0.016724,-0.099854,0.966553,-3.601074,-2.075195,4.333496
4733,0.001831,0.028931,1.057373,-3.417969,-2.136230,4.333496
4743,-0.072510,-0.154297,1.029419,-3.295898,-1.953125,4.150391
4752,-0.050659,-0.047974,1.041626,-3.112793,-2.014160,4.638672
4762,-0.086548,-0.034668,1.109009,-2.563477,-1.525879,5.432129
4773,-0.058594,-0.183838,0.965820,-2.319336,-1.159668,5.798340
4782,-0.077148,-0.163696,1.013184,-2.441406,0.427246,7.385254
4792,-0.023804,-0.082764,1.053955,-2.380371,0.122070,7.751465
4802,-0.058594,-0.102173,1.023682,-2.624512,0.122070,7.690430
4812,-0.090576,-0.095947,0.989502,-2.990723,0.122070,7.995605
4823,-0.066284,-0.048584,1.048828,-3.417969,0.549316,8.178711
4832,-0.025635,-0.006836,1.099854,-3.723145,0.549316,8.117676
4843,-0.042847,-0.039185,1.042725,-3.967285,0.549316,8.178711
4852,-0.035522,-0.048096,1.105347,-4.089355,0.671387,8.483887
4862,0.021729,0.026489,1.025391,-3.540039,0.793457,8.728027
4872,-0.027222,-0.001221,1.002563,-3.356934,0.671387,8.850098
4882,-0.009155,0.006348,1.045288,-3.601074,0.610352,9.033203
4893,0.021484,0.067749,1.049927,-3.356934,0.427246,8.483887
4902,0.000366,-0.021240,1.049683,-2.502441,0.244141,7.873535
4913,-0.002930,-0.085815,1.082397,-1.708984,0.000000,7.019043
4922,0.013672,-0.111938,1.053223,-0.854492,-0.244141,5.249023
4932,0.007324,-0.227661,1.015259,-0.488281,-0.244141,4.333496
4942,0.070190,-0.093872,0.866943,-0.854492,-0.976562,2.929688
4952,0.127197,-0.310547,0.743164,-1.281738,-1.953125,1.647949
4963,0.132080,-0.105957,0.804321,-2.319336,-2.258301,0.610352
4972,0.172241,-0.179687,0.808838,-3.051758,-2.746582,-0.366211
4982,0.150146,-0.125977,0.816040,-3.906250,-3.112793,-1.342773
4995,0.099731,-0.171875,0.975708,-3.479004,-3.967285,-3.601074
5004,0.032227,-0.077026,1.007690,-2.441406,-4.699707,-5.004883
5014,0.014160,-0.101929,1.069336,-1.403809,-4.943848,-5.615234
5024,0.001343,-0.323364,0.898682,-0.671387,-5.065918,-5.859375
5033,0.001709,-0.090210,0.965820,-0.549316,-4.028320,-5.676270
5043,0.093140,-0.093262,1.015137,-0.610352,-2.929688,-5.065918
5053,0.021118,-0.262085,0.829102,-0.915527,-2.502441,-5.310059
5062,0.017700,-0.058472,0.904663,-1.708984,-2.990723,-6.958008
5072,-0.009766,-0.049194,0.919922,-1.525879,-3.234863,-8.056641
5082,-0.023560,-0.004028,1.068848,-1.647949,-2.868652,-8.789063
5093,-0.051270,0.117310,1.218262,-1.953125,-2.990723,-8.605957
5103,-0.024658,-0.169556,0.990356,-1.525879,-1.770020,-8.056641
5112,-0.005127,-0.080933,0.954468,-1.281738,-0.854492,-6.530762
5123,0.005371,0.113647,1.116699,-1.159668,0.244141,-4.760742
5132,-0.006836,-0.176147,1.024292,-0.732422,0.610352,-2.746582
5144,0.008301,0.030884,1.039063,-1.403809,0.793457,-2.319336
5153,0.008179,-0.057495,1.037598,-1.586914,1.220703,-1.953125
5163,-0.016724,-0.168335,0.971924,-1.892090,1.159668,-1.342773
5172,-0.018066,-0.019043,1.001831,-1.953125,1.403809,-0.244141
5182,0.030884,-0.119019,1.026855,-1.770020,1.953125,0.915527
5192,0.000000,-0.232422,1.037476,-1.831055,2.441406,2.380371
5204,0.078125,-0.173096,1.016846,-2.197266,2.685547,4.760742
5213,0.020996,-0.288452,0.874023,-3.173828,2.807617,5.615234
5223,0.002930,0.038452,1.002441,-3.540039,2.746582,5.920410
5232,-0.006470,-0.008789,1.054077,-3.540039,2.258301,6.103516
5243,-0.047974,-0.244141,0.935669,-3.540039,2.075195,5.859375
5252,-0.039551,-0.028442,1.054932,-3.112793,2.319336,5.615234
5262,-0.044312,-0.018311,1.059082,-2.197266,2.624512,5.737305
5274,0.001953,-0.242310,0.885376,-1.159668,3.356934,6.408691
5284,0.026978,-0.019897,1.036377,-1.159668,3.051758,6.530762
5293,-0.021484,-0.215942,0.931763,-0.915527,3.051758,6.286621
5303,0.043945,-0.197144,0.885010,-0.671387,2.502441,5.676270
5312,0.019653,-0.057861,0.935913,-0.366211,2.136230,5.371094
5323,0.038696,-0.185669,0.931274,-0.122070,2.014160,5.187988
5332,0.022217,-0.317993,0.878906,-0.793457,1.953125,5.126953
5344,0.082764,-0.028198,1.021973,-1.098633,2.136230,5.981445
5353,0.073486,-0.274292,0.900024,-0.976562,1.647949,6.652832
5363,0.072021,-0.119263,0.898926,-1.464844,1.403809,7.080078
5372,0.103394,0.122681,1.064575,-1.647949,0.732422,7.324219
5383,0.046509,-0.029907,1.088013,-1.586914,0.366211,7.934570
5392,0.035522,-0.120361,1.023804,-1.281738,0.244141,8.422852
5403,-0.015259,0.039185,1.032959,-1.159668,-0.061035,8.605957
5412,0.009521,0.113892,1.091553,-1.159668,0.488281,9.765625
5424,-0.029297,-0.121704,1.043213,-1.281738,0.488281,9.826660
5433,-0.064819,-0.128540,1.018066,-1.403809,0.549316,9.826660
5443,-0.066406,0.004761,1.002197,-1.525879,0.549316,9.643555
5453,-0.045898,-0.004272,1.013184,-2.075195,1.037598,9.643555
5463,-0.056030,-0.039185,1.001709,-2.746582,1.098633,9.643555
5472,-0.016235,-0.032593,0.980469,-3.112793,0.976562,9.582520
5484,-0.014893,-0.148926,0.992676,-3.173828,1.403809,10.009766
5494,-0.008789,-0.128052,0.984253,-2.685547,1.403809,10.009766
5503,0.055298,-0.112427,1.026489,-2.746582,0.732422,10.314941
5512,0.095703,-0.281250,0.982788,-2.502441,0.366211,10.559082
5523,0.160278,-0.140747,0.969482,-2.380371,-0.122070,10.375977
5532,0.167358,0.044678,1.038940,-1.953125,-0.854492,10.070801
5543,0.154907,-0.185913,1.028320,-1.220703,-1.953125,9.704590
5552,0.164917,-0.269653,0.966919,-1.525879,-3.173828,8.544922
5564,0.145142,0.080688,1.132080,-1.342773,-4.028320,7.751465
5573,0.124023,-0.120239,1.068481,-0.976562,-4.699707,6.530762
5583,0.119019,-0.280518,0.959473,-0.671387,-5.065918,5.493164
5593,0.085815,-0.108887,0.939331,-0.305176,-5.554199,4.333496
5602,0.097290,0.011841,1.025146,0.305176,-6.408691,2.746582
5613,0.068970,-0.214844,0.942627,-0.122070,-7.019043,1.647949
5622,0.022583,-0.279785,0.846680,-0.976562,-7.568359,-2.197266
5632,0.034424,-0.118164,0.929687,-0.854492,-7.812500,-3.417969
5643,-0.051270,-0.313232,0.855591,-0.915527,-7.202148,-4.760742
5653,-0.025391,-0.116577,0.973755,-1.586914,-7.507324,-6.225586
5662,-0.026855,0.045532,1.117798,-1.525879,-7.568359,-7.629395
5672,-0.007080,-0.125610,1.079224,-0.732422,-7.202148,-8.361816
5683,0.014404,-0.249146,0.997192,-0.061035,-6.835937,-9.277344
5693,0.021240,-0.102051,0.982300,0.366211,-6.042480,-9.216309
5702,0.057983,-0.094849,1.008789,0.244141,-5.554199,-8.850098
5713,0.033813,-0.225098,0.913574,0.183105,-5.065918,-8.117676
5723,0.069336,-0.118774,0.915771,0.061035,-4.760742,-6.896973
5732,0.040161,-0.115356,0.997437,-0.061035,-4.455566,-5.981445
5743,0.073853,-0.348022,0.922241,-0.061035,-4.394531,-5.004883
5753,-0.010742,-0.366455,0.807739,-0.305176,-4.150391,-4.028320
5762,-0.045898,-0.031494,0.865845,-1.770020,-2.929688,-2.075195
5773,-0.050171,-0.055176,0.830933,-2.929688,-2.685547,-1.403809
5783,-0.138794,-0.099976,0.896240,-3.784180,-1.953125,-0.732422
5793,-0.167114,0.040283,0.970459,-3.845215,-1.342773,-0.061035
5803,-0.129639,-0.054810,0.990601,-3.784180,-0.610352,1.220703
5813,-0.151123,-0.134521,0.938477,-4.028320,0.610352,2.258301
5822,-0.178345,-0.005859,0.944214,-4.394531,1.342773,3.356934
5834,-0.108521,-0.228638,0.905884,-4.272461,2.990723,5.615234
5844,-0.135132,-0.292969,0.846313,-5.187988,3.723145,6.042480
5853,-0.118530,0.009521,0.968140,-5.859375,3.967285,6.713867
5863,-0.063110,0.181641,1.065796,-6.469727,4.211426,7.202148
5872,-0.052979,0.043335,1.036621,-6.835937,4.394531,7.568359
5883,-0.065430,-0.028076,1.029663,-6.896973,4.516602,8.056641
5892,-0.036255,0.116821,1.120972,-6.530762,4.638672,8.483887
5905,-0.072510,0.072266,1.097656,-4.638672,4.638672,8.666992
5914,-0.016602,-0.051392,1.091919,-3.540039,4.211426,8.422852
5923,0.026367,-0.140747,1.054321,-2.685547,4.089355,8.544922
5933,0.031372,-0.148926,1.012817,-2.258301,3.845215,8.239746
5943,0.026855,-0.099121,1.034058,-2.380371,3.356934,7.751465
5953,0.063843,-0.062256,1.069214,-2.746582,2.990723,7.202148
5962,0.099609,-0.144287,0.991821,-2.929688,2.563477,6.530762
5974,0.043701,-0.065186,1.039429,-2.563477,1.403809,5.554199
5984,0.100952,-0.064087,1.073364,-4.028320,1.342773,5.432129
5993,0.137573,0.181763,1.445435,-3.540039,1.464844,5.432129
6002,-0.014771,-0.051270,1.228027,-1.647949,0.732422,5.371094
6013,-0.117920,-0.066650,1.241943,0.488281,-0.183105,3.723145
6023,-0.004639,-0.335938,1.097656,2.441406,-0.305176,3.051758
6033,-0.062988,-0.305664,1.082153,2.929688,-0.915527,2.136230
6042,-0.004395,-0.082642,1.020142,2.868652,-1.220703,0.793457
6054,0.064331,-0.082642,0.897095,3.051758,-0.061035,1.281738
6064,0.087769,-0.041016,1.005493,3.112793,0.854492,1.159668
6073,0.050903,-0.125000,1.037231,3.906250,0.915527,0.488281
6083,-0.017456,-0.196533,1.095337,4.638672,0.000000,-0.976562
6093,-0.003174,-0.208984,1.067505,5.310059,-0.732422,-2.441406
6103,-0.020630,-0.190674,0.958252,5.981445,-0.549316,-3.601074
6112,0.035278,-0.093628,0.932739,6.896973,-0.671387,-5.126953
6123,0.039795,-0.295532,0.854614,7.141113,-0.671387,-5.798340
6133,0.051880,-0.224121,0.826782,6.774902,-0.427246,-6.408691
6142,0.004028,-0.137573,0.947998,6.652832,0.000000,-7.141113
6153,0.017090,-0.056763,1.029663,6.408691,0.244141,-7.751465
6162,0.010986,-0.089355,1.053589,6.530762,0.671387,-8.300781
6174,0.010376,-0.233765,0.901367,6.408691,1.281738,-8.422852
6183,0.026611,-0.184692,0.716919,4.638672,2.136230,-7.751465
6194,0.101929,-0.107666,0.763062,2.807617,2.136230,-6.835937
6203,0.054932,0.067627,0.910156,1.281738,2.624512,-5.432129
6213,0.029053,0.068970,1.075562,1.159668,2.685547,-4.089355
6223,0.024658,-0.093872,1.047852,1.281738,2.868652,-3.540039
6232,-0.043945,-0.228638,0.947998,1.403809,3.173828,-2.563477
6244,-0.026733,-0.059937,0.955811,-0.305176,4.577637,0.610352
6254,-0.025757,-0.239380,0.973145,-0.610352,5.065918,2.258301
6263,-0.047363,-0.280518,0.994019,-0.915527,4.394531,3.051758
6273,0.004639,-0.018921,1.052124,-1.525879,4.699707,4.150391
6283,0.017944,-0.145874,1.037354,-1.586914,4.882812,4.943848
6293,0.075317,-0.195557,1.029907,-3.356934,5.432129,5.981445
6303,0.059204,-0.109619,1.042236,-5.004883,5.554199,7.446289
6313,0.046631,-0.098145,0.918213,-5.371094,5.737305,8.361816
6324,0.004028,-0.035156,1.016602,-5.126953,5.004883,9.155273
6334,0.016846,-0.117798,1.015625,-5.737305,4.211426,7.995605
6344,-0.057129,-0.156006,0.981934,-6.408691,3.540039,7.080078
6353,0.000244,-0.061279,1.018188,-6.774902,3.417969,7.263184
6363,0.022949,0.069702,1.058716,-6.835937,3.784180,7.873535
6373,0.083496,0.121948,1.058716,-6.835937,4.272461,9.643555
6383,0.049194,0.043091,1.087280,-6.652832,4.577637,11.535645
6394,0.049438,-0.025513,1.005615,-6.469727,4.455566,14.221191
6404,0.078613,0.042969,0.988159,-6.042480,3.967285,14.526367
6413,0.014160,0.046265,0.978516,-5.249023,3.662109,14.587402
6423,-0.005371,-0.120850,0.894531,-5.065918,2.746582,14.343262
6433,-0.026489,-0.180908,0.841919,-5.432129,1.953125,13.854980
6443,-0.081543,0.040161,0.904907,-5.920410,1.953125,13.549805
6454,-0.045776,0.107178,1.041138,-5.981445,2.075195,13.183594
6464,-0.103271,-0.037109,1.042603,-5.126953,2.502441,13.366699
6473,-0.064697,-0.007324,1.071533,-3.601074,2.807617,13.610840
6483,-0.110840,-0.029297,1.145996,-1.281738,3.356934,13.977051
6494,-0.068237,-0.045532,1.187744,0.122070,3.234863,14.221191
6503,-0.027954,-0.222290,1.062622,1.647949,3.234863,14.221191
6513,0.043091,-0.374146,0.961060,2.441406,2.868652,14.099121
6523,0.062134,-0.524048,0.751709,2.380371,2.319336,13.916016
6534,0.126099,-0.101807,0.741699,-14.343262,0.671387,13.183594
6544,0.145752,-0.177856,0.759521,-1.892090,0.244141,13.366699
6553,0.181274,-0.223267,0.823486,-3.417969,-0.488281,13.488770
6564,0.150269,0.041504,0.951050,-4.394531,-1.098633,13.671875
6573,0.109009,0.126099,1.120972,-4.211426,-1.831055,13.549805
6583,0.075928,0.048706,1.204956,-3.784180,-2.380371,14.038086
6593,0.082520,0.042236,1.224731,-2.624512,-2.868652,13.916016
6604,0.089722,-0.109741,1.107544,0.549316,-3.845215,13.366699
6614,0.037476,-0.108643,1.170166,1.403809,-3.967285,13.366699
6623,0.046387,-0.088257,1.101196,2.136230,-4.699707,12.756348
6634,0.011841,-0.136230,1.022217,2.807617,-5.065918,11.718750
6643,0.047485,-0.128662,0.991577,2.319336,-5.432129,10.681152
6654,0.061035,-0.046631,0.963379,1.342773,-5.493164,9.216309
6663,0.020508,-0.214355,0.934570,0.854492,-6.408691,7.263184
6674,0.024414,-0.108765,1.025635,0.244141,-7.507324,3.662109
6684,0.028931,-0.063232,0.980225,0.488281,-7.934570,2.380371
6693,0.005493,-0.167358,0.988403,0.610352,-8.178711,1.220703
6703,0.028564,-0.140015,0.985718,0.854492,-7.873535,0.549316
6713,0.025146,-0.085083,1.031738,0.915527,-7.934570,-0.366211
6723,-0.033203,-0.142700,1.062866,1.464844,-7.751465,-0.854492
6733,0.024414,-0.114624,1.116943,1.525879,-7.629395,-0.976562
6745,0.020386,-0.183350,0.985352,1.220703,-6.469727,-1.464844
6754,0.019531,-0.289917,0.965942,0.732422,-6.591797,-1.647949
6763,0.068848,-0.265259,0.858154,-0.549316,-6.774902,-1.770020
6773,0.010254,-0.287109,0.833496,-1.708984,-6.774902,-2.014160
6784,0.050659,-0.138062,0.871582,-2.624512,-7.019043,-2.319336
6793,0.098022,0.019653,0.948242,-3.479004,-7.080078,-2.746582
6803,0.033936,-0.077515,0.901855,-3.295898,-6.774902,-3.112793
6815,-0.000610,-0.040039,0.890137,-2.014160,-6.591797,-3.723145
6824,0.005371,0.015381,0.964111,-1.770020,-5.981445,-3.784180
6834,-0.000977,-0.050903,0.961182,-1.586914,-5.859375,-3.967285
6844,-0.035522,-0.149780,0.979736,-1.098633,-5.432129,-4.211426
6853,-0.030762,-0.167114,0.962891,-0.793457,-5.065918,-3.967285
6863,-0.103760,-0.093628,0.923584,-0.793457,-4.699707,-4.089355
6873,-0.087402,-0.057129,0.959595,-1.159668,-3.845215,-2.502441
6885,-0.088867,0.037231,1.094360,-1.770020,-2.319336,-2.136230
6894,-0.078491,-0.024780,1.042114,-2.014160,-1.770020,-2.075195
6904,-0.070190,-0.125610,0.978516,-1.953125,-1.525879,-1.770020
6914,-0.000854,-0.110352,1.012939,-2.075195,-1.281738,-2.136230
6924,-0.036255,-0.082397,1.011475,-2.502441,-1.525879,-2.502441
6933,0.039917,0.056885,1.073975,-2.624512,-1.586914,-2.929688
6943,0.042725,0.041748,1.181885,-2.319336,-1.159668,-2.685547
6955,0.011108,-0.053223,1.056396,-1.037598,-1.281738,-2.807617
6964,0.020630,-0.013184,1.044434,-0.427246,-1.037598,-2.075195
6974,0.048340,-0.055908,1.065552,-0.305176,-1.220703,-1.831055
6984,0.029907,-0.211304,0.860107,-0.854492,-1.342773,-1.464844
6994,0.017456,-0.490601,0.331177,-2.075195,-1.281738,-1.037598
7003,0.036743,-0.259155,0.578979,-5.493164,-0.671387,-0.427246
7013,0.038818,0.056274,0.809082,-8.605957,-0.976562,-0.061035
7023,-0.031250,0.394653,1.188721,-9.155273,-0.793457,-0.183105
7034,-0.128418,-0.170776,0.930786,-7.019043,-0.549316,0.000000
7043,-0.074219,-0.096802,1.117432,-7.263184,0.305176,0.366211
7053,-0.093140,0.187134,1.243774,-6.958008,1.403809,1.586914
7064,-0.083008,0.126343,1.128906,-4.760742,2.014160,2.624512
7073,-0.070801,-0.122559,0.958374,-2.319336,2.075195,3.051758
7086,0.002197,-0.299561,0.920532,0.183105,2.441406,1.770020
7095,-0.014648,-0.235352,0.962158,0.122070,2.197266,1.220703
7104,0.046143,-0.077393,0.959106,-0.793457,1.953125,1.098633
7114,0.063110,-0.084473,0.959351,-1.159668,2.136230,1.281738
7123,-0.008789,-0.140259,0.988647,-0.854492,2.136230,2.014160
7133,0.004639,-0.202026,1.005127,-0.122070,1.953125,2.563477
7143,-0.000244,-0.209473,1.031616,-0.122070,2.197266,3.234863
7153,0.004028,-0.038696,1.094849,-0.549316,2.197266,5.065918
7165,-0.008789,-0.115234,0.945068,0.305176,2.441406,5.493164
7174,-0.009644,-0.231079,0.888794,0.366211,2.624512,5.554199
7184,-0.026123,-0.290161,0.926025,-0.305176,2.075195,5.004883
7194,0.048340,-0.173096,1.011719,-1.525879,1.708984,4.699707
7203,-0.012329,-0.026611,1.061401,-2.258301,1.647949,4.516602
7213,0.034668,0.026855,1.048340,-2.685547,1.586914,4.272461
7224,-0.019287,-0.103760,1.048462,-2.685547,1.953125,4.577637
7234,0.056885,-0.126343,1.046509,-3.112793,1.708984,4.638672
7243,0.044189,-0.124878,1.018311,-3.723145,1.159668,4.394531
7253,0.073975,-0.073853,0.993042,-4.150391,1.098633,3.845215
7263,0.074707,0.191895,0.965332,-4.150391,0.549316,3.234863
7273,0.059692,-0.067139,0.944702,-2.075195,0.061035,2.075195
7283,0.032471,-0.367920,0.940674,0.183105,0.183105,1.708984
7296,0.063965,-0.393677,1.087036,1.220703,-0.305176,1.281738
7305,-0.004150,-0.311157,0.970215,2.136230,-1.037598,0.854492
7315,0.071045,-0.160645,0.903931,1.403809,-1.586914,-0.061035
7324,0.104248,-0.149780,0.908691,1.220703,-1.831055,-0.854492
7334,0.060303,-0.178101,0.833862,0.793457,-1.831055,-1.037598
7344,0.107666,-0.203857,0.795410,-0.366211,-1.831055,-0.854492
7353,0.084595,-0.143677,0.863281,-1.403809,-2.014160,-0.427246
7363,0.044434,-0.110840,0.920410,-1.892090,-2.075195,-0.305176
7375,0.066650,0.026245,1.096191,-2.441406,-1.892090,0.000000
7384,0.071411,0.064941,1.152954,-2.319336,-2.136230,-0.122070
7394,-0.002686,-0.026855,1.133301,-1.708984,-2.014160,0.122070
7403,0.064941,-0.032104,1.071411,-0.976562,-1.953125,0.549316
7413,0.025635,0.016846,1.061646,-0.915527,-1.647949,0.854492
7424,0.003784,0.008179,1.088989,-0.854492,-1.770020,0.671387
7433,0.039063,-0.004272,1.052246,-1.220703,-1.831055,0.671387
7445,-0.043701,-0.045654,1.010132,-1.464844,-1.586914,-0.061035
7454,-0.044678,-0.046875,1.026855,-1.525879,-1.159668,-0.122070
7464,-0.056763,-0.041504,1.041504,-1.647949,-1.159668,0.000000
7473,-0.046143,-0.034912,1.041870,-1.220703,-0.976562,0.244141
7483,-0.059448,-0.046387,1.047974,-0.915527,-0.793457,0.732422
7494,-0.009644,-0.068726,1.041870,-0.671387,-0.732422,1.159668
7503,-0.061157,-0.077393,1.035522,-0.488281,0.305176,2.441406
7513,0.025024,-0.084229,1.030151,-0.122070,0.183105,3.479004
7524,0.084717,-0.121216,0.963135,0.488281,0.183105,4.150391
7533,0.068848,-0.166748,0.929687,0.915527,0.183105,4.760742
7543,0.052002,-0.250854,0.904053,1.281738,-0.183105,5.554199
7553,0.047363,-0.286743,0.907349,1.159668,-0.671387,5.676270
7564,0.051514,-0.139404,0.894897,0.427246,-1.220703,5.432129
7573,0.081543,-0.103027,0.938110,0.000000,-1.220703,5.920410
7584,0.056641,-0.104248,0.910156,-0.854492,-1.892090,5.432129
7594,0.017822,-0.149414,0.929077,-0.915527,-2.441406,4.577637
7604,0.001709,-0.128174,1.003174,-0.793457,-2.441406,3.540039
7613,-0.001831,0.016113,1.003174,-0.793457,-2.929688,2.563477
7624,-0.067871,-0.017822,1.040527,-0.122070,-2.807617,2.319336
7633,-0.072510,-0.036133,0.994507,0.488281,-2.685547,2.197266
7643,-0.049438,-0.145264,0.991211,0.671387,-1.953125,3.173828
7654,-0.067505,-0.158936,0.942627,0.610352,-0.915527,3.845215
7664,-0.083740,-0.196777,0.938354,0.427246,-0.549316,4.699707
7674,-0.035278,-0.056274,0.911377,-0.427246,-0.488281,5.554199
7683,-0.088623,-0.042969,1.054932,-1.098633,-0.305176,6.164551
7693,-0.038208,0.082886,1.131470,-1.892090,-0.122070,6.774902
7703,0.031494,0.022827,1.176880,-1.831055,0.122070,7.446289
7715,-0.029419,-0.150146,1.104736,-0.793457,-0.061035,8.361816
7725,-0.072510,-0.250366,1.025024,-0.366211,-0.244141,8.483887
7735,0.020020,-0.180786,0.993530,-0.183105,-0.122070,8.483887
7744,-0.076782,-0.366455,0.902954,-0.244141,-0.366211,8.666992
7754,-0.007446,-0.261841,0.834839,-1.098633,-0.244141,8.544922
7763,0.014648,-0.081177,0.930176,-2.685547,0.000000,8.666992
7773,-0.010376,-0.102661,0.971924,-3.845215,-0.366211,8.728027
7783,0.003052,-0.179199,0.915527,-4.394531,-0.793457,7.751465
7795,-0.045532,-0.151001,0.951416,-5.187988,-0.854492,5.371094
7804,-0.090210,0.011108,1.045898,-5.615234,-1.098633,4.089355
7814,0.020874,0.003906,1.113037,-5.249023,-1.586914,2.929688
7823,-0.079468,0.024048,1.040771,-4.760742,-1.525879,1.647949
7833,-0.061401,-0.023804,0.983398,-3.967285,-1.281738,0.976562
7844,0.035278,-0.097534,0.993652,-3.295898,-0.854492,0.549316
7853,0.036987,-0.164917,0.970581,-3.173828,-1.647949,-1.586914
7863,0.006348,-0.053955,0.983398,-3.295898,-1.708984,-2.319336
7874,0.060791,-0.006226,1.024536,-2.868652,-2.197266,-2.929688
7883,0.092041,-0.013794,1.041992,-2.502441,-2.685547,-3.479004
7893,0.077271,-0.055176,1.034912,-2.441406,-2.624512,-3.295898
7904,0.125732,-0.105713,1.002686,-2.441406,-2.136230,-3.173828
7913,0.089722,-0.133545,0.954346,-2.563477,-2.014160,-2.563477
7923,0.082642,-0.096680,0.891846,-2.685547,-2.075195,-2.258301
7934,0.084351,0.001587,1.000732,-2.075195,-2.807617,-1.831055
7944,0.042358,-0.070312,1.035645,-1.953125,-3.295898,-2.075195
7953,0.013550,-0.086670,1.054199,-2.014160,-3.662109,-2.441406
7963,-0.010742,-0.157593,0.991577,-1.892090,-3.417969,-2.502441
7974,-0.044189,-0.188599,0.950562,-1.953125,-2.990723,-2.319336
7983,-0.030762,-0.106934,0.979858,-2.136230,-2.441406,-2.075195
7993,-0.065552,-0.060059,1.052368,-2.502441,-1.770020,-2.136230
8003,-0.042969,0.030151,1.043091,-3.051758,-1.525879,-2.746582
8014,-0.061768,-0.105347,0.949707,-2.563477,-1.464844,-3.112793
8023,-0.078247,-0.045288,0.976318,-2.319336,-1.281738,-2.685547
8033,-0.049561,-0.060547,0.977905,-1.647949,-0.854492,-2.136230
8043,-0.023560,-0.134155,0.922485,-0.976562,-0.183105,-1.220703
8053,0.005127,-0.053223,0.894897,-0.854492,0.549316,-0.244141
8066,-0.010742,-0.158081,0.855347,-1.708984,1.098633,0.854492
8075,-0.009277,-0.150391,0.850586,-1.953125,0.549316,0.671387
8085,-0.011841,-0.117798,0.898560,-2.014160,0.793457,0.732422
8094,-0.040161,-0.041016,0.971313,-2.441406,0.122070,0.549316
8104,0.012939,-0.003662,1.024048,-2.807617,0.549316,1.159668
8113,0.009888,-0.047974,1.036865,-2.563477,1.037598,1.770020
8123,-0.015137,-0.139526,1.017944,-2.502441,1.037598,2.868652
8135,0.015625,-0.124634,0.990967,-2.441406,1.586914,5.371094
8145,0.029785,-0.093140,0.998657,-2.319336,1.525879,6.347656
8154,-0.008301,-0.070923,1.031616,-2.380371,1.586914,7.141113
8164,0.062988,-0.004395,1.122803,-2.380371,0.793457,7.507324
8174,0.012329,-0.041016,1.209106,-2.258301,0.488281,7.629395
8183,-0.039307,-0.111938,1.212402,-1.647949,0.000000,7.202148
8193,0.010254,-0.083252,1.142578,-1.159668,-0.183105,6.713867
8206,0.016479,-0.241089,0.995728,0.976562,-0.488281,5.920410
8215,0.047485,-0.154419,0.945068,0.488281,-0.610352,5.493164
8225,0.122559,-0.147827,0.932251,0.244141,-1.159668,5.310059
8234,0.052002,-0.204346,0.885986,-0.305176,-1.708984,4.882812
8243,0.086670,-0.080322,0.904785,-1.586914,-2.563477,4.394531
8253,0.102905,-0.036255,0.848267,-2.502441,-2.990723,3.662109
8263,0.027344,-0.072021,0.941162,-3.234863,-3.723145,3.112793
8274,0.065674,-0.036499,0.947998,-4.089355,-3.723145,2.990723
8284,0.050659,0.081177,0.950439,-4.272461,-3.845215,2.807617
8293,0.020020,0.026978,1.036865,-4.089355,-4.272461,2.807617
8304,0.088013,-0.055176,0.976074,-4.089355,-4.577637,2.380371
8313,0.054199,-0.080688,0.988770,-4.028320,-5.004883,1.831055
8324,0.018188,-0.149292,0.929565,-3.601074,-5.187988,0.610352
8333,0.072144,-0.122314,0.897827,-3.173828,-5.065918,0.183105
8343,0.012573,-0.044312,0.959229,-2.746582,-4.943848,-0.488281
8355,0.032959,-0.132812,0.973633,-2.502441,-5.310059,-1.525879
8364,-0.008179,-0.168091,0.945557,-2.563477,-5.432129,-2.014160
8374,0.031860,-0.156616,0.951416,-2.868652,-5.249023,-2.319336
8384,-0.078613,-0.166260,0.929077,-2.685547,-5.065918,-2.746582
8393,-0.029175,-0.103394,0.957275,-2.624512,-4.821777,-2.929688
8404,-0.083374,0.000854,1.000732,-2.929688,-4.638672,-3.112793
8413,-0.056152,-0.013184,1.019043,-2.319336,-3.723145,-3.173828
8423,-0.023560,-0.098633,0.998291,-2.441406,-3.295898,-3.173828
8434,0.001343,-0.104492,1.052246,-2.624512,-3.173828,-3.479004
8443,-0.018555,-0.077393,1.106323,-2.563477,-3.295898,-3.417969
8453,0.015991,-0.000366,1.196167,-2.624512,-3.479004,-3.723145
8464,0.043457,0.046753,1.198730,-2.868652,-3.906250,-4.028320
8473,0.058716,0.007935,1.129761,-2.746582,-4.089355,-3.723145
8483,0.073486,0.015137,1.096558,-2.197266,-3.784180,-2.624512
8495,0.119263,0.001221,0.965454,-1.586914,-3.906250,-2.441406
8504,0.110596,-0.070557,0.978516,-1.403809,-4.516602,-2.807617
8514,0.155762,-0.212036,0.979492,-1.281738,-5.065918,-3.601074
8523,0.091064,-0.192749,0.938843,-1.220703,-5.920410,-4.821777
8533,0.080078,-0.194580,0.877563,-1.281738,-6.286621,-5.676270
8544,0.039551,-0.093628,0.942627,-1.342773,-6.408691,-6.469727
8553,0.059570,0.004883,0.982178,-1.525879,-6.530762,-7.263184
8563,-0.006348,-0.073486,0.952026,-0.671387,-6.652832,-7.812500
8573,-0.062012,-0.148315,0.891479,-0.061035,-6.408691,-8.239746
8584,-0.072144,-0.128418,0.918823,0.244141,-6.042480,-8.300781
8594,-0.050537,-0.068726,0.932007,0.549316,-5.554199,-8.605957
8603,-0.059937,-0.065430,0.991211,0.610352,-4.760742,-8.728027
8613,-0.027832,-0.046997,0.925293,0.488281,-4.272461,-8.666992
8626,-0.009155,-0.250244,0.881348,1.037598,-3.173828,-8.666992
8635,-0.057129,-0.146362,0.917358,0.671387,-3.173828,-9.033203
8645,-0.002319,-0.067749,0.969116,0.427246,-3.234863,-9.521484
8655,0.023315,-0.115845,0.969360,0.854492,-3.173828,-10.070801
8664,0.012817,-0.090820,0.997070,0.854492,-2.746582,-10.253906
8673,0.020142,0.053345,1.003662,0.793457,-2.868652,-10.620117
8683,0.070312,-0.119507,1.042969,1.403809,-2.136230,-10.375977
8695,0.067993,-0.175049,1.075195,0.427246,-1.892090,-10.375977
8705,0.052002,-0.153076,1.056885,0.061035,-1.953125,-9.948730
8715,0.041992,-0.185669,1.004272,0.000000,-1.708984,-9.765625
8724,0.008179,-0.168945,1.010864,-0.305176,-1.586914,-9.704590
8734,0.003906,-0.023560,1.078369,-0.915527,-1.525879,-9.643555
8744,-0.015625,-0.007202,1.137695,-1.098633,-1.098633,-9.216309
8753,-0.007568,-0.045166,1.151245,-1.342773,-1.037598,-9.094238
8763,-0.019897,-0.054077,1.121460,-1.159668,-0.854492,-8.850098
8773,-0.031250,-0.066040,1.029419,-0.854492,-0.305176,-8.239746
8784,-0.002319,-0.096069,1.036011,-1.037598,0.122070,-7.812500
8793,0.002075,-0.063599,1.021729,-1.037598,0.061035,-7.263184
8804,-0.008179,-0.020386,1.007202,-1.281738,0.427246,-6.774902
8813,-0.018799,-0.102417,0.951050,-1.220703,0.915527,-6.286621
8828,-0.040771,-0.090088,0.980469,-1.159668,1.159668,-5.920410
8838,-0.028198,-0.094604,0.990967,-1.464844,1.037598,-5.859375
8848,-0.050781,-0.060547,0.962036,-1.464844,1.281738,-5.737305
8857,-0.087769,-0.052246,0.979858,-1.403809,1.647949,-5.798340
8867,-0.066040,-0.028076,1.032959,-1.037598,1.708984,-6.103516
8877,-0.078369,-0.040649,1.090698,-0.061035,2.807617,-5.615234
8886,-0.118286,-0.113281,1.043823,1.770020,3.295898,-5.187988
8896,-0.057251,-0.076782,1.018311,2.075195,3.845215,-4.394531
8906,-0.080566,-0.127563,0.965820,2.685547,4.211426,-3.356934
8915,-0.046387,-0.157715,0.856201,2.929688,4.272461,-2.502441
8924,-0.042847,-0.076294,0.835083,2.685547,4.943848,-1.708984
8934,-0.038574,-0.035400,0.852783,2.075195,5.554199,-0.854492
8944,-0.051025,-0.080811,0.843384,1.342773,5.371094,-0.366211
8953,-0.039307,-0.136353,0.828369,0.793457,5.920410,-0.244141
8963,-0.099609,-0.073853,0.853760,0.061035,6.103516,0.061035
8974,-0.066162,0.011230,0.902100,-0.915527,5.859375,1.098633
8984,-0.042236,0.056030,1.039307,-1.403809,6.164551,1.953125
8993,-0.069580,-0.017944,1.036377,-1.464844,6.591797,2.502441
9003,-0.057007,-0.115967,1.033325,-1.586914,6.958008,3.540039
9014,-0.066284,-0.083496,1.075928,-1.525879,6.774902,4.455566
9023,-0.047241,0.000610,1.144043,-1.708984,7.324219,5.493164
9034,-0.010132,-0.001099,1.147583,-1.281738,7.873535,6.591797
9043,-0.029785,-0.057739,1.086548,-0.976562,7.324219,7.690430
9055,0.016968,-0.079224,1.018799,-0.732422,7.019043,7.995605
9064,0.059326,-0.031982,1.026123,-0.671387,6.530762,8.117676
9074,0.025391,-0.109863,1.038208,-0.793457,6.103516,7.812500
9083,0.062622,-0.122314,1.036499,-1.220703,5.187988,7.446289
9093,-0.000244,-0.089844,1.025146,-1.403809,4.394531,6.835937
9104,0.027588,-0.092163,1.009277,-0.976562,4.272461,6.652832
9113,-0.023071,-0.136108,0.980591,-0.549316,4.516602,6.958008
9125,-0.023682,-0.096313,0.943359,-0.488281,4.211426,7.141113
9135,-0.000244,-0.182373,0.871948,-0.732422,4.211426,7.446289
9144,-0.015625,-0.174805,0.865479,-1.525879,3.784180,7.324219
9154,-0.022827,-0.029785,0.883667,-2.441406,3.662109,7.202148
9163,-0.003540,0.033325,0.970581,-3.173828,3.479004,7.080078
9174,-0.023437,0.016724,1.003784,-3.479004,3.234863,6.958008
9183,-0.005493,-0.004639,0.992676,-3.295898,3.356934,7.446289
9193,-0.052368,-0.106201,0.989258,-3.112793,3.295898,7.507324
9204,-0.041504,0.006348,1.033691,-2.380371,2.929688,7.568359
9213,-0.026001,-0.018677,1.024048,-1.708984,2.685547,7.812500
9223,-0.042603,-0.084717,1.010010,-1.037598,2.563477,7.812500
9234,-0.026611,-0.171021,0.958008,-0.244141,2.929688,7.690430
9244,-0.013916,-0.196899,0.949219,-0.122070,2.624512,7.202148
9253,-0.009644,-0.205933,0.920166,-0.122070,1.892090,5.737305
9263,0.002563,-0.178711,0.982666,-0.366211,1.586914,5.310059
9274,0.040527,-0.064819,1.028442,-0.671387,1.342773,4.638672
9283,0.005127,-0.139893,0.968384,-0.976562,0.915527,4.150391
9294,0.004761,-0.154541,0.944946,-1.098633,0.732422,3.234863
9303,0.022461,-0.124512,0.974731,-1.159668,0.793457,2.807617
9315,-0.002930,-0.057495,1.006470,-1.831055,0.244141,2.075195
9325,-0.007080,-0.008423,1.083862,-1.892090,0.732422,1.892090
9334,-0.027344,-0.055420,1.067627,-1.647949,0.610352,1.647949
9344,0.007446,-0.067261,1.062622,-1.281738,1.037598,1.220703
9353,0.030151,-0.104614,1.092041,-1.220703,0.671387,0.854492
9364,0.044922,-0.187134,1.026367,-0.915527,0.610352,0.122070
9374,0.096436,-0.214478,0.978027,-0.976562,-0.122070,-0.488281
9383,0.097168,-0.244263,0.879639,-1.770020,-0.610352,-1.159668
9393,0.112671,-0.204956,0.830078,-3.479004,-1.342773,-2.624512
9403,0.122437,0.033081,1.004395,-4.211426,-2.075195,-3.479004
9414,0.089478,0.008911,1.012939,-4.211426,-2.441406,-4.211426
9424,0.000732,-0.002319,1.085571,-3.479004,-2.319336,-5.004883
9433,0.007080,-0.018188,1.075317,-2.563477,-2.380371,-5.920410
9444,-0.003418,-0.083130,1.052979,-1.586914,-2.075195,-6.164551
9453,-0.008057,-0.135986,0.999756,-0.915527,-1.708984,-5.981445
9466,0.058716,-0.091187,0.935913,-1.403809,-0.915527,-5.493164
9475,0.015259,-0.095215,0.890869,-1.831055,-0.671387,-5.126953
9485,-0.014404,-0.063721,0.942017,-1.892090,-0.610352,-4.638672
9495,-0.030151,-0.081299,0.963257,-1.953125,-0.671387,-4.577637
9504,-0.060059,-0.067749,0.970093,-1.953125,0.061035,-4.211426
9514,-0.061768,-0.001465,0.990479,-2.014160,0.488281,-3.540039
9524,-0.041138,-0.031860,0.950684,-1.770020,0.793457,-2.807617
9533,-0.023560,-0.133789,0.919189,-1.342773,1.586914,-0.793457
9544,-0.013428,-0.100952,0.821655,-1.464844,2.136230,0.244141
9553,0.008911,-0.002686,0.907471,-2.136230,2.197266,1.159668
9564,0.036133,-0.039673,0.960083,-2.929688,2.380371,2.014160
9574,0.013062,-0.098877,1.007080,-3.479004,2.624512,2.868652
9584,-0.007813,-0.057007,1.028809,-3.356934,2.624512,4.150391
9594,-0.058350,-0.033447,1.110962,-3.234863,2.502441,5.126953
9603,-0.025635,0.004883,1.155273,-2.624512,2.868652,6.591797
9613,-0.061035,-0.015747,1.077515,-2.258301,2.868652,6.774902
9624,-0.023315,-0.093506,0.996094,-2.014160,2.868652,7.141113
9634,0.022827,-0.047485,0.958740,-1.586914,2.929688,7.080078
9643,0.024048,-0.038330,0.964478,-1.647949,2.502441,6.591797
9654,0.041260,0.005371,1.035889,-1.770020,1.770020,5.798340
9665,0.056763,-0.036865,1.047607,-1.464844,1.037598,4.333496
9674,0.006714,-0.202515,0.920288,-0.793457,0.610352,3.967285
9684,0.058716,-0.207275,0.917969,-0.793457,0.732422,3.601074
9694,0.087769,-0.152710,0.981689,-1.342773,0.305176,3.356934
9704,0.029053,-0.013672,1.063110,-2.136230,-0.061035,2.563477
9714,0.043335,0.010376,1.026489,-2.746582,-0.427246,1.647949
9723,-0.017700,-0.002197,1.014648,-2.868652,-0.854492,0.732422
9735,-0.029175,-0.023437,1.022339,-1.586914,-0.488281,-0.854492
9745,-0.041504,-0.060547,1.134033,-0.183105,-0.610352,-1.098633
9755,-0.047852,-0.318604,0.805908,0.976562,-0.732422,-1.281738
9764,0.014526,-0.185303,0.776245,0.549316,-0.488281,-1.525879
9774,0.103271,-0.327393,0.621582,-0.793457,-0.366211,-1.525879
9784,0.140991,-0.244629,0.600342,-2.807617,-1.037598,-2.197266
9794,0.137329,0.087891,0.876831,-5.065918,-1.342773,-2.441406
9804,0.121704,0.117920,0.943726,-5.554199,-1.586914,-2.929688
9813,0.040039,-0.041626,0.875610,-4.455566,-1.953125,-3.540039
9823,0.035034,-0.125122,1.075073,-4.272461,-2.014160,-3.234863
9834,0.024658,0.093506,1.221558,-4.028320,-1.525879,-2.990723
9844,-0.022217,0.100586,1.149170,-3.417969,-1.525879,-2.136230
9854,-0.029297,-0.047852,1.033936,-1.892090,-1.342773,-1.281738
9864,-0.041748,-0.182739,0.979004,-0.915527,-0.671387,-0.549316
9874,-0.009766,-0.234863,0.924927,-0.793457,-0.488281,-0.427246
9884,0.025269,-0.127319,0.985474,-2.563477,-0.610352,-0.061035
9894,0.062012,0.073853,1.116333,-2.990723,-0.732422,-0.305176
9904,-0.002808,-0.055298,1.084106,-2.563477,-0.854492,-0.305176
9914,0.006104,-0.153564,1.057739,-2.014160,-0.793457,-0.427246
9924,0.005615,-0.186279,1.044067,-2.014160,-0.610352,-0.671387
9934,-0.009277,-0.173706,1.089478,-2.258301,-0.305176,-0.732422
9945,-0.015381,-0.078003,1.033569,-2.990723,-0.366211,-1.770020
9955,-0.018433,-0.047241,0.961548,-2.319336,-0.122070,-2.197266
9965,-0.009644,-0.056152,1.003662,-1.953125,-0.244141,-2.807617
9975,-0.011108,-0.029053,1.080322,-2.563477,-0.610352,-3.540039
9984,-0.024536,0.046997,1.109253,-3.234863,-0.122070,-4.089355
9994,-0.033569,-0.001831,1.015869,-3.540039,-0.183105,-3.906250
10004,-0.029663,-0.013306,0.969604,-3.356934,0.244141,-3.540039
10013,-0.027222,0.024658,0.969360,-3.051758,0.671387,-2.990723
10025,0.021484,0.096680,1.098877,-2.868652,1.220703,-1.892090
10035,0.014771,0.020142,0.956177,-3.417969,0.976562,-1.586914
10044,0.046387,0.061035,0.938354,-3.356934,1.281738,-0.976562
10054,0.067871,0.127808,0.948730,-2.502441,1.770020,-0.305176
10064,-0.017700,0.099487,0.940430,-0.610352,1.586914,0.183105
10074,-0.003296,-0.116211,0.977661,1.220703,1.831055,0.610352
10085,0.005127,-0.218750,0.994507,1.647949,1.525879,1.098633
10095,0.023071,-0.086792,0.967041,1.220703,2.136230,1.281738
10104,-0.023560,-0.064819,0.915894,1.342773,1.647949,1.831055
10114,-0.044189,-0.105835,0.891724,1.892090,1.770020,2.197266
10124,-0.055786,-0.110596,0.957520,2.136230,1.708984,2.502441
10134,-0.012085,-0.108398,0.990967,2.014160,2.258301,2.929688
10144,-0.013550,-0.022705,0.977661,0.915527,2.624512,3.295898
10154,0.017456,0.096680,0.974121,0.061035,2.380371,3.845215
10165,-0.017944,-0.063110,1.026855,0.732422,3.051758,4.699707
10175,-0.027832,-0.051392,1.100342,0.915527,2.746582,4.638672
10184,0.002930,0.067993,1.161621,0.488281,2.624512,4.638672
10195,0.033691,0.072144,1.109863,-0.244141,2.197266,4.821777
10204,0.011841,-0.030762,0.993530,-0.732422,2.502441,4.821777
10215,0.030273,0.059570,0.944702,-0.671387,2.258301,5.310059
10224,-0.000610,0.192017,1.004150,-0.061035,2.563477,5.615234
10235,0.000244,-0.178345,1.035767,-0.305176,1.708984,4.882812
10245,0.010864,-0.092163,1.007568,-1.037598,1.403809,4.394531
10254,-0.015503,0.188477,1.010620,-1.586914,0.854492,3.967285
10265,0.018311,0.120605,1.036743,-1.220703,0.793457,3.784180
10274,0.004517,-0.117920,0.961914,-0.732422,1.220703,3.784180
10284,0.015137,-0.039063,1.061768,-0.915527,1.159668,3.784180
10294,0.001099,0.116577,1.076294,-1.403809,0.976562,3.601074
10305,-0.014893,0.024902,0.838867,-1.708984,1.159668,3.540039
10315,0.020264,-0.013794,0.827515,-1.037598,1.159668,3.479004
10324,0.040039,-0.093628,0.904297,-0.976562,0.671387,3.112793
10334,0.032715,-0.149780,0.946533,-1.220703,0.549316,2.441406
10344,0.036377,-0.095459,0.966797,-2.136230,0.000000,1.831055
10354,0.012817,0.033203,0.934448,-2.990723,0.061035,1.342773
10367,-0.001831,0.042847,0.965820,-2.197266,0.305176,1.892090
10376,-0.023071,-0.000977,1.008423,-1.831055,-0.061035,1.831055
10385,-0.007080,-0.065796,1.051270,-1.953125,0.000000,2.014160
10395,-0.010376,0.013062,1.052612,-2.197266,0.122070,2.319336
10404,-0.035767,0.083496,1.024170,-2.075195,0.854492,2.868652
10414,-0.024902,0.005127,0.899292,-1.098633,1.403809,3.845215
10425,-0.007813,-0.005005,0.993408,-0.366211,1.708984,4.821777
10434,-0.008179,-0.163330,0.956909,-0.305176,1.464844,5.493164
10446,0.039185,0.015747,1.006958,-2.746582,0.549316,5.126953
10455,0.020264,-0.019897,0.850586,-3.417969,0.244141,5.249023
10464,0.015625,0.158447,0.925537,-3.723145,0.671387,5.249023
10474,0.037476,0.098755,1.046509,-3.234863,0.488281,5.187988
10484,-0.038574,-0.132324,1.006226,-2.990723,0.488281,5.310059
10494,-0.003784,0.113037,1.184204,-3.723145,0.244141,5.187988
10507,-0.019043,-0.060181,0.977417,-3.845215,1.098633,4.943848
10516,-0.027954,0.216919,1.103516,-3.173828,0.976562,4.943848
10526,0.003540,-0.072754,0.981567,-2.075195,0.976562,4.638672
10535,-0.013428,-0.078857,0.983032,-2.014160,0.488281,3.906250
10545,0.091064,0.108398,1.192261,-2.380371,0.061035,2.990723
10554,0.001221,-0.222412,0.954468,-2.502441,-0.305176,2.319336
10564,0.082886,0.083496,1.022095,-2.502441,-0.244141,1.586914
10577,0.056519,-0.053589,0.902100,-2.136230,-0.732422,1.525879
10586,0.078735,0.068604,1.042236,-2.502441,-0.793457,1.220703
10596,0.057739,-0.066284,0.938599,-2.990723,-1.464844,0.610352
10605,0.051514,0.091919,0.999634,-3.723145,-1.647949,0.122070
10615,0.052124,-0.031982,0.888184,-3.540039,-1.770020,-0.366211
10625,0.029541,0.109863,0.958252,-3.112793,-1.525879,-0.366211
10634,-0.002319,0.022461,0.985229,-2.563477,-1.586914,-0.610352
10647,0.004028,0.057251,1.098633,-1.708984,-1.342773,-0.549316
10656,-0.004639,-0.144165,0.933716,-1.098633,-1.220703,-0.366211
10666,0.009521,-0.031250,1.003052,-0.793457,-1.281738,-0.793457
10676,0.064819,-0.098877,0.888916,-1.098633,-1.037598,-0.793457
10685,0.015259,0.008667,0.957397,-1.892090,-1.403809,-0.854492
10695,0.042847,-0.024048,0.943970,-2.197266,-1.464844,-1.037598
10705,0.005249,0.105835,1.006470,-2.258301,-1.403809,-1.098633
10714,0.011230,0.052002,1.054565,-2.075195,-1.281738,-1.708984
10726,0.008667,0.115967,1.160767,-2.014160,-0.915527,-1.953125
10735,-0.019653,-0.048096,1.011108,-1.708984,-1.037598,-1.708984
10745,0.003906,0.180542,1.089844,-1.403809,-0.488281,-1.464844
10755,-0.003784,-0.078857,0.904419,-0.610352,0.000000,-1.159668
10764,0.023071,0.055664,1.064819,-0.305176,-0.061035,-0.976562
10775,0.005249,-0.170044,0.929687,0.244141,-0.122070,-0.793457
10784,0.032959,-0.007202,0.997803,-0.061035,0.183105,-0.915527
10796,0.026001,0.070923,1.050659,-0.976562,0.061035,-0.976562
10805,0.002319,-0.016846,1.012695,-0.854492,0.305176,-1.342773
10815,-0.016479,0.059937,1.061768,-0.671387,-0.427246,-1.220703
10825,-0.010010,0.017822,1.136230,-0.122070,-0.305176,-1.159668
10835,-0.010742,-0.004517,1.044678,-0.061035,0.061035,-0.732422
10845,-0.009277,0.064087,1.098999,-0.305176,0.488281,0.000000
10854,-0.024536,0.010254,0.964233,0.183105,1.220703,1.647949
10866,0.017334,-0.049072,0.924316,0.488281,1.464844,2.258301
10875,0.031738,-0.004395,1.050049,0.244141,1.464844,2.746582
10884,0.012085,-0.095337,0.965576,0.305176,1.342773,3.051758
10895,0.022827,0.054810,1.076538,-0.427246,1.525879,3.295898
10904,-0.009644,0.010864,1.007324,-0.671387,1.037598,3.417969
10915,0.030396,0.031982,1.049805,-0.305176,1.159668,3.173828
10925,-0.034668,0.020508,0.962036,0.610352,1.037598,4.089355
10936,0.010498,0.037231,1.016235,0.915527,1.281738,4.455566
10945,-0.002563,0.000977,0.988770,0.793457,1.098633,4.577637
10955,-0.022217,0.039673,1.007568,0.793457,1.098633,4.882812
10965,-0.008545,-0.026367,0.919312,0.793457,1.342773,5.310059
10974,-0.017456,0.036133,0.987305,0.854492,1.892090,5.676270
10985,-0.016113,-0.065308,0.924194,0.793457,1.953125,5.920410
10994,-0.011475,-0.031982,0.946777,0.671387,1.831055,6.835937
11006,-0.015137,-0.052368,0.984619,0.549316,1.770020,7.080078
11015,0.009644,-0.015747,1.011475,1.098633,1.892090,7.446289
11024,-0.020996,-0.058838,0.955078,1.220703,1.647949,7.812500
11035,-0.024902,-0.022827,0.940674,1.098633,1.770020,8.300781
11044,-0.007690,-0.103516,0.907471,0.976562,2.075195,8.544922
11055,-0.036621,-0.046753,0.921509,0.549316,1.831055,8.666992
11064,-0.001953,0.005859,0.988770,-0.427246,1.831055,8.178711
11076,0.001587,0.046753,1.016357,-1.037598,1.525879,8.056641
11085,-0.009033,0.002563,1.006958,-1.037598,1.342773,7.873535
11095,0.003052,0.017334,1.000000,-1.281738,1.281738,7.812500
11105,-0.004517,0.051880,1.043701,-1.159668,1.159668,7.995605
11114,-0.002930,-0.040771,1.009033,-0.854492,1.525879,8.300781
11125,0.016479,0.035522,1.050171,-0.732422,1.647949,8.178711
11134,0.042236,-0.038818,0.989502,-0.793457,0.793457,7.385254
11146,0.028198,-0.010986,1.050659,-1.159668,0.183105,7.202148
11156,0.040649,-0.038330,0.947388,-1.342773,0.488281,7.019043
11165,0.020630,0.069458,1.010742,-1.708984,-0.122070,6.652832
11174,0.035278,0.018799,1.008789,-1.831055,-0.244141,6.225586
11185,0.016357,-0.034180,0.960937,-1.708984,-0.305176,5.859375
11196,0.047852,0.018188,1.027710,-2.502441,-0.732422,5.493164
11206,0.051758,0.000610,1.025635,-2.990723,-0.915527,5.371094
11216,0.028931,0.094971,1.005493,-2.990723,-0.732422,5.310059
11226,0.014160,0.041626,0.982666,-2.868652,-0.976562,5.065918
11235,-0.000732,-0.031006,0.979370,-2.685547,-0.793457,4.516602
11245,0.005859,0.003662,1.022461,-2.258301,-0.549316,4.150391
11255,0.026245,-0.029663,1.007568,-2.258301,-0.732422,3.479004
11265,0.010376,-0.087280,0.960937,-2.502441,-1.525879,2.746582
11274,0.027710,-0.073730,0.989868,-2.502441,-1.647949,1.159668
11286,0.049316,-0.050049,0.922729,-3.051758,-2.014160,0.915527
11296,0.051636,0.010498,0.972168,-3.173828,-1.708984,0.732422
11305,0.047241,0.009521,0.988037,-3.356934,-2.014160,0.488281
11315,0.031494,0.013428,0.945557,-3.601074,-2.319336,0.549316
11325,0.038208,0.031982,1.042358,-3.967285,-2.441406,0.183105
11336,0.039673,0.081787,1.079712,-3.173828,-2.563477,-0.183105
11346,0.012695,-0.080322,0.993408,-2.685547,-2.563477,-0.366211
11355,0.006470,-0.008057,1.013184,-2.685547,-2.136230,-0.549316
11365,0.029663,0.047852,1.049438,-2.441406,-1.647949,-0.854492
11375,0.020020,-0.071777,0.955566,-2.014160,-1.892090,-1.159668
11384,0.028809,-0.050903,0.977539,-1.892090,-2.319336,-1.525879
11395,0.020874,0.001953,1.083252,-1.831055,-2.502441,-1.708984
11405,0.007324,-0.024780,0.998291,-1.403809,-2.807617,-1.831055
11414,0.009644,-0.118286,1.019287,-1.159668,-2.563477,-2.441406
11426,0.038818,0.034302,1.014038,-1.281738,-2.014160,-2.197266
11436,0.031982,0.022583,0.952026,-1.342773,-1.770020,-2.197266
11445,0.013672,-0.021118,0.958008,-1.159668,-1.953125,-2.014160
11455,0.001709,0.049683,1.002441,-1.159668,-1.892090,-1.770020
11465,0.010132,0.013550,1.030273,-1.159668,-2.197266,-1.464844
11475,-0.010498,-0.024536,0.993774,-0.976562,-1.953125,-0.976562
11486,-0.009277,-0.003174,1.008423,-0.854492,-1.037598,-0.061035
11496,0.006226,0.036011,0.993774,-0.793457,-0.183105,0.610352
11505,-0.004150,-0.000366,0.909668,-0.427246,-0.183105,1.159668
11515,0.015259,-0.036255,0.971436,-0.488281,-0.244141,1.220703
11524,-0.012329,-0.005859,0.959106,-0.671387,-0.183105,1.220703
11535,-0.001953,-0.051514,0.959839,-0.610352,-0.366211,1.403809
11545,0.002808,-0.075806,0.932495,-0.427246,-0.305176,1.586914
11555,0.012329,-0.095581,0.920044,-1.708984,0.000000,2.319336
11565,0.006104,-0.071899,0.890991,-2.075195,0.000000,2.563477
11575,0.020752,0.017456,0.882080,-2.563477,-0.244141,2.746582
11584,0.013184,0.037598,0.883911,-2.929688,-0.427246,2.807617
11595,0.003784,0.060181,1.031494,-3.234863,-0.427246,2.807617
11605,-0.005859,0.043213,0.997559,-3.662109,-0.366211,2.990723
11616,-0.027832,0.037598,1.010986,-3.723145,0.305176,3.967285
11626,-0.020508,0.061646,1.067383,-3.356934,0.671387,4.516602
11635,-0.002075,0.062622,1.051025,-3.601074,0.427246,5.126953
11645,0.009155,0.032104,1.025024,-3.479004,0.366211,5.126953
11655,0.040771,-0.065308,1.000244,-3.173828,0.305176,4.821777
11665,-0.005737,-0.046143,0.933716,-3.112793,0.061035,4.821777
11674,0.023437,0.018677,1.043579,-3.051758,0.122070,4.577637
11685,0.031982,0.010498,1.053955,-3.051758,0.183105,4.089355
11694,0.019409,-0.032593,0.994873,-2.685547,-0.732422,3.173828
11705,0.018188,-0.073364,1.015625,-2.685547,-0.915527,2.929688
11715,-0.012207,-0.010010,0.962280,-2.624512,-0.610352,2.685547
11725,-0.001465,0.024170,1.054565,-2.685547,-0.305176,2.807617
11735,0.000488,0.018677,1.045166,-2.441406,-0.122070,2.807617
11744,-0.011475,-0.018799,0.965454,-2.441406,-0.061035,2.807617
11756,0.018677,-0.020752,1.016968,-2.746582,-0.671387,2.502441
11766,0.021240,-0.050049,0.962769,-2.746582,-0.793457,2.075195
11776,0.032837,-0.077759,1.016479,-2.502441,-0.244141,1.708984
11785,0.033936,-0.045654,1.056274,-2.380371,-0.244141,1.342773
11795,0.008179,0.064453,1.033691,-2.136230,-0.427246,1.220703
11805,0.031494,0.013672,1.009033,-2.136230,-0.305176,1.037598
11815,0.035522,-0.061523,1.000366,-1.770020,-0.427246,0.976562
11826,0.040283,-0.039429,0.978638,-1.831055,-0.976562,0.488281
11836,0.032227,-0.048950,0.951782,-2.075195,-1.220703,0.183105
11846,0.044800,-0.096802,0.950806,-2.014160,-1.220703,0.000000
11855,0.023437,-0.043335,1.001709,-2.014160,-1.098633,-0.183105
11865,0.036499,0.005737,1.019287,-2.441406,-1.220703,-0.305176
11875,0.022217,0.023926,0.963623,-2.624512,-1.464844,-0.366211
11885,0.015747,-0.005005,0.932983,-2.624512,-1.586914,-0.610352
11896,0.012451,0.022827,0.988525,-3.173828,-1.831055,-0.671387
11906,-0.013916,0.028687,0.973999,-3.417969,-1.403809,-0.732422
11916,-0.017212,0.037231,1.002441,-3.479004,-1.403809,-0.732422
11925,-0.006348,0.011475,0.988525,-3.356934,-1.098633,-0.488281
11935,0.001831,0.011719,0.976196,-3.234863,-0.732422,-0.183105
11945,0.020752,-0.017090,0.999146,-2.990723,-0.549316,0.305176
11955,0.007080,-0.037964,0.985107,-2.929688,-0.549316,0.244141
11965,0.045288,0.037109,1.051514,-3.234863,-0.488281,0.000000
11976,0.006104,0.008545,1.008789,-2.197266,-0.793457,-0.244141
11986,-0.011230,0.003906,1.018799,-1.831055,-0.610352,-0.183105
11996,-0.025269,-0.018677,1.008911,-1.708984,-0.854492,-0.305176
12006,0.002197,-0.035767,1.015259,-1.647949,-1.037598,-0.610352
12016,0.005005,-0.014282,1.015625,-1.464844,-0.488281,-0.549316
12025,0.018799,-0.030029,0.993042,-0.976562,-0.488281,-0.427246
12035,0.009155,-0.037231,0.964844,-0.854492,-0.305176,-0.244141
12045,0.005737,-0.026123,0.963867,-0.427246,-0.244141,-0.305176
12055,-0.016113,-0.008911,0.962036,-0.244141,-0.122070,-0.305176
12065,-0.012329,-0.046753,0.967896,-0.366211,-0.183105,-0.427246
12075,-0.003174,-0.002563,1.005493,-0.244141,-0.549316,-0.183105
12085,0.029419,-0.014038,1.024902,-0.183105,0.122070,0.122070
12095,0.020142,0.020264,1.053345,-0.061035,0.183105,0.549316
12105,0.021362,0.000854,1.043823,0.244141,0.488281,0.793457
12116,0.000977,0.026245,1.031006,0.122070,0.671387,0.610352
12126,-0.015991,0.008911,1.012817,0.244141,0.488281,0.549316
12135,0.000732,-0.026855,0.993408,0.488281,0.671387,0.549316
12145,-0.000977,0.011108,1.012207,0.366211,0.610352,0.427246
12155,0.038940,-0.062500,0.997070,0.366211,0.305176,0.610352
12165,0.040161,-0.017456,1.018066,0.000000,-0.122070,0.427246
12176,0.045532,-0.057739,1.038086,-0.244141,0.244141,0.610352
12186,0.016113,-0.084351,1.009766,-0.244141,0.000000,0.671387
12196,0.011597,-0.037964,0.982910,-0.183105,0.244141,0.671387
12205,0.008545,-0.039917,0.982056,-0.244141,0.183105,0.793457
12215,0.026123,0.014893,0.984619,-0.671387,-0.366211,0.732422
12225,0.015869,0.029785,0.973389,-0.793457,0.000000,0.427246
12235,0.009644,0.057739,0.998657,-1.220703,-0.122070,0.488281
12246,0.015015,0.043579,0.977905,-1.953125,0.366211,1.098633
12255,-0.013306,0.040649,1.000732,-1.831055,0.427246,1.403809
12266,-0.005005,0.056885,1.026855,-1.953125,0.305176,1.647949
12275,0.014893,0.022217,1.008423,-1.647949,0.488281,1.831055
12285,0.016846,0.006348,1.001587,-1.770020,0.427246,2.014160
12296,0.013550,-0.003540,0.936890,-1.892090,0.244141,2.319336
12305,0.012573,0.022461,1.003296,-2.136230,0.488281,2.502441
12318,-0.007568,-0.019531,0.986938,-1.831055,0.427246,2.685547
12327,-0.011353,0.006470,0.992554,-2.075195,0.488281,2.746582
12337,-0.010620,0.004761,1.041748,-1.892090,0.854492,2.868652
12346,-0.016235,-0.007813,1.010742,-1.586914,0.915527,3.173828
12356,-0.006714,-0.029053,1.010498,-1.342773,0.671387,3.479004
12366,0.004517,-0.051880,0.989868,-0.976562,0.732422,3.662109
12375,0.012817,-0.061279,1.001221,-0.732422,1.220703,3.906250
12385,-0.008423,-0.038330,0.991211,-0.610352,1.403809,4.272461
12396,-0.022217,-0.003296,0.975464,-0.793457,1.464844,4.760742
12406,-0.024414,-0.015503,0.993530,-0.488281,1.770020,5.126953
12416,-0.023315,-0.016968,1.008667,-0.183105,2.075195,5.493164
12425,-0.011108,-0.002319,1.028564,-0.122070,2.014160,5.676270
12436,-0.001465,-0.036987,0.995483,-0.122070,1.892090,6.042480
12445,-0.003540,-0.021362,0.987427,-0.183105,1.892090,6.591797
12455,0.022583,-0.020996,1.001953,0.061035,2.197266,7.202148
12466,0.031372,-0.072510,1.006104,-0.061035,2.014160,7.446289
12476,-0.009277,0.018311,1.003296,-0.122070,2.136230,7.934570
12485,0.012817,-0.012329,0.991943,-0.366211,2.014160,8.178711
12496,-0.006226,0.002441,0.987183,-0.183105,1.831055,8.300781
12505,0.010986,-0.049072,0.974365,-0.244141,1.708984,8.239746
12516,0.000610,-0.022217,0.993530,-0.610352,1.403809,8.117676
12525,0.015503,-0.054932,0.987427,-0.854492,1.342773,7.812500
12536,0.008667,-0.042847,0.967773,-1.037598,1.037598,7.629395
12546,0.015625,-0.011719,0.980591,-1.342773,1.281738,7.385254
12555,-0.001587,-0.027588,0.961670,-1.525879,1.159668,7.324219
12565,0.026489,-0.070801,0.972534,-1.831055,0.915527,7.080078
12575,0.007202,-0.023682,0.945679,-2.075195,0.427246,6.713867
12585,0.028931,0.029297,0.966187,-2.197266,0.671387,6.103516
12598,0.012451,-0.011719,0.994507,-2.319336,0.183105,5.004883
12607,-0.000977,0.007446,1.002075,-2.380371,0.183105,4.455566
12616,0.025024,0.009521,1.015381,-2.441406,0.366211,3.967285
12626,0.010864,0.059692,1.026855,-2.197266,0.366211,3.784180
12635,0.042114,0.045532,1.035034,-2.380371,-0.183105,3.540039
12646,0.046631,0.030029,1.030029,-2.258301,-0.244141,3.356934
12655,0.042847,-0.031616,0.985962,-2.136230,0.305176,3.295898
12665,0.048950,-0.092163,0.993042,-2.502441,-0.366211,3.356934
12677,0.035400,-0.023682,1.000854,-2.807617,-0.366211,2.990723
12686,0.031250,0.009399,0.994141,-2.563477,-0.732422,2.990723
12696,0.029297,-0.000122,1.018311,-2.502441,-1.037598,2.929688
12705,0.011108,-0.018066,1.037354,-2.502441,-1.159668,2.807617
12716,0.001831,-0.061768,0.983765,-2.380371,-1.037598,2.441406
12725,0.011963,-0.064575,0.991333,-2.563477,-1.037598,2.441406
12735,-0.003174,0.009155,0.988403,-2.563477,-0.549316,2.441406
12747,-0.007935,-0.030029,0.985474,-2.075195,-0.732422,2.380371
12756,0.002686,-0.099487,1.004883,-2.014160,-0.610352,2.319336
12766,0.001587,-0.048462,1.004395,-2.075195,-0.671387,2.197266
12775,0.013794,-0.057129,0.983765,-1.953125,-0.366211,2.014160
12786,0.017944,-0.015869,0.969360,-1.892090,-0.183105,1.892090
12795,0.016235,0.031616,0.997070,-2.014160,-0.488281,1.708984
12808,0.027466,0.004883,0.977051,-1.586914,-0.610352,1.831055
12817,0.032471,-0.009644,1.006958,-1.647949,-1.037598,1.770020
12827,0.040161,0.006348,0.965088,-1.647949,-0.671387,1.770020
12836,0.025635,0.029419,1.020264,-1.403809,-0.427246,1.953125
12846,0.024780,-0.007690,1.017334,-1.220703,-0.366211,2.075195
12855,0.010986,0.024658,1.062866,-1.281738,-0.305176,2.014160
12866,0.022095,-0.050903,0.987915,-1.220703,-0.488281,1.647949
12875,0.019287,-0.061890,1.009644,-0.976562,-0.671387,1.770020
12887,0.024902,-0.027588,1.047241,-0.732422,-0.854492,1.586914
12896,0.010254,0.056641,1.056274,-0.549316,-0.366211,1.464844
12906,0.018555,-0.035889,1.005005,-0.549316,-0.610352,1.403809
12915,0.007080,-0.065308,0.973877,-0.244141,-0.366211,1.159668
12926,-0.000366,0.026611,1.041504,-0.122070,-0.549316,0.976562
12935,0.015747,-0.032837,1.025391,-0.122070,-0.610352,0.915527
12948,0.022217,-0.031250,1.014160,-0.122070,-0.732422,0.549316
12957,0.002563,-0.098877,0.985596,0.061035,-0.976562,0.610352
12967,0.003662,0.044312,1.043701,-0.061035,-0.793457,0.305176
12976,0.015991,-0.024536,1.027222,-0.122070,-0.366211,0.488281
12986,0.019775,-0.018677,1.005249,-0.061035,-0.427246,0.427246
12996,0.023437,-0.055054,0.965332,-0.061035,-0.427246,0.671387
13006,0.016357,-0.040771,0.973145,0.061035,-0.488281,0.976562
13016,0.021606,0.044312,1.005249,-0.122070,-0.549316,0.976562
13027,0.027222,0.005859,0.991943,-0.366211,-0.610352,0.854492
13036,0.008545,-0.022217,0.979248,-0.732422,-0.488281,0.854492
13046,0.008057,0.011230,1.008911,-0.671387,-0.427246,0.976562
13056,0.011841,0.081055,0.993286,-0.854492,-0.427246,1.098633
13066,0.024658,0.005371,0.989990,-0.549316,-0.366211,1.525879
13076,0.001099,-0.007324,1.004517,-0.427246,-0.244141,1.708984
13086,-0.006226,0.016724,1.007568,-0.549316,-0.183105,2.014160
13097,-0.002075,-0.013794,0.981567,-0.610352,0.000000,2.319336
13107,0.014526,-0.000488,1.007935,-0.610352,0.366211,2.197266
13116,0.018433,-0.047852,0.985107,-0.305176,0.183105,2.441406
13126,0.011108,-0.026123,0.988037,-0.488281,-0.122070,2.380371
13135,0.009033,0.031982,1.018677,-0.671387,0.000000,2.380371
13146,-0.000977,-0.011597,0.977905,-0.549316,-0.122070,2.563477
13155,-0.009766,0.004028,0.969849,-0.244141,0.366211,3.051758
13167,0.009888,-0.013184,1.021851,0.244141,0.305176,3.173828
13177,-0.006958,-0.023560,0.948120,0.183105,0.488281,3.417969
13186,0.026245,-0.024170,0.984741,0.244141,0.366211,3.112793
13196,0.024902,-0.035278,0.958618,0.366211,0.244141,3.112793
13206,0.009155,-0.045654,0.949585,0.305176,0.122070,3.417969
13216,0.026367,-0.160522,0.846191,0.244141,0.305176,3.540039
13227,0.028198,-0.086548,0.869141,-0.488281,0.549316,3.906250
13237,0.038208,0.028442,1.065796,-1.770020,0.427246,4.028320
13246,0.034302,-0.083008,0.960815,-1.342773,0.305176,3.967285
13255,-0.023926,-0.039673,0.990967,-1.342773,0.122070,3.845215
13265,0.020508,0.018555,1.004517,-1.708984,0.366211,3.723145
13276,-0.013062,-0.040039,0.914429,-1.647949,0.305176,4.028320
13286,-0.027710,0.112915,1.016357,-1.892090,0.305176,4.150391
13297,-0.008423,0.077515,1.046875,-2.136230,0.854492,4.394531
13307,-0.006836,0.116333,1.105957,-1.403809,0.610352,4.516602
13316,-0.004517,-0.109009,0.985596,-0.488281,1.037598,4.699707
13326,-0.009033,-0.229492,0.945190,0.183105,1.037598,4.882812
13336,0.041260,-0.054077,1.011719,-1.220703,1.403809,5.187988
13345,0.083374,0.035645,1.001587,-2.380371,1.159668,5.004883
13356,0.028564,-0.049683,0.880615,-2.197266,0.488281,4.760742
13367,0.034546,-0.059937,1.006348,-1.831055,0.305176,4.333496
13376,0.018921,-0.061890,1.085693,-2.563477,-0.183105,4.455566
13386,-0.026245,-0.014160,1.020508,-3.173828,0.427246,4.760742
13395,-0.040161,0.073730,1.024536,-3.479004,0.427246,5.310059
13406,-0.010742,0.040649,0.989502,-2.563477,1.403809,6.286621
13415,-0.033325,-0.014160,0.982178,-1.708984,1.220703,6.652832
13427,-0.005371,-0.006104,1.063354,-1.892090,1.220703,6.530762
13437,0.004150,-0.010498,1.001953,-2.502441,1.770020,6.286621
13447,0.013916,0.063599,0.989624,-2.624512,2.319336,6.347656
13456,0.000977,-0.040405,0.951904,-1.831055,2.380371,6.469727
13466,-0.003784,-0.050049,1.029419,-1.281738,1.953125,6.347656
13476,-0.000732,-0.054321,1.018921,-1.342773,2.075195,6.530762
13486,0.020996,-0.053833,1.041870,-1.892090,1.220703,6.286621
13496,0.016113,-0.041870,0.992310,-1.892090,1.831055,5.981445
13506,0.011475,-0.008423,0.951050,-1.647949,1.525879,5.920410
13517,-0.006958,-0.116821,0.977295,-1.037598,1.770020,6.164551
13527,-0.020996,-0.047729,1.031006,-1.708984,1.464844,6.408691
13536,-0.000488,-0.013672,1.016724,-2.197266,1.892090,6.835937
13546,-0.005005,-0.015747,0.961060,-2.197266,1.953125,7.446289
13556,-0.002197,0.010254,0.988525,-2.197266,2.502441,7.873535
13566,0.002075,0.004761,0.984863,-1.770020,2.380371,8.178711
13575,0.016113,-0.024536,1.024780,-1.770020,2.502441,8.422852
13587,0.028320,0.036987,1.007813,-2.380371,2.929688,8.422852
13597,0.030029,0.000000,0.958862,-2.502441,2.807617,8.728027
13606,0.034058,0.006348,0.980347,-2.380371,2.685547,9.155273
13616,0.009521,-0.043457,0.962158,-2.136230,2.685547,9.277344
13626,0.015381,0.013794,1.017334,-2.380371,2.624512,9.216309
13635,0.010620,-0.026978,0.993530,-2.563477,2.563477,9.277344
13648,0.016968,0.009766,0.979126,-3.173828,2.929688,9.033203
13657,0.012451,0.008911,1.003174,-3.051758,2.990723,9.582520
13666,0.009888,-0.063477,0.964722,-2.685547,2.990723,9.582520
13676,0.014038,-0.049316,1.003418,-2.929688,2.990723,9.521484
13686,0.029785,0.026367,0.999756,-3.601074,2.990723,9.521484
13696,0.024780,-0.001465,0.994507,-3.845215,2.990723,9.643555
13707,0.018799,-0.022949,0.965088,-3.295898,2.563477,9.399414
13717,0.021729,0.005249,0.992065,-3.356934,2.319336,9.643555
13727,0.038940,-0.048706,1.006714,-3.417969,2.807617,9.643555
13737,0.036011,-0.039185,1.026245,-3.540039,2.563477,9.826660
13746,0.030640,0.003662,1.009399,-3.845215,2.807617,9.826660
13756,0.032837,0.015991,1.004639,-3.479004,2.746582,9.704590
13766,0.030029,-0.044556,0.987305,-3.417969,2.441406,9.460449
13776,0.041626,-0.020020,1.013428,-3.173828,2.624512,9.460449
13787,0.057007,-0.002197,0.992554,-3.662109,2.685547,9.460449
13797,0.068115,-0.046753,1.010376,-3.173828,2.624512,9.399414
13806,0.051270,-0.057495,0.979248,-3.051758,2.136230,9.216309
13816,0.061646,-0.000366,1.042236,-3.417969,2.441406,9.094238
13826,0.060791,-0.057495,0.970947,-3.173828,2.075195,9.094238
13835,0.064209,-0.038208,1.039185,-2.990723,2.014160,9.216309
13847,0.051270,-0.064331,0.958496,-3.417969,1.464844,8.544922
13858,0.048340,-0.074829,0.946167,-2.990723,1.525879,8.361816
13868,0.060547,-0.007813,1.036499,-3.173828,1.403809,7.812500
13877,0.046875,-0.037964,0.961792,-3.540039,0.915527,7.324219
13887,0.042847,0.038330,1.027710,-3.601074,0.976562,6.652832
13896,0.057251,0.027100,0.982056,-3.662109,1.159668,6.225586
13906,0.055908,0.037354,1.030640,-3.662109,0.854492,5.554199
13916,0.064087,0.035156,1.018677,-3.601074,0.732422,5.126953
13927,0.056885,0.095581,1.049316,-3.784180,0.854492,4.150391
13937,0.071045,0.026489,0.988892,-3.723145,0.488281,3.601074
13946,0.079712,0.060181,1.043091,-3.784180,0.000000,2.929688
13956,0.083008,0.024536,0.979736,-3.540039,-0.366211,2.380371
13966,0.078125,0.093994,1.043823,-3.784180,-0.366211,1.647949
13976,0.077393,0.009155,0.981323,-3.356934,-0.427246,0.915527
13986,0.104248,0.038696,1.037231,-3.356934,-0.793457,0.183105
13997,0.071167,0.076172,0.976807,-3.417969,-0.854492,-1.342773
14007,0.075684,0.140625,1.042358,-3.295898,-1.220703,-1.953125
14016,0.073242,0.067017,0.952515,-3.051758,-1.403809,-2.685547
14026,0.058716,0.086914,1.010742,-2.807617,-1.281738,-2.868652
14036,0.049927,0.097534,1.037354,-2.990723,-1.220703,-3.234863
14046,0.046021,0.075073,0.989380,-2.807617,-1.281738,-3.662109
14057,0.015625,0.128296,1.051514,-2.685547,-1.342773,-3.723145
14067,0.021729,-0.023804,0.977783,-2.197266,-0.793457,-3.601074
14077,0.025635,0.067871,1.071533,-2.258301,-0.427246,-3.723145
14087,0.034424,-0.040894,0.959229,-2.075195,-1.037598,-4.028320
14096,0.035767,0.016968,0.984131,-2.380371,-0.854492,-3.845215
14107,0.041992,0.082642,1.062744,-2.746582,-0.427246,-3.845215
14116,0.058960,-0.006836,0.970459,-2.197266,-0.671387,-4.150391
14126,0.042480,-0.028564,0.990234,-1.892090,-0.549316,-3.967285
14137,0.074097,-0.017456,0.966431,-2.075195,-0.488281,-4.333496
14147,0.050781,0.032593,0.941162,-1.770020,-0.732422,-4.516602
14156,0.077026,0.104614,1.040649,-2.136230,-0.732422,-4.821777
14166,0.087280,0.028931,0.938599,-1.525879,-0.915527,-5.371094
14176,0.053101,-0.048828,0.913452,-1.342773,-1.281738,-5.615234
14187,0.062500,0.114258,1.065430,-2.075195,-1.281738,-5.798340
14196,0.084229,0.107422,1.001099,-2.075195,-1.586914,-6.286621
14206,0.034790,0.034912,0.916382,-1.403809,-1.281738,-6.652832
14217,0.092041,0.133545,1.077271,-1.892090,-1.342773,-7.141113
14227,0.078857,0.078613,0.973267,-1.831055,-1.831055,-7.568359
14236,0.021484,0.056519,0.945435,-2.075195,-1.647949,-7.629395
14246,0.086182,0.154663,1.036255,-2.502441,-1.525879,-7.629395
14256,0.077759,0.128418,1.032593,-2.136230,-2.197266,-8.178711
14266,0.044678,0.012329,0.965088,-1.159668,-1.831055,-8.605957
14277,0.033569,0.030273,1.057129,-1.037598,-1.770020,-8.728027
14287,0.002930,0.062866,1.050903,-1.525879,-1.647949,-8.850098
14296,-0.011475,0.000000,0.975342,-1.220703,-1.281738,-9.033203
14306,0.023560,-0.012817,0.986450,-0.976562,-1.708984,-8.361816
14316,0.053467,-0.038574,1.004639,-0.732422,-0.610352,-7.995605
14326,0.027588,0.015991,1.059814,-1.525879,-1.037598,-7.995605
14336,-0.026733,0.035522,0.984375,-1.464844,-0.732422,-7.995605
14347,-0.068237,0.058838,0.916626,-1.403809,-0.549316,-7.751465
14357,-0.061523,0.073853,0.992187,-1.342773,-0.427246,-7.751465
14367,-0.002197,0.037842,1.102539,-1.403809,-0.488281,-7.568359
14376,-0.049561,0.032593,1.014771,-1.220703,0.061035,-7.141113
14386,-0.034180,0.051758,0.938354,-1.220703,1.281738,-6.164551
14396,-0.010498,0.053223,0.971802,-1.342773,2.319336,-5.187988
14408,-0.028076,0.038452,0.974731,-0.732422,2.624512,-4.638672
14417,-0.054810,0.013550,0.972412,-0.671387,2.563477,-4.150391
14427,-0.032104,0.002930,0.982300,-0.793457,2.929688,-3.540039
14436,-0.019653,-0.007690,0.992798,-1.159668,3.540039,-2.746582
14446,-0.010742,0.013428,0.997437,-1.464844,3.967285,-1.831055
14456,0.063232,-0.061890,0.973877,-1.342773,4.943848,-0.793457
14466,-0.015137,-0.081787,0.873657,-0.976562,4.760742,-0.244141
14476,0.042480,-0.179687,1.071655,-0.427246,4.333496,-0.183105
14486,0.052734,-0.114502,0.988525,0.061035,4.394531,0.915527
14497,0.199219,0.013062,0.966553,-0.549316,4.821777,1.403809
14507,0.188110,0.070557,0.942383,-0.793457,4.333496,1.281738
14516,0.147461,0.063477,1.003296,-1.342773,3.417969,0.122070
14526,0.138184,0.073975,1.059692,-1.525879,2.441406,-1.464844
14536,0.144897,-0.007324,1.086914,-1.281738,1.892090,-3.173828
14546,0.106323,-0.047485,1.071777,-0.671387,1.770020,-4.638672
14557,0.140503,-0.150269,1.046509,-0.183105,0.549316,-7.690430
14567,0.150879,-0.183838,1.044434,0.549316,-0.122070,-9.338379
14577,0.196655,-0.127686,1.042358,0.488281,-0.671387,-10.986328
14586,0.232056,-0.145142,1.004639,0.610352,-1.953125,-12.817383
14596,0.185547,-0.219727,1.011597,0.671387,-2.746582,-14.282227
14606,0.163086,-0.245605,1.047241,0.122070,-3.173828,-15.380859
14616,0.188599,-0.170044,1.057007,-0.549316,-3.173828,-16.113281
14627,0.065430,-0.100464,1.000366,-1.159668,-4.211426,-17.456055
14637,0.026367,-0.119995,0.992310,-1.098633,-4.760742,-17.822266
14647,-0.053711,-0.067017,0.986938,-1.403809,-4.699707,-18.432617
14657,-0.102905,0.014893,0.977539,-2.136230,-4.577637,-18.798828
14666,0.046875,0.085449,0.988892,-2.441406,-4.089355,-18.676758
14676,-0.101074,0.106201,0.920410,-2.197266,-3.723145,-17.761230
14688,-0.163696,0.053833,0.893555,-1.892090,-1.525879,-13.977051
14697,-0.118896,0.088623,0.973511,-2.502441,-0.244141,-11.657715
14707,-0.132446,0.135376,0.979248,-2.746582,0.976562,-9.399414
14717,-0.143677,0.111450,0.966187,-2.258301,2.502441,-7.080078
14726,-0.159912,0.047974,0.943604,-1.770020,3.784180,-5.065918
14736,-0.208008,0.010376,0.941040,-1.586914,4.455566,-3.356934
14747,-0.175415,-0.005981,0.956299,-1.708984,5.126953,-1.708984
14757,-0.135498,-0.006348,0.973267,-1.770020,7.019043,0.610352
14766,-0.091553,-0.013062,0.961426,-1.647949,7.385254,1.770020
14776,-0.022827,-0.046753,0.964233,-1.342773,7.690430,3.112793
14787,0.039063,-0.053467,0.999268,-1.220703,7.995605,4.272461
14796,0.069214,-0.075195,1.000854,-0.976562,7.812500,5.065918
14807,0.078247,-0.101563,0.998779,-0.854492,7.873535,5.615234
14816,0.106934,-0.104004,1.011719,-0.610352,7.873535,5.981445
14829,0.171997,-0.122559,1.004395,-0.793457,7.690430,7.568359
14838,0.196411,-0.130615,0.989746,-0.610352,7.873535,8.361816
14848,0.192627,-0.117188,0.978516,-0.976562,7.568359,9.094238
14857,0.173828,-0.091431,0.980713,-0.976562,6.896973,9.460449
14867,0.153687,-0.083618,0.997192,-0.976562,5.676270,8.850098
14876,0.162109,-0.081909,1.002075,-0.915527,5.371094,8.239746
14887,0.183472,-0.074707,0.999756,-1.159668,4.577637,7.507324
14896,0.206299,-0.057739,0.992187,-1.281738,3.845215,7.019043
14908,0.248779,-0.040527,1.005737,-1.647949,3.051758,6.225586
14917,0.219238,-0.059937,0.998657,-1.831055,2.685547,5.737305
14927,0.187256,-0.076538,1.002563,-2.014160,2.014160,5.432129
14936,0.180054,-0.065552,1.027466,-2.197266,2.197266,4.760742
14946,0.174316,-0.066528,1.038330,-2.258301,1.403809,3.723145
14957,0.150513,-0.086914,1.025879,-2.136230,0.183105,2.258301
14966,0.135376,-0.089722,1.008179,-2.075195,-0.793457,-1.220703
14976,0.133545,-0.079956,1.002197,-1.647949,-1.525879,-2.441406
14987,0.194336,-0.069702,1.079102,-1.586914,-1.708984,-3.356934
14997,0.100586,-0.138184,1.088013,-1.525879,-2.441406,-4.089355
15006,0.083252,0.240723,1.020996,-5.493164,-2.685547,-4.333496
15017,0.090698,0.255371,0.936890,-4.943848,-2.319336,-3.601074
15026,0.108887,0.126099,0.849976,-3.112793,-2.990723,-4.455566
15039,0.092041,0.092529,1.038452,-2.136230,-2.563477,-3.417969
15048,0.106567,0.067993,1.077393,-1.892090,-2.197266,-2.624512
15058,0.140869,0.033691,1.030396,-2.075195,-1.953125,-1.770020
15067,0.104736,0.008057,0.977539,-1.831055,-1.831055,-1.525879
15077,0.079956,-0.002563,0.968018,-1.525879,-2.502441,-1.281738
15086,0.057739,-0.010254,0.986328,-1.342773,-2.319336,-0.976562
15096,0.034058,-0.031128,0.986450,-1.159668,-2.258301,-0.549316
15109,0.031250,-0.089355,0.976318,-1.342773,-1.525879,1.281738
15119,0.041870,-0.098877,0.988403,-1.464844,-1.647949,2.258301
15128,0.024414,-0.102051,0.994995,-1.342773,-2.075195,3.173828
15138,0.029907,-0.110596,0.988770,-0.976562,-2.075195,4.089355
15147,0.043335,-0.132446,0.989502,-0.732422,-1.708984,5.126953
15157,0.061401,-0.180664,0.991821,-0.244141,-1.525879,5.859375
15166,0.052979,-0.228271,1.001831,-0.061035,-1.281738,6.652832
15179,0.035156,-0.187622,1.028931,-1.098633,-0.732422,7.690430
15189,0.015869,-0.116333,0.989136,-1.647949,-0.793457,7.690430
15198,0.015015,-0.064575,0.949585,-1.892090,-0.976562,7.202148
15208,0.028564,-0.053467,0.953735,-1.525879,-1.098633,6.469727
15217,0.051270,-0.071167,0.988770,-0.671387,-1.281738,5.798340
15227,0.062012,-0.082520,1.026367,-0.610352,-1.464844,5.249023
15236,0.075684,-0.061890,1.042480,-0.732422,-1.647949,5.126953
15249,0.094116,0.000366,0.994141,-0.915527,-1.159668,5.493164
15258,0.093506,0.010132,0.956787,-0.610352,-1.464844,5.554199
15268,0.083130,0.010986,0.958496,-0.549316,-2.014160,5.432129
15277,0.072388,0.020386,0.975952,-0.915527,-2.258301,5.432129
15287,0.055298,0.040405,0.987427,-1.525879,-2.197266,5.432129
15296,0.050903,0.065918,0.992920,-2.197266,-1.708984,5.493164
15307,0.062500,0.090820,0.993042,-2.502441,-1.037598,5.615234
15316,0.076538,0.088013,1.000977,-2.563477,-1.464844,5.615234
15328,0.113037,0.032959,1.021973,-2.197266,-2.319336,5.737305
15337,0.122559,0.022339,1.012207,-2.258301,-1.831055,5.676270
15347,0.120728,0.022217,0.993530,-2.624512,-2.380371,5.187988
15357,0.109253,-0.044800,0.982300,-2.258301,-2.258301,4.638672
15367,0.100220,-0.070801,0.991211,-1.892090,-2.380371,3.845215
15376,0.110107,-0.061401,1.004883,-2.197266,-2.685547,2.807617
15389,0.140747,-0.148071,1.009521,-1.953125,-3.845215,0.549316
15398,0.137939,-0.132202,1.004395,-2.319336,-4.882812,-0.732422
15408,0.125854,-0.149414,0.998779,-1.770020,-5.310059,-2.075195
15417,0.092529,-0.149292,0.999146,-1.770020,-5.371094,-3.112793
15427,0.058716,-0.113281,0.998779,-1.892090,-5.615234,-4.028320
15436,0.038696,-0.104492,0.999268,-1.831055,-5.798340,-4.638672
15446,0.022827,-0.092773,0.999878,-1.708984,-5.554199,-5.065918
15459,-0.006104,-0.032349,0.998779,-1.464844,-5.676270,-6.286621
15469,-0.029541,-0.008545,1.002197,-1.586914,-5.737305,-6.408691
15479,-0.048462,0.031616,1.006958,-1.647949,-5.798340,-6.408691
15488,-0.060181,0.046021,1.004883,-1.464844,-5.371094,-6.103516
15498,-0.061035,0.052002,1.001953,-1.159668,-4.760742,-5.554199
15508,-0.044922,0.066406,1.000366,-1.342773,-4.272461,-4.272461
15517,-0.028076,0.062012,0.990967,-1.098633,-3.540039,-2.624512
15527,-0.011475,0.045288,0.989624,-0.915527,-2.807617,0.671387
15538,0.006836,0.017578,0.999756,-0.976562,-2.502441,2.380371
15548,0.012695,-0.012573,0.997681,-0.488281,-1.892090,4.028320
15557,0.001709,-0.033936,0.996948,-0.671387,-1.525879,5.554199
15567,-0.014160,-0.059937,0.996216,-0.610352,-1.342773,6.958008
15577,-0.017944,-0.091553,0.995605,-0.549316,-1.159668,8.300781
15586,-0.015259,-0.111084,0.997070,-0.610352,-0.427246,9.277344
15599,-0.001831,-0.135376,1.003296,-0.610352,-0.183105,10.498047
15609,0.010254,-0.140381,1.000488,-0.488281,-0.061035,10.925293
15618,0.028687,-0.147583,0.989624,-0.610352,0.000000,10.925293
15628,0.048218,-0.155396,0.978149,-0.671387,0.305176,10.864258
15637,0.060059,-0.148315,0.981445,-0.793457,0.244141,10.681152
15646,0.071289,-0.136353,0.992554,-0.915527,-0.122070,10.009766
15657,0.080200,-0.129883,1.000122,-0.915527,-0.244141,9.277344
15667,0.080566,-0.118774,1.000732,-1.220703,-1.464844,7.019043
15676,0.078247,-0.110962,1.010132,-1.464844,-1.464844,6.103516
15687,0.070679,-0.104492,1.007080,-1.464844,-1.708984,4.882812
15696,0.054077,-0.104614,1.000488,-1.281738,-2.258301,3.723145
15707,0.039795,-0.106567,0.990356,-1.403809,-2.258301,2.746582
15716,0.034424,-0.108032,0.985107,-1.159668,-2.014160,1.831055
15727,0.037598,-0.114624,0.989990,-1.281738,-1.892090,0.732422
15737,0.038452,-0.119873,0.996460,-1.586914,-2.380371,-1.342773
15746,0.039795,-0.130005,0.999268,-1.586914,-2.136230,-2.075195
15757,0.036255,-0.144165,1.000122,-1.892090,-2.624512,-2.929688
15767,0.030396,-0.138916,1.000610,-1.892090,-2.441406,-4.028320
15776,0.019897,-0.134033,0.996826,-2.014160,-2.807617,-4.516602
15787,0.005005,-0.126709,0.994263,-1.892090,-2.807617,-4.699707
15796,-0.005615,-0.114502,0.989502,-1.892090,-2.502441,-4.760742
15809,-0.004883,-0.097168,0.976074,-1.953125,-2.258301,-3.845215
15819,-0.001709,-0.096558,0.970581,-2.014160,-2.075195,-3.173828
15829,-0.006470,-0.077881,0.990601,-2.197266,-2.136230,-2.563477
15838,-0.008789,-0.059692,1.012207,-2.319336,-1.831055,-1.647949
15848,-0.009155,-0.057373,1.012451,-2.319336,-1.770020,-0.793457
15858,-0.006714,-0.060547,1.001099,-2.258301,-1.770020,0.000000
15867,0.005859,-0.051270,0.995117,-2.014160,-1.037598,1.159668
15877,0.014404,-0.053101,0.991089,-2.075195,-0.793457,2.807617
15888,0.023926,-0.060913,0.982178,-1.953125,-0.732422,3.662109
15898,0.030762,-0.060547,0.992187,-2.319336,-1.220703,3.906250
15907,0.036011,-0.051147,1.004761,-2.197266,-1.098633,4.150391
15917,0.047119,0.003540,1.018555,-2.136230,-0.793457,4.699707
15927,0.039673,-0.105469,0.991577,-2.136230,-0.610352,6.042480
15937,-0.021484,-0.099731,0.979248,-2.441406,-0.488281,5.432129
15949,0.008911,-0.078735,1.024902,-2.075195,-15.563965,4.516602
15958,0.037720,-0.060425,1.031982,-2.136230,-0.610352,3.356934
15968,0.038330,-0.075317,0.999756,-1.892090,-0.915527,2.563477
15977,0.023926,-0.083740,0.979858,-1.831055,-1.098633,2.197266
15987,0.044067,-0.048950,0.985352,-1.770020,-0.915527,2.075195
15997,0.041260,-0.044312,0.989746,-1.770020,-0.427246,2.624512
16007,0.024292,-0.057739,0.990234,-1.708984,-0.061035,3.051758
16017,0.017334,-0.045288,0.995239,-2.075195,-0.122070,3.906250
16028,0.016479,-0.073364,1.000610,-1.770020,-0.366211,3.967285
16038,0.025146,-0.066284,1.002808,-1.770020,-0.671387,3.540039
16048,0.029541,-0.066162,1.002930,-1.647949,-1.098633,3.112793
16057,0.029297,-0.072632,1.000488,-1.647949,-1.220703,2.441406
16067,0.033203,-0.066284,0.998291,-1.708984,-1.037598,2.197266
16077,0.032471,-0.072388,0.991333,-1.586914,-0.549316,2.319336
16087,0.038696,-0.084351,0.982666,-1.647949,-0.610352,2.380371
16098,0.040649,-0.070068,0.990356,-1.647949,-0.732422,1.953125
16108,0.035278,-0.069214,0.996704,-1.586914,-0.854492,1.892090
16117,0.031006,-0.063599,1.000488,-1.647949,-1.037598,1.464844
16127,0.018677,-0.063232,1.000488,-1.708984,-0.976562,1.281738
16137,0.014526,-0.066284,1.000488,-1.708984,-0.854492,1.281738
16147,0.015259,-0.060791,1.000610,-1.647949,-0.854492,1.403809
16158,0.023437,-0.065674,0.997925,-1.525879,-0.671387,1.586914
16168,0.027832,-0.061523,1.000732,-1.281738,-0.793457,1.525879
16177,0.027588,-0.058105,1.002319,-1.403809,-0.793457,1.525879
16187,0.029419,-0.062256,1.000854,-1.342773,-0.976562,1.281738
16197,0.026978,-0.064697,1.000488,-1.220703,-0.793457,1.464844
16207,0.024536,-0.072388,0.994629,-1.159668,-0.915527,1.647949
16218,0.020020,-0.078735,0.989380,-1.403809,-1.098633,1.708984
16228,0.022217,-0.080811,0.994873,-1.403809,-0.976562,1.708984
16238,0.030762,-0.082764,1.000122,-1.586914,-0.915527,1.647949
16248,0.026001,-0.080322,1.001831,-1.586914,-1.220703,1.770020
16257,0.021606,-0.078247,1.004150,-1.403809,-1.220703,1.831055
16267,0.015991,-0.076050,1.002075,-1.342773,-0.915527,1.892090
16277,0.012085,-0.075562,1.000244,-1.220703,-1.037598,1.892090
16287,0.008057,-0.077148,0.992798,-1.098633,-0.854492,2.014160
16299,0.020630,-0.081909,0.984131,-1.403809,-0.732422,1.770020
16309,0.025391,-0.078979,0.986572,-1.464844,-0.915527,1.647949
16318,0.026367,-0.077881,0.993774,-1.342773,-0.793457,1.525879
16327,0.026245,-0.079346,0.997681,-1.525879,-0.976562,1.464844
16337,0.024658,-0.079834,1.000488,-1.586914,-0.976562,1.525879
16347,0.021118,-0.082520,1.000488,-1.586914,-0.793457,1.708984
16357,0.022095,-0.087158,1.000244,-1.342773,-0.732422,1.770020
16369,0.027344,-0.083252,0.999878,-1.342773,-1.037598,1.770020
16379,0.031006,-0.083008,0.997925,-1.281738,-0.976562,1.647949
16388,0.027100,-0.080322,0.997437,-1.342773,-1.220703,1.770020
16398,0.026611,-0.080566,0.997681,-1.525879,-1.037598,2.014160
16407,0.029785,-0.079956,0.998047,-1.281738,-0.854492,2.075195
16417,0.029175,-0.081909,0.995239,-1.525879,-0.793457,2.258301
16427,0.026611,-0.086304,0.989868,-1.586914,-0.671387,2.258301
16437,0.031006,-0.089966,0.988892,-1.464844,-1.098633,2.075195
16448,0.030396,-0.087158,1.000488,-1.708984,-1.037598,1.953125
16457,0.018188,-0.085571,1.003296,-1.708984,-1.159668,1.831055
16467,0.012939,-0.088135,1.003174,-1.525879,-1.159668,1.770020
16478,0.009033,-0.090820,1.000610,-1.525879,-1.098633,1.525879
16487,0.005493,-0.090332,0.999268,-1.403809,-1.098633,1.342773
16497,0.006592,-0.091064,0.992187,-1.525879,-1.037598,1.159668
16508,0.015503,-0.088745,0.991699,-1.586914,-1.220703,0.610352
16518,0.014404,-0.082520,0.995728,-1.770020,-1.525879,0.366211
16528,0.013306,-0.080444,0.998657,-1.525879,-0.915527,0.122070
16537,0.012207,-0.081055,1.000488,-1.525879,-0.854492,0.305176
16547,0.009033,-0.079590,1.000732,-1.647949,-0.976562,0.305176
16557,0.003418,-0.078003,1.000610,-1.586914,-0.854492,0.488281
16567,0.006836,-0.077637,0.997559,-1.708984,-1.159668,0.488281
16577,0.017944,-0.079346,0.990845,-1.647949,-1.464844,0.915527
16588,0.014038,-0.074585,0.997559,-1.770020,-1.403809,1.098633
16598,0.008301,-0.074341,1.000488,-1.892090,-1.281738,1.281738
16607,0.002075,-0.074341,1.000488,-1.831055,-0.854492,1.403809
16617,0.000000,-0.073853,1.000854,-1.770020,-0.610352,1.525879
16627,-0.001099,-0.071899,0.999878,-1.647949,-0.427246,1.586914
16637,-0.002808,-0.070312,0.998901,-1.647949,-0.427246,1.831055
16649,-0.000610,-0.067139,0.999878,-1.525879,-0.671387,2.136230
16658,0.000610,-0.068970,0.996826,-1.708984,-0.854492,2.380371
16668,0.002808,-0.071777,0.993896,-1.525879,-0.549316,2.441406
16678,0.010742,-0.074585,0.992920,-1.525879,-0.122070,2.563477
16687,0.020630,-0.077515,0.992676,-1.770020,-0.122070,2.563477
16697,0.025757,-0.077393,0.996582,-1.525879,-0.366211,2.624512
16707,0.027954,-0.075073,0.999634,-1.403809,-0.122070,2.624512
16717,0.028931,-0.073730,1.000854,-1.708984,-0.793457,2.685547
16728,0.023071,-0.075684,0.996948,-1.647949,-0.549316,2.624512
16738,0.022705,-0.077515,0.991699,-1.586914,-0.366211,2.685547
16748,0.020264,-0.077759,0.993042,-1.647949,-0.732422,2.746582
16757,0.017212,-0.074585,0.994995,-1.770020,-0.549316,2.624512
16767,0.016113,-0.073853,0.996338,-1.647949,-0.549316,2.624512
16778,0.018311,-0.074951,0.997192,-1.708984,-0.732422,2.014160
16788,0.025513,-0.077026,1.000488,-1.708984,-0.976562,1.831055
16798,0.026367,-0.074585,1.000610,-1.586914,-0.854492,1.770020
16807,0.025635,-0.074341,0.999512,-1.525879,-1.037598,1.586914
16817,0.024292,-0.077759,0.996582,-1.342773,-0.854492,1.647949
16827,0.020508,-0.078369,0.996582,-1.464844,-1.098633,1.586914
16837,0.017334,-0.074341,0.997803,-1.831055,-0.793457,1.464844
16848,0.012817,-0.072021,0.996948,-1.464844,-1.342773,1.159668
16858,0.010010,-0.071533,1.000610,-1.586914,-1.098633,1.159668
16868,0.007446,-0.068481,1.001831,-1.647949,-1.281738,1.098633
16877,0.004272,-0.068848,1.000488,-1.464844,-1.159668,1.098633
16888,0.008789,-0.072021,0.993774,-1.525879,-1.159668,1.220703
16897,0.019653,-0.076538,0.985718,-1.525879,-0.976562,1.220703
16907,0.021973,-0.078247,0.988525,-1.647949,-1.159668,1.098633
16917,0.019531,-0.075806,0.997803,-1.892090,-1.220703,1.037598
16928,0.007446,-0.070068,1.001343,-1.831055,-1.159668,0.976562
16938,0.004395,-0.071167,0.999268,-1.403809,-0.793457,0.976562
16947,0.006104,-0.071045,0.995483,-1.403809,-1.098633,1.159668
16957,0.006836,-0.073242,0.989624,-1.647949,-0.793457,1.098633
16967,0.004272,-0.076050,0.991577,-1.708984,-1.220703,1.403809
16977,0.003174,-0.074707,0.997559,-1.586914,-1.342773,1.342773
16989,0.007202,-0.072876,0.998901,-1.464844,-0.976562,1.098633
16998,0.010742,-0.074463,0.998779,-1.464844,-1.281738,0.976562
17007,0.011108,-0.070435,0.995117,-1.403809,-0.915527,0.915527
17017,0.011963,-0.075073,0.988525,-1.403809,-1.220703,0.732422
17027,0.015015,-0.076416,0.986450,-1.525879,-1.342773,0.732422
17037,0.014893,-0.074341,0.991333,-1.464844,-1.281738,0.427246
17047,0.013672,-0.073730,0.995850,-1.403809,-1.464844,0.305176
17059,0.008301,-0.073730,1.000366,-1.586914,-1.220703,0.488281
17068,-0.000366,-0.080933,1.000732,-1.464844,-1.342773,0.610352
17078,-0.003662,-0.081909,1.000610,-1.464844,-1.342773,0.671387
17088,-0.001831,-0.084595,1.000366,-1.220703,-0.854492,0.976562
17097,-0.000244,-0.086914,0.997314,-1.342773,-0.976562,1.098633
17107,0.003906,-0.084717,1.000000,-1.525879,-1.342773,1.159668
17117,0.005981,-0.080811,1.001343,-1.464844,-1.403809,1.159668
17127,0.001831,-0.080811,1.002441,-1.525879,-1.281738,1.342773
17137,-0.006470,-0.081055,1.001831,-1.464844,-1.037598,1.342773
17148,-0.020752,-0.078003,1.002197,-1.403809,-0.610352,1.220703
17158,-0.017944,-0.080933,0.996948,-1.586914,-0.854492,0.976562
17168,-0.014893,-0.082153,0.993408,-1.464844,-0.915527,0.915527
17177,-0.017944,-0.079224,0.996338,-1.464844,-0.854492,0.732422
17187,-0.026123,-0.072632,1.001343,-1.831055,-0.793457,0.793457
17199,-0.031372,-0.068604,1.005127,-1.342773,-0.244141,0.976562
17208,-0.031616,-0.069092,1.000488,-1.525879,0.122070,1.220703
17218,-0.030273,-0.068481,0.998535,-1.647949,0.244141,1.403809
17227,-0.023560,-0.070435,0.991943,-1.525879,0.427246,1.647949
17238,-0.011597,-0.075439,0.989258,-1.586914,0.427246,1.953125
17247,0.000366,-0.079468,0.985596,-1.464844,0.610352,2.319336
17257,0.007080,-0.077271,0.989990,-1.464844,0.488281,2.563477
17268,0.011353,-0.078735,0.991455,-1.525879,0.427246,3.051758
17278,0.014648,-0.084106,0.996338,-1.770020,0.610352,3.356934
17288,0.006104,-0.080444,1.000488,-1.770020,0.732422,3.723145
17297,0.002808,-0.079468,1.001099,-1.647949,0.366211,4.028320
17307,0.003662,-0.080444,1.000244,-1.647949,0.671387,4.333496
17317,0.005859,-0.079224,0.995361,-1.831055,0.183105,4.516602
17328,0.006470,-0.075684,0.999756,-1.770020,0.488281,4.638672
17339,0.006470,-0.071899,1.000610,-1.525879,0.793457,4.577637
17348,0.011353,-0.080688,1.000366,-1.586914,0.854492,4.516602
17358,0.016479,-0.084839,0.994019,-1.464844,0.671387,4.272461
17367,0.022217,-0.083984,0.992798,-1.525879,0.427246,3.845215
17378,0.026611,-0.085083,0.997559,-1.525879,0.427246,3.479004
17388,0.028320,-0.085083,1.000244,-1.586914,0.061035,3.234863
17397,0.029053,-0.086182,1.000000,-1.647949,0.122070,2.929688
17409,0.032349,-0.088745,1.000488,-1.892090,-0.427246,2.258301
17418,0.044922,-0.094116,0.997925,-1.647949,-0.305176,1.892090
17428,0.038452,-0.091309,1.000610,-1.708984,-0.244141,1.647949
17437,0.035034,-0.086060,1.000854,-1.647949,-0.305176,1.342773
17447,0.031372,-0.084473,1.000854,-1.647949,-0.671387,1.098633
17458,0.025513,-0.085937,0.999268,-1.647949,-0.427246,0.793457
17468,0.022339,-0.081543,0.998413,-1.831055,-0.549316,0.549316
17477,0.022583,-0.077637,0.996948,-1.586914,-0.488281,0.610352
17487,0.020996,-0.077759,0.997192,-1.770020,-1.037598,0.549316
17498,0.017822,-0.076416,0.994507,-1.831055,-1.281738,0.488281
17508,0.011719,-0.070923,0.996460,-1.770020,-0.854492,0.488281
17518,0.004761,-0.067383,0.998779,-1.831055,-0.793457,0.488281
17527,-0.004028,-0.066895,1.000610,-1.892090,-1.037598,0.732422
17538,-0.014648,-0.067139,1.000732,-1.831055,-0.854492,0.732422
17547,-0.025513,-0.068726,1.000732,-1.708984,-0.854492,1.342773
17557,-0.032104,-0.071289,1.000366,-1.525879,-0.366211,1.831055
17568,-0.012207,-0.088013,0.988892,-1.586914,-0.122070,1.892090
17577,-0.004150,-0.093506,0.985962,-1.647949,-0.183105,1.953125
17588,-0.001099,-0.063599,0.992432,-1.647949,-0.488281,2.075195
17598,0.012329,-0.077637,0.973755,-1.647949,-0.366211,2.075195
17607,0.029663,-0.091064,0.975098,-1.220703,-0.610352,1.953125
17620,0.030273,-0.183594,0.997192,-0.244141,-0.427246,1.647949
17629,0.029785,-0.215576,1.016846,-0.122070,-0.244141,1.953125
17639,0.007446,-0.203491,1.022583,-0.488281,-0.122070,1.831055
17649,-0.017822,-0.171997,1.002686,-0.488281,0.183105,2.258301
17658,-0.034546,-0.171387,0.975464,-0.488281,0.244141,2.319336
17668,-0.040283,-0.197876,0.968750,-0.183105,0.183105,2.624512
17678,-0.043945,-0.223389,0.989868,0.122070,-0.244141,2.868652
17687,-0.038696,-0.199585,1.019287,-0.366211,-0.122070,3.356934
17699,-0.032227,-0.088745,0.998291,-0.976562,0.915527,4.333496
17709,-0.046631,-0.086060,0.960327,-0.793457,1.037598,4.516602
17718,-0.049438,-0.118774,0.953003,-0.488281,0.976562,4.455566
17728,-0.032227,-0.135620,0.983521,-0.366211,0.976562,4.577637
17737,-0.004272,-0.118042,1.021240,-0.671387,1.220703,4.699707
17748,0.019531,-0.088745,1.029907,-1.098633,1.770020,4.821777
17758,0.028442,-0.081299,1.009399,-1.342773,1.831055,5.249023
17767,0.025879,-0.106079,0.979858,-1.037598,1.464844,5.371094
17778,0.056641,-0.143433,0.996094,-1.342773,0.915527,5.493164
17787,0.070068,-0.182495,1.005981,-1.464844,0.915527,5.493164
17798,0.049072,-0.143311,1.005981,-1.525879,0.854492,5.737305
17807,0.034668,-0.152588,1.001831,-1.464844,1.281738,6.042480
17818,0.027954,-0.186035,0.988037,-1.403809,1.220703,6.042480
17828,0.014038,-0.233521,0.954956,-1.464844,1.037598,5.432129
17839,0.013916,-0.178345,1.007324,-1.220703,0.854492,4.943848
17849,0.025146,-0.189453,1.004883,-1.159668,0.854492,4.150391
17858,0.032471,-0.185181,0.992432,-0.976562,0.732422,3.295898
17870,0.024170,-0.196411,0.965820,-0.976562,0.305176,2.868652
17880,0.012695,-0.200317,0.955200,-1.159668,-0.244141,1.831055
17890,0.000122,-0.188232,0.963501,-1.342773,0.000000,1.770020
17900,-0.021973,-0.173462,0.988159,-1.281738,0.366211,1.464844
17909,-0.019409,-0.164062,0.995972,-1.098633,0.671387,1.708984
17919,-0.012451,-0.179932,0.994385,-1.159668,0.671387,1.953125
17928,-0.000732,-0.182617,1.000610,-0.976562,0.671387,2.258301
17938,0.002930,-0.183105,1.006104,-0.976562,0.671387,2.441406
17948,0.011475,-0.195190,0.994141,-0.854492,0.793457,2.990723
17958,0.025635,-0.181641,0.975342,-0.915527,0.854492,3.479004
17970,0.020264,-0.138672,0.984497,-1.281738,0.915527,4.638672
17980,0.009399,-0.129517,0.994751,-1.403809,0.732422,5.371094
17989,-0.003296,-0.138184,1.000610,-1.220703,1.159668,6.164551
17999,-0.023804,-0.151978,1.013184,-1.098633,1.159668,6.958008
18008,-0.043579,-0.165161,1.005005,-1.159668,1.220703,7.446289
18018,-0.049438,-0.160278,0.987183,-1.281738,1.525879,8.483887
18028,-0.045776,-0.136108,0.979370,-1.464844,1.892090,9.460449
18038,-0.042114,-0.118652,0.997192,-1.342773,2.380371,11.840820
18049,-0.047485,-0.175171,0.990723,-0.915527,2.929688,12.695313
18059,-0.020508,-0.173340,0.995239,-1.342773,3.295898,13.427734
18068,-0.000488,-0.171997,0.977661,-1.770020,3.601074,14.160156
18078,0.016602,-0.176270,0.958252,-1.708984,4.394531,14.892578
18088,0.016846,-0.174316,0.970337,-2.014160,4.272461,15.441895
18098,0.003418,-0.211426,0.980591,-1.708984,3.845215,15.319824
18108,-0.001465,-0.226929,1.004028,-1.525879,3.723145,14.221191
18117,0.010132,-0.233154,1.002075,-1.586914,3.479004,14.038086
18128,0.049194,-0.192627,0.992310,-1.525879,3.601074,13.977051
18137,0.038940,-0.206787,0.990479,-1.342773,3.723145,14.526367
18148,0.031006,-0.211670,0.995239,-0.976562,3.540039,15.197754
18157,0.039795,-0.229858,0.972168,-1.098633,3.784180,15.747070
18168,0.045532,-0.198364,0.965820,-1.403809,3.723145,16.723633
18180,0.010010,-0.192749,0.997803,-1.586914,3.967285,17.700195
18190,0.001953,-0.206421,0.996094,-1.037598,3.784180,17.700195
18199,0.000732,-0.209351,0.985352,-1.098633,4.089355,18.127441
18209,-0.011719,-0.254150,0.989990,-1.159668,4.333496,18.615723
18218,-0.010010,-0.209229,0.992310,-1.098633,4.211426,18.615723
18228,0.000244,-0.192017,0.984131,-1.098633,4.272461,19.409180
18237,0.029297,-0.139404,0.977051,-1.403809,4.028320,20.263672
18250,-0.021240,-0.156372,0.967896,-0.854492,4.638672,22.399902
18260,0.001709,-0.193237,0.972778,-0.915527,5.126953,23.376465
18269,-0.039673,-0.169434,0.997070,-1.037598,5.493164,23.803711
18279,-0.079712,-0.145142,1.012451,-1.525879,5.920410,24.169922
18289,-0.022949,-0.139282,0.986328,-1.342773,6.103516,23.986816
18298,-0.020508,-0.135132,0.983887,-1.220703,6.591797,24.047852
18308,-0.044556,-0.149170,1.003784,-1.159668,6.469727,24.658203
18320,0.022461,-0.202881,0.990601,-0.976562,6.774902,25.024414
18330,0.013306,-0.191650,1.005981,-1.037598,6.713867,25.268555
18339,0.024902,-0.195557,0.993164,-1.220703,6.469727,25.146484
18349,0.051147,-0.180786,0.985107,-1.281738,6.530762,25.207520
18358,0.048340,-0.184082,1.008301,-1.159668,6.713867,25.390625
18368,0.050781,-0.194458,0.994751,-0.854492,6.164551,25.024414
18378,0.081787,-0.221558,0.981079,-1.037598,6.347656,24.658203
18390,0.080078,-0.230591,0.988159,-1.159668,5.126953,23.559570
18400,0.110352,-0.193604,0.987305,-1.098633,4.333496,22.827148
18409,0.092529,-0.189575,0.991577,-0.732422,4.211426,22.521973
18419,0.122559,-0.199951,0.968750,-0.671387,4.028320,21.484375
18428,0.141113,-0.258789,0.983521,-0.427246,3.967285,21.057129
18438,0.108154,-0.272949,1.000732,-0.488281,3.356934,20.324707
18448,0.128662,-0.235718,0.989990,-0.671387,2.868652,18.737793
18458,0.112671,-0.218140,1.013794,-0.732422,1.831055,15.930176
18470,0.131104,-0.247803,0.977783,-0.244141,1.403809,14.404297
18479,0.102539,-0.277954,1.006714,-0.061035,1.220703,13.366699
18489,0.111206,-0.237915,0.993774,-0.183105,0.610352,12.145996
18498,0.103882,-0.207886,0.996582,-0.183105,0.000000,10.498047
18509,0.093384,-0.190186,0.995239,0.061035,-0.427246,9.338379
18518,0.147095,-0.234375,0.976685,0.244141,-1.037598,7.751465
18529,0.159790,-0.232178,0.994629,0.122070,-1.525879,4.333496
18539,0.140625,-0.163330,0.979370,-0.305176,-2.807617,2.075195
18548,0.142334,-0.195068,0.937378,-0.244141,-3.295898,-0.061035
18558,0.168091,-0.253906,0.977539,0.061035,-3.784180,-2.136230
18568,0.162964,-0.248169,1.002075,-0.610352,-4.577637,-4.089355
18578,0.146240,-0.163696,1.033081,-0.854492,-5.249023,-6.347656
18588,0.156250,-0.192505,0.976685,-0.671387,-5.981445,-7.873535
18598,0.145020,-0.238770,1.002319,-0.427246,-6.896973,-10.803223
18610,0.158691,-0.205322,1.014648,-0.610352,-7.507324,-12.329102
18619,0.150757,-0.189697,0.987061,-0.610352,-8.117676,-13.732910
18629,0.146240,-0.215942,0.988281,-0.488281,-8.361816,-14.831543
18638,0.167847,-0.242920,0.984863,-0.366211,-8.544922,-15.502930
18648,0.126709,-0.208984,1.019043,-0.610352,-8.789063,-15.808105
18660,0.125488,-0.184937,0.982544,-0.305176,-9.338379,-16.235352
18669,0.114380,-0.277954,0.957764,-0.305176,-9.399414,-16.357422
18679,0.086060,-0.212524,1.012695,-0.671387,-9.460449,-16.662598
18689,0.073364,-0.212280,0.976196,-0.549316,-9.399414,-16.845703
18699,0.051514,-0.264526,0.990112,-0.427246,-9.704590,-16.357422
18708,0.058838,-0.313354,0.953613,-0.183105,-9.460449,-15.747070
18718,0.042603,-0.184814,1.002930,-0.549316,-9.277344,-15.258789
18730,0.058228,-0.239502,0.951050,-0.122070,-8.728027,-14.587402
18739,0.043701,-0.156494,0.973267,-0.549316,-8.483887,-14.099121
18750,0.057129,-0.151611,0.987915,-0.915527,-8.728027,-13.610840
18759,0.074219,-0.163940,0.969849,-1.098633,-8.666992,-13.122559
18769,0.077637,-0.137573,0.964111,-1.647949,-8.544922,-12.817383
18778,0.073364,-0.131226,0.986084,-1.525879,-8.239746,-12.390137
18788,0.083618,-0.181274,0.955078,-1.586914,-7.995605,-12.023926
18800,0.041016,-0.089355,1.034302,-2.197266,-8.239746,-11.840820
18809,0.041016,-0.182373,1.001587,-1.770020,-7.934570,-12.268066
18819,0.069824,-0.150635,1.005493,-2.197266,-7.873535,-12.573242
18829,0.053467,-0.087524,0.998901,-2.563477,-8.422852,-13.366699
18839,0.051025,-0.148682,1.033936,-2.136230,-8.422852,-14.343262
18848,0.071533,-0.204102,0.971069,-1.953125,-8.728027,-14.892578
18858,0.069458,-0.126709,1.006714,-2.258301,-8.911133,-15.258789
18870,0.084717,-0.155518,0.990845,-2.258301,-9.582520,-15.747070
18879,0.062256,-0.125977,1.036499,-2.563477,-9.338379,-16.174316
18889,0.036499,-0.141724,0.975830,-1.953125,-9.155273,-16.174316
18899,0.022949,-0.164062,1.005371,-1.770020,-8.911133,-16.479492
18909,0.017456,-0.151001,0.980225,-1.770020,-8.972168,-16.662598
18918,0.002441,-0.124268,0.957275,-1.892090,-8.850098,-17.272949
18928,-0.020020,-0.204834,0.945312,-1.464844,-8.850098,-18.249512
18939,0.003418,-0.186523,0.929443,-1.770020,-9.033203,-19.226074
18950,0.017456,-0.144775,0.979858,-1.831055,-8.850098,-21.057129
18960,0.047241,-0.134644,0.951050,-2.014160,-8.483887,-21.362305
18969,0.067505,-0.080811,1.004517,-2.380371,-7.934570,-21.240234
18979,0.084351,-0.156128,0.974121,-2.197266,-7.995605,-21.301270
18989,0.050415,-0.084839,1.013306,-2.014160,-8.239746,-21.606445
18998,0.052979,-0.061401,0.996338,-2.136230,-8.666992,-21.423340
19008,0.042969,-0.117676,0.984497,-1.892090,-8.605957,-21.301270
19020,0.081177,-0.081421,0.985474,-1.831055,-8.178711,-20.935059
19030,0.042847,-0.078979,0.974731,-2.075195,-8.728027,-20.996094
19040,0.032593,-0.107056,1.005493,-2.014160,-8.972168,-21.057129
19049,0.006836,-0.061157,1.026123,-2.136230,-8.605957,-21.179199
19059,-0.002563,-0.033447,1.025391,-2.380371,-8.300781,-21.423340
19069,-0.007446,-0.093140,1.007813,-2.075195,-8.544922,-22.094727
19078,-0.017456,-0.054199,0.969238,-1.831055,-8.544922,-22.827148
19088,-0.008423,-0.028198,0.977173,-1.586914,-8.911133,-24.841309
19098,-0.018433,-0.079712,0.997559,-1.892090,-9.094238,-25.939941
19108,-0.013306,-0.046265,1.061890,-2.075195,-9.033203,-27.099609
19119,-0.031982,-0.063965,1.082031,-2.014160,-8.789063,-28.076172
19129,-0.023315,-0.047729,1.040161,-2.014160,-8.239746,-29.113770
19139,0.001099,-0.045288,1.020386,-1.831055,-7.812500,-30.151367
19149,-0.008423,-0.090942,1.023926,-1.342773,-7.751465,-32.165527
19158,0.065308,-0.163574,0.977661,-1.159668,-8.422852,-32.958984
19168,-0.012329,-0.113525,0.979004,-0.732422,-8.605957,-33.569336
19179,0.024170,-0.048462,0.961670,-0.488281,-8.422852,-34.423828
19188,0.009033,-0.090942,0.959595,-0.732422,-8.544922,-34.729004
