timestamp,accX,accY,accZ,gyrX,gyrY,gyrZ
11,0.124634,-0.038086,1.064697,-1.586914,-0.488281,13.000488
21,0.075562,-0.161621,1.052246,-1.647949,-0.244141,12.512207
31,0.106934,-0.096558,1.094238,-1.892090,-0.488281,11.474609
41,0.067749,-0.096680,1.043823,-1.953125,-1.708984,8.422852
51,0.158569,-0.071045,1.044189,-1.647949,-2.807617,7.324219
61,0.170532,-0.152710,1.015991,-2.136230,-4.333496,6.225586
71,0.160645,-0.080688,1.016479,-2.258301,-4.699707,5.493164
81,0.175537,-0.113647,0.914551,-2.502441,-5.065918,4.577637
91,0.185425,-0.148560,0.971191,-3.112793,-6.530762,3.723145
101,0.186279,-0.109863,1.018188,-3.479004,-6.591797,2.563477
111,0.192505,-0.075562,0.949463,-3.723145,-7.141113,0.610352
122,0.144775,-0.035400,1.069214,-3.479004,-9.338379,-0.854492
132,0.160278,0.054443,1.176392,-2.868652,-9.094238,-2.136230
142,0.178467,0.029297,1.134521,-2.136230,-9.338379,-3.967285
151,0.171143,0.002930,1.059814,-1.831055,-9.582520,-6.164551
161,0.148315,-0.019043,0.996460,-1.342773,-11.535645,-8.605957
171,0.132812,-0.125732,0.934570,-0.549316,-11.718750,-11.840820
181,0.076660,-0.111572,1.003418,-0.671387,-11.962891,-16.418457
191,0.051514,-0.111328,1.001221,-0.610352,-11.047363,-17.700195
201,0.128540,-0.145264,0.989502,-0.549316,-11.840820,-19.531250
211,0.073608,-0.220093,0.949829,-0.488281,-12.634277,-20.935059
221,0.087524,-0.138062,1.037720,-0.366211,-12.573242,-22.460937
231,0.065308,-0.112061,1.056396,0.000000,-12.329102,-23.620605
241,0.053101,-0.089478,0.984375,0.671387,-11.657715,-24.291992
253,0.054077,-0.217285,0.923584,2.014160,-11.596680,-24.414062
263,0.061035,-0.136230,0.938721,1.586914,-10.925293,-22.949219
273,0.015503,-0.068970,0.938599,1.098633,-9.399414,-20.507812
282,-0.109009,-0.064087,1.010986,0.854492,-7.690430,-17.639160
292,-0.164185,-0.023071,0.998169,1.098633,-6.042480,-14.282227
301,-0.221802,-0.137329,0.978516,1.159668,-4.882812,-11.352539
311,-0.182129,-0.082886,1.002319,0.915527,-3.295898,-8.728027
321,-0.194458,-0.179321,0.954468,0.488281,-0.183105,-3.906250
331,-0.186401,-0.007935,0.999390,-0.549316,-0.122070,0.183105
341,-0.163086,-0.152832,0.965332,0.305176,2.624512,3.784180
351,-0.101685,-0.141235,0.864868,0.671387,3.845215,7.507324
361,-0.062622,-0.284546,0.734253,0.488281,3.662109,11.718750
371,-0.112061,-0.281006,0.737793,-0.549316,4.211426,16.357422
381,-0.133179,-0.178467,0.823486,-1.403809,5.249023,21.545410
393,-0.120239,0.000854,1.098511,-2.868652,8.789063,32.043457
403,-0.164307,-0.102905,1.071899,-2.441406,8.850098,36.010742
413,-0.129028,-0.230835,1.082397,-1.403809,9.216309,38.635254
422,-0.021362,-0.235474,1.014282,-1.281738,9.338379,39.978027
432,-0.062988,-0.166016,0.956055,-1.647949,7.812500,40.344238
442,-0.058594,-0.162964,0.960205,-1.647949,5.249023,40.466309
452,-0.102539,-0.160522,0.945923,-1.159668,5.798340,40.710449
461,-0.048706,-0.159546,0.914307,-0.732422,4.150391,40.832520
471,-0.053467,-0.275024,0.900879,-1.037598,5.065918,40.405273
481,-0.048950,-0.192261,0.925781,-2.258301,3.417969,40.405273
491,-0.027344,-0.191650,0.938843,-2.746582,2.258301,39.611816
502,0.000977,-0.130005,0.938232,-2.929688,1.586914,38.208008
511,-0.015869,-0.175903,0.996460,-3.234863,0.244141,36.499023
521,0.013428,-0.200195,1.066772,-3.723145,-1.159668,34.362793
531,0.050049,-0.133911,1.075684,-3.967285,-2.746582,30.212402
542,0.132202,-0.195801,0.931274,-4.211426,-5.126953,28.686523
552,0.117676,-0.146729,0.953369,-4.516602,-6.530762,27.099609
562,0.071411,-0.140259,1.066895,-5.249023,-7.507324,25.756836
571,0.054565,-0.074707,1.116089,-5.493164,-8.117676,24.597168
581,0.042725,-0.052612,1.169312,-5.004883,-8.300781,23.315430
591,0.008423,-0.171143,1.061768,-4.211426,-9.399414,21.118164
602,0.036743,-0.276855,1.025879,-4.394531,-11.413574,14.282227
612,0.040771,-0.176147,1.001099,-4.577637,-12.695313,10.437012
621,0.008911,-0.079346,1.005981,-4.882812,-13.427734,6.225586
632,0.019775,-0.188599,1.020508,-4.638672,-14.221191,2.563477
641,0.074585,-0.156494,1.079712,-4.333496,-13.061523,-0.793457
651,0.069214,-0.154053,0.991943,-5.554199,-18.371582,-4.028320
661,0.076782,-0.035889,1.020264,-4.821777,-16.845703,-7.446289
671,0.019043,-0.058228,0.990601,-5.004883,-16.967773,-13.916016
683,0.009521,-0.144897,0.951172,-4.943848,-18.005371,-17.578125
692,0.015259,0.031250,0.978394,-4.638672,-16.906738,-21.911621
702,-0.011841,0.012085,0.964722,-4.272461,-17.700195,-25.268555
712,0.009644,0.046509,1.074219,-3.723145,-16.723633,-28.503418
721,-0.001587,-0.071533,0.940063,-2.929688,-15.686035,-30.944824
731,0.028442,0.042725,0.947632,-2.685547,-16.357422,-32.958984
741,0.000366,-0.063110,0.898560,-2.014160,-15.930176,-34.423828
751,0.009033,-0.050049,0.939087,-1.953125,-13.793945,-34.973145
761,0.002441,0.006104,0.989868,-2.319336,-12.451172,-34.545898
771,-0.055054,-0.005005,0.903931,-2.014160,-11.779785,-34.179687
781,0.033325,-0.005005,1.028687,-1.647949,-9.399414,-33.935547
791,0.039063,-0.100098,0.991943,-1.464844,-9.765625,-34.362793
801,0.037598,-0.067505,1.055664,-1.647949,-9.155273,-34.851074
813,0.075562,0.015747,1.077515,-1.281738,-7.446289,-35.217285
823,0.082275,-0.086670,1.053589,-0.427246,-7.568359,-35.583496
833,0.061768,-0.190674,0.942505,0.000000,-7.690430,-36.926270
842,0.097412,-0.165283,0.841309,-0.061035,-7.019043,-36.071777
852,0.089355,-0.204834,0.843018,-0.427246,-6.225586,-35.339355
862,0.025024,-0.142822,0.954102,-0.488281,-5.554199,-32.714844
872,-0.038330,-0.104736,1.025635,-0.427246,-4.089355,-30.334473
882,-0.098877,-0.137573,1.071167,0.854492,-0.366211,-26.367187
891,-0.056274,-0.224243,1.080933,1.159668,-0.427246,-26.123047
902,-0.002197,-0.167358,1.074219,1.525879,-0.915527,-26.000977
911,-0.069824,-0.217163,0.922729,1.953125,-0.610352,-25.512695
921,-0.044312,-0.172729,0.986694,2.075195,-0.061035,-24.291992
931,-0.122559,-0.263550,0.863037,2.014160,1.403809,-21.362305
942,-0.077393,-0.151489,0.943237,1.647949,3.601074,-17.944336
951,-0.093506,-0.139038,0.928345,0.610352,6.530762,-9.948730
961,-0.074341,0.015259,1.011230,0.793457,7.812500,-7.141113
971,-0.184204,-0.139038,1.066650,1.220703,8.666992,-5.310059
981,-0.181396,-0.191284,1.007813,1.220703,8.972168,-4.516602
991,-0.139404,-0.094849,1.015747,0.854492,9.826660,-3.662109
1001,-0.005493,-0.148193,0.928955,0.976562,11.352539,-2.441406
1012,-0.085327,-0.183838,0.865479,0.488281,10.803223,0.000000
1021,-0.092773,-0.197144,0.902710,-0.610352,10.375977,5.065918
1031,-0.081421,-0.222290,0.930298,-0.915527,11.840820,7.141113
1041,-0.084351,-0.074463,1.074829,-1.403809,12.145996,8.850098
1051,-0.104858,-0.047485,1.070313,-1.037598,13.122559,10.681152
1061,-0.120117,-0.141968,0.969849,-0.427246,14.038086,12.145996
1071,-0.094727,-0.192749,0.919434,-0.061035,14.404297,12.817383
1081,-0.196045,-0.185181,0.864746,-0.183105,14.892578,14.282227
1093,-0.171509,-0.143433,0.916626,-1.342773,14.038086,16.845703
1103,-0.101685,-0.161743,0.960327,-1.770020,14.648438,18.432617
1112,-0.093872,-0.043823,1.143555,-1.708984,16.235352,19.653320
1122,-0.089600,-0.189331,1.010010,-1.953125,12.207031,20.080566
1131,-0.004883,-0.055908,0.994995,-1.342773,14.404297,19.653320
1141,0.059204,-0.139160,0.958740,-1.281738,13.732910,18.859863
1152,0.031860,-0.259033,0.915771,-1.525879,11.413574,17.211914
1161,0.050171,-0.100830,1.082520,-1.342773,10.192871,15.075684
1173,0.096558,-0.055664,1.061401,-1.403809,9.399414,14.648438
1182,0.051392,-0.117676,1.070801,-0.915527,8.300781,14.343262
1192,0.073975,-0.291748,0.938477,-0.549316,7.568359,14.221191
1201,0.060425,-0.120117,1.059937,-0.793457,7.263184,14.587402
1212,0.071777,-0.152222,1.115845,-0.549316,7.507324,15.136719
1221,-0.002686,-0.313721,1.071777,-0.305176,6.652832,16.357422
1231,0.012329,-0.183960,1.045654,-0.061035,5.249023,16.357422
1242,0.042847,-0.159424,0.999756,-0.183105,5.065918,15.930176
1252,0.081665,-0.132446,1.039917,-0.305176,4.699707,15.075684
1261,0.095215,-0.095459,1.030518,-0.671387,3.234863,13.854980
1271,0.118408,-0.052490,1.041626,-0.549316,2.502441,12.573242
1281,0.106934,-0.189941,1.016479,-0.427246,0.854492,10.986328
1291,0.145752,-0.130859,0.949219,-0.427246,0.793457,9.033203
1303,0.157593,-0.106689,0.930420,-0.976562,-0.732422,5.737305
1312,0.117432,-0.038086,0.949341,-1.281738,-2.502441,4.211426
1322,0.148193,-0.009277,0.978760,-0.915527,-2.929688,3.417969
1331,0.098267,-0.188232,0.873657,-0.610352,-3.356934,2.197266
1341,0.122803,-0.017578,1.009277,-0.915527,-3.784180,1.037598
1351,0.050781,-0.087524,0.979736,-0.976562,-4.638672,0.122070
1361,0.055054,-0.087524,0.971680,-0.732422,-4.211426,-0.732422
1374,0.014404,-0.187256,0.867676,-0.854492,-5.065918,-1.953125
1383,-0.019409,-0.084595,0.957397,-0.854492,-4.516602,-2.380371
1393,-0.008545,-0.118530,1.030151,-0.671387,-4.028320,-2.929688
1403,-0.059448,-0.169678,1.005859,-0.671387,-3.967285,-2.990723
1413,0.005005,0.017456,1.132324,-0.305176,-3.662109,-3.234863
1422,-0.008789,-0.124634,1.034790,0.488281,-3.601074,-2.929688
1432,0.042358,-0.231079,0.921387,1.037598,-4.089355,-2.441406
1442,0.089966,-0.100708,0.992065,1.403809,-3.906250,-2.258301
1452,0.074097,-0.132690,0.927734,0.671387,-4.455566,-2.258301
1461,0.098145,-0.026855,0.963501,0.122070,-4.699707,-2.075195
1472,0.077759,-0.212036,0.876221,-0.427246,-4.760742,-2.258301
1481,0.106567,-0.064819,1.042725,-0.793457,-4.150391,-2.685547
1491,0.072266,-0.042358,1.125488,-1.464844,-4.394531,-2.868652
1502,0.077393,-0.241821,1.003662,-2.319336,-4.821777,-3.784180
1512,0.024536,-0.059570,1.038330,-3.662109,-5.065918,-4.760742
1521,-0.010132,-0.030273,0.937134,-3.784180,-4.333496,-4.882812
1531,-0.016846,-0.045166,0.936890,-4.028320,-3.784180,-4.699707
1542,-0.020020,-0.173950,0.903809,-4.394531,-3.845215,-4.638672
1552,0.015381,-0.031738,1.001587,-4.699707,-4.272461,-4.699707
1561,0.049438,-0.176025,1.009888,-4.638672,-3.906250,-4.699707
1572,0.026855,-0.065430,0.971924,-4.577637,-4.394531,-5.615234
1582,0.075195,0.060791,1.121460,-3.479004,-4.333496,-7.080078
1591,0.066528,-0.210937,1.065552,-3.540039,-4.394531,-7.812500
1601,0.080200,0.007324,1.182739,-3.417969,-5.554199,-8.728027
1612,0.063110,-0.153076,1.116821,-2.624512,-5.798340,-8.789063
1621,-0.007568,-0.156250,1.016235,-1.464844,-6.042480,-8.850098
1632,-0.009277,-0.098999,1.032227,0.061035,-4.638672,-8.850098
1641,0.037354,-0.159058,0.995239,0.427246,-4.943848,-8.728027
1651,-0.004150,-0.278931,0.855103,0.915527,-3.906250,-7.080078
1663,-0.052734,-0.314819,0.883545,0.488281,-3.112793,-6.774902
1673,-0.099731,-0.247681,0.759766,0.244141,-1.220703,-6.042480
1682,-0.096191,-0.071411,0.902832,-0.610352,-4.211426,-5.798340
1692,-0.089111,-0.122070,0.980347,-1.220703,0.549316,-5.432129
1702,-0.078613,-0.009033,1.029907,-1.953125,-0.549316,-4.577637
1711,-0.094360,0.004517,1.101440,-2.014160,0.610352,-3.295898
1721,-0.137573,-0.105713,1.072388,-1.220703,1.098633,-1.403809
1733,-0.039185,-0.097778,1.109009,-0.549316,2.563477,-0.488281
1742,-0.072754,-0.068359,1.049805,-0.488281,2.929688,1.281738
1752,-0.109009,0.017822,1.125000,-0.305176,3.417969,2.441406
1761,-0.097412,-0.027100,1.059692,0.427246,4.394531,3.540039
1772,-0.109009,-0.159180,1.014282,1.220703,3.845215,4.211426
1781,-0.099854,-0.141602,1.081665,1.525879,3.723145,4.821777
1793,-0.063599,-0.209473,1.038696,1.708984,4.760742,6.591797
1802,-0.074341,-0.212646,0.921265,1.586914,4.943848,6.469727
1812,-0.104004,-0.091675,0.864014,1.525879,4.760742,6.835937
1822,-0.051025,0.074219,0.953857,1.464844,5.249023,7.080078
1831,-0.060791,-0.198120,0.830200,1.342773,5.126953,7.080078
1841,-0.064819,-0.042236,0.828247,0.732422,5.004883,7.080078
1851,-0.073730,0.118652,0.995239,0.610352,4.882812,7.019043
1863,-0.027100,-0.187256,0.950928,0.793457,4.943848,6.591797
1873,0.010498,0.021729,1.040771,1.037598,4.394531,5.981445
1882,0.051392,-0.072998,1.062134,0.976562,2.746582,5.126953
1892,0.012451,-0.189209,1.005981,1.281738,6.835937,4.577637
1901,0.057373,-0.033325,1.038086,0.061035,4.028320,3.845215
1912,0.078979,-0.014282,1.036133,0.671387,1.953125,1.953125
1922,0.076782,-0.207031,0.957397,0.488281,2.746582,0.793457
1931,0.074585,-0.007568,1.029419,0.366211,4.028320,-1.770020
1943,0.094971,-0.228882,1.057373,0.122070,-1.403809,-2.319336
1952,0.063965,-0.062134,1.021118,0.854492,-0.305176,-3.845215
1962,0.038574,-0.110352,0.978271,1.586914,2.807617,-3.906250
1971,0.068481,-0.333618,0.849731,1.342773,0.000000,-3.479004
1982,0.054443,-0.058838,0.937866,0.549316,0.793457,-2.929688
1991,-0.010254,-0.039185,0.997681,0.366211,1.098633,-3.234863
2001,-0.028198,-0.343872,0.925415,0.122070,1.220703,-2.807617
2011,-0.083984,0.025513,1.029663,-0.610352,0.671387,-2.990723
2022,-0.086670,-0.197266,0.986084,-1.037598,2.014160,-2.380371
2031,-0.051636,-0.116089,0.913818,-1.953125,1.647949,-1.892090
2041,-0.046387,-0.040771,0.959106,-2.441406,2.990723,-0.732422
2052,-0.026978,-0.147949,0.895264,-2.563477,3.295898,-0.122070
2061,-0.076050,-0.105469,0.950439,-2.380371,4.455566,0.549316
2073,0.033813,-0.296875,0.905029,-2.990723,3.112793,-0.244141
2082,0.032959,-0.099854,0.946655,-3.784180,2.868652,-0.976562
2092,0.071655,0.060547,1.078247,-3.540039,3.479004,-2.136230
2101,0.052856,-0.182861,0.946777,-3.784180,1.037598,-2.807617
2112,0.080200,-0.132935,0.960327,-3.601074,3.723145,-3.601074
2121,0.062988,-0.017700,1.108643,-2.929688,2.868652,-4.150391
2131,-0.015625,-0.252686,0.970093,-2.929688,2.441406,-4.089355
2141,0.065552,-0.235474,0.900146,-3.234863,2.319336,-3.295898
2152,0.046753,-0.170898,0.952759,-2.807617,2.380371,-2.685547
2162,0.016235,-0.180908,0.942627,-3.112793,2.746582,-1.647949
2172,0.092041,-0.095703,0.953735,-3.112793,3.601074,-0.793457
2181,0.057739,-0.231567,0.927368,-3.173828,3.479004,-0.122070
2192,0.024292,-0.173828,0.939819,-3.845215,3.051758,0.366211
2201,0.041504,-0.034302,1.024536,-4.821777,3.173828,0.488281
2214,0.000122,-0.263428,0.883301,-4.211426,2.380371,-0.061035
2223,0.033691,-0.033081,0.953735,-4.760742,2.563477,-0.366211
2233,0.052124,-0.118896,0.911621,-5.798340,2.563477,-0.427246
2242,0.086792,-0.090820,0.898437,-6.713867,2.380371,-0.793457
2252,0.047363,0.036255,1.113403,-6.408691,1.586914,-0.915527
2261,0.022339,-0.071045,1.035278,-5.859375,1.953125,-0.854492
2272,0.042236,-0.255371,0.926636,-5.310059,2.502441,-1.037598
2281,0.049805,-0.134888,1.010742,-4.882812,1.037598,0.244141
2293,0.042358,-0.160645,1.000732,-4.577637,3.356934,1.281738
2302,0.044189,-0.108276,0.985474,-4.272461,2.319336,2.014160
2311,0.022705,-0.046387,1.041016,-4.211426,1.953125,2.990723
2321,0.076294,-0.145142,1.014648,-4.150391,3.662109,3.601074
2331,0.086792,-0.054565,0.969849,-4.394531,1.281738,3.723145
2341,0.073242,0.020264,1.064331,-4.211426,1.892090,4.577637
2354,0.017578,-0.254150,0.854858,-3.051758,0.671387,5.432129
2363,-0.004639,0.008057,0.918457,-3.295898,2.868652,6.347656
2373,-0.013916,0.158447,1.009644,-4.028320,-0.244141,6.958008
2383,-0.014282,-0.066650,0.967163,-4.455566,2.624512,8.483887
2392,-0.040649,-0.046631,0.927124,-4.272461,2.075195,9.155273
2402,-0.086914,0.187622,1.068237,-4.028320,1.708984,9.826660
2411,-0.082153,0.034790,1.123535,-3.234863,3.051758,10.314941
2423,-0.127563,-0.079468,1.034058,-2.563477,3.051758,10.742188
2433,-0.122070,0.053711,1.029907,-2.380371,1.953125,10.620117
2442,-0.124268,-0.151123,0.994873,-1.586914,2.868652,10.925293
2452,-0.108276,-0.230957,0.935425,-0.976562,3.906250,11.291504
2461,-0.079346,-0.070923,0.953613,-0.549316,5.126953,11.962891
2472,-0.030273,-0.142700,1.013306,-0.732422,4.333496,11.901855
2481,-0.040894,-0.271240,0.989868,-1.037598,4.211426,11.901855
2493,0.040649,-0.038452,1.165283,-0.610352,3.662109,12.207031
2502,0.035156,-0.073120,1.137695,0.610352,2.746582,12.329102
2512,0.089478,-0.114136,1.144043,1.586914,3.051758,12.878418
2522,0.127563,-0.062134,1.136475,1.831055,2.563477,13.305664
2531,0.148437,-0.078247,1.079102,2.685547,1.281738,14.038086
2542,0.122192,-0.057373,1.040283,3.906250,1.831055,14.465332
2553,0.169678,-0.046021,1.015625,3.967285,-0.915527,14.587402
2563,0.069946,-0.252075,0.885376,3.479004,-1.098633,14.160156
2572,0.045654,-0.148315,0.953003,2.929688,-1.098633,14.038086
2582,0.041626,-0.127075,0.961182,2.624512,-1.892090,13.977051
2591,-0.014771,-0.194092,0.907837,2.441406,-1.647949,13.244629
2602,-0.046509,-0.095581,0.947876,2.136230,-2.380371,12.573242
2612,0.022827,0.005981,1.112427,1.831055,-3.112793,12.023926
2623,-0.003784,-0.023682,1.081177,2.319336,-3.234863,10.009766
2632,0.029541,-0.163086,1.077881,2.746582,-3.479004,9.338379
2642,0.021484,-0.042236,1.141724,3.356934,-2.746582,8.117676
2651,-0.016968,-0.030762,1.085449,4.028320,-5.798340,6.591797
2661,-0.002197,-0.140137,1.031494,4.455566,-6.469727,5.371094
2672,0.006836,-0.306152,0.955811,4.516602,-8.361816,3.723145
2682,0.041626,-0.356934,0.906860,5.554199,-3.234863,2.441406
2692,0.020752,-0.250610,0.820068,5.432129,-1.770020,1.831055
2703,0.046509,-0.242187,0.788452,4.394531,-5.432129,0.122070
2713,0.047241,-0.260010,0.760376,0.122070,-5.187988,-0.183105
2723,0.027588,0.106201,1.170044,-1.586914,-4.943848,-0.549316
2732,0.013062,-0.114136,0.972046,-1.281738,-5.065918,-1.281738
2742,-0.013306,-0.436768,0.691284,-0.671387,-5.920410,-2.380371
2751,-0.023926,-0.326782,0.654541,-2.197266,-5.981445,-3.540039
2763,-0.004272,-0.016602,0.849487,-5.554199,-4.638672,-3.845215
2773,-0.087524,0.045776,1.034790,-5.554199,-4.150391,-3.112793
2783,-0.056030,-0.134521,1.104248,-4.089355,-2.136230,-2.258301
2792,-0.024902,-0.135376,1.174683,-3.662109,-3.479004,-2.563477
2802,0.030640,-0.124268,1.229248,-4.455566,-2.319336,-1.831055
2812,0.005371,-0.091553,1.174194,-4.882812,-3.967285,-1.647949
2822,-0.020874,-0.032349,1.115967,-4.211426,-1.586914,-0.305176
2832,-0.032959,0.003174,1.087524,-2.990723,-1.098633,0.244141
2843,-0.024536,0.021851,1.092285,-2.990723,-0.915527,-0.122070
2853,-0.012817,-0.039429,1.043701,-2.807617,-2.319336,-0.366211
2862,-0.039063,-0.057739,0.928711,-3.234863,-2.563477,-0.610352
2872,-0.068604,-0.012939,0.878662,-2.990723,-1.464844,-1.403809
2882,-0.004395,0.062134,1.003174,-3.295898,-2.197266,-2.075195
2891,-0.028076,-0.114502,0.968994,-3.479004,-1.342773,-2.563477
2903,-0.076172,-0.253784,0.925049,-4.760742,-1.037598,-3.662109
2913,-0.021362,-0.022827,1.037231,-5.004883,0.427246,-3.601074
2923,-0.019165,-0.084106,1.001709,-5.065918,1.464844,-3.601074
2932,-0.003906,-0.072754,1.022705,-5.310059,1.098633,-3.356934
2942,0.012329,0.010132,1.048218,-5.187988,0.854492,-2.807617
2952,0.044312,-0.076538,1.059448,-4.943848,1.892090,-2.807617
2962,0.082275,-0.285156,0.843750,-5.187988,0.488281,-2.929688
2971,0.053589,-0.113159,0.831787,-5.920410,0.183105,-2.563477
2983,-0.021606,-0.098511,0.989502,-5.004883,-0.366211,-2.929688
2993,-0.010376,-0.255249,0.995850,-3.601074,1.281738,-3.295898
3003,-0.052124,-0.022339,1.005005,-2.563477,1.403809,-3.662109
3012,-0.008423,-0.131226,1.127075,-1.037598,0.610352,-4.333496
3022,0.005127,-0.144165,1.078491,0.610352,4.028320,-4.333496
3031,0.007080,-0.242920,0.947998,0.671387,1.098633,-4.272461
3043,0.041260,-0.150879,0.885498,2.685547,0.976562,-3.784180
3052,-0.058472,-0.179443,0.848145,3.845215,5.187988,-3.173828
3062,-0.000732,-0.317505,0.758667,3.234863,1.220703,-2.807617
3072,0.012329,-0.382935,0.849121,3.356934,6.286621,-2.197266
3082,-0.100708,-0.236694,0.913452,1.281738,3.295898,-1.098633
3092,-0.067627,-0.092773,0.976440,-0.122070,5.126953,0.122070
3102,-0.115112,0.003174,0.996704,-1.342773,4.821777,1.220703
3111,-0.119751,-0.020386,1.000610,-1.708984,8.422852,2.014160
3123,-0.028320,0.098999,1.130493,-2.197266,7.873535,3.295898
3132,-0.075195,0.033813,1.101807,-2.868652,9.826660,4.699707
3142,-0.102417,-0.129272,1.001465,-2.563477,8.911133,6.103516
3152,-0.022339,-0.057495,0.993408,-2.929688,7.934570,8.056641
3162,0.032349,0.034180,1.087402,-2.624512,8.605957,10.009766
3172,0.000854,-0.065186,1.104248,-2.136230,8.789063,11.779785
3182,0.022461,-0.224976,1.017212,-1.892090,10.559082,14.587402
3193,-0.008179,-0.252930,0.947510,-2.014160,8.605957,14.831543
3203,-0.025513,-0.076782,0.997925,-2.441406,7.995605,14.709473
3213,0.008545,-0.061035,1.031616,-3.295898,7.934570,14.770508
3222,0.000610,-0.179565,0.997070,-3.662109,6.774902,14.892578
3232,-0.032227,-0.209717,0.994263,-3.479004,6.896973,14.648438
3242,0.029663,-0.111816,1.000000,-3.295898,7.507324,15.136719
3252,0.037598,-0.073608,0.986084,-2.563477,6.652832,14.953613
3262,0.050659,-0.132935,1.007935,-2.136230,5.981445,15.136719
3272,0.143188,-0.152466,0.979004,-1.586914,5.554199,14.465332
3282,0.135132,-0.201904,0.944824,-1.220703,3.295898,13.549805
3293,0.105469,-0.197632,0.917480,-1.159668,3.662109,13.183594
3302,0.143921,-0.159424,0.910034,-1.831055,2.746582,12.207031
3312,0.127441,-0.110962,0.912231,-3.051758,1.953125,11.840820
3324,0.056152,-0.079834,1.026001,-3.540039,1.525879,11.657715
3334,0.077515,0.051636,1.026245,-2.990723,1.892090,11.901855
3343,0.019653,0.079590,1.082153,-2.868652,-0.488281,12.084961
3353,0.038208,0.053955,1.105835,-1.831055,0.366211,12.084961
3362,0.047974,0.064453,1.052490,-1.953125,-0.061035,12.695313
3371,0.012207,-0.010864,0.990112,-1.159668,-1.159668,12.756348
3382,0.022949,-0.149658,0.992676,-0.183105,0.366211,13.427734
3392,-0.015625,-0.075562,0.975220,-0.183105,-0.305176,13.549805
3403,-0.026489,0.060791,0.984741,-0.854492,-1.037598,13.244629
3413,-0.050659,-0.095337,0.963013,-1.098633,-1.586914,12.817383
3423,-0.022583,-0.188721,0.951416,-1.342773,-0.915527,12.756348
3432,-0.024536,-0.057861,1.024170,-1.464844,-0.610352,12.390137
3442,0.001831,0.000977,1.085815,-1.098633,-1.403809,12.329102
3452,-0.002808,-0.078247,1.090210,-0.061035,-1.708984,12.573242
3465,0.062866,-0.216187,0.989990,0.732422,-1.708984,13.183594
3474,0.114136,-0.207397,1.036621,0.732422,-2.624512,13.610840
3484,0.084106,-0.192139,1.004028,0.915527,-2.563477,13.244629
3494,0.150146,-0.154907,0.948486,0.732422,-3.295898,12.756348
3503,0.145142,-0.205200,0.932373,0.427246,-4.760742,11.657715
3513,0.161011,-0.261353,0.948730,0.183105,-5.798340,10.314941
3522,0.129761,-0.152222,0.960571,-0.183105,-5.554199,8.666992
3532,0.119995,-0.000122,0.997192,-0.427246,-5.920410,6.652832
3542,0.127563,0.003296,1.068726,-0.244141,-7.629395,5.432129
3552,0.149658,-0.141479,0.962891,-0.366211,-8.178711,4.638672
3562,0.090820,-0.276123,0.970581,-0.671387,-8.666992,3.601074
3572,0.059937,-0.138672,0.947266,-0.976562,-8.605957,2.563477
3582,0.060303,-0.016235,1.014160,-0.854492,-8.911133,0.915527
3593,0.026489,-0.044556,1.068359,-0.183105,-8.911133,-0.793457
3602,0.074707,-0.022949,1.053711,0.244141,-9.460449,-4.577637
3612,0.062866,-0.155884,1.073242,0.549316,-10.192871,-6.408691
3622,0.000366,-0.219604,0.962158,0.122070,-10.314941,-7.324219
3632,0.105469,-0.148560,0.901245,-0.305176,-11.535645,-8.239746
3642,0.070801,-0.089355,0.881348,-0.610352,-10.620117,-8.972168
3652,0.096069,-0.244141,0.867187,-0.488281,-10.009766,-9.887695
3662,0.078491,-0.267090,0.873535,-0.976562,-10.192871,-10.620117
3674,0.013916,-0.061768,0.940552,-2.502441,-10.131836,-11.596680
3684,0.014648,-0.042358,0.967285,-2.319336,-8.972168,-11.413574
3694,0.040405,-0.034180,1.028687,-2.380371,-8.544922,-10.925293
3703,0.031616,-0.162720,0.957764,-2.441406,-7.507324,-10.620117
3713,-0.032715,-0.268311,0.831177,-2.624512,-6.469727,-10.070801
3723,-0.033569,-0.209229,0.746338,-3.479004,-6.164551,-10.009766
3733,-0.045776,-0.084351,0.833618,-4.638672,-5.737305,-9.887695
3743,-0.084595,-0.087646,0.870605,-6.347656,-4.516602,-9.338379
3753,-0.051636,-0.120728,0.968140,-6.652832,-4.333496,-8.728027
3763,-0.017700,-0.059692,0.983521,-6.408691,-3.295898,-8.117676
3772,-0.052002,-0.005737,1.073975,-6.042480,-2.014160,-6.835937
3782,-0.019653,0.073853,1.093994,-5.859375,-1.281738,-5.798340
3792,-0.116821,0.020020,1.074585,-5.798340,-1.159668,-4.577637
3802,-0.101929,-0.062012,1.040039,-5.187988,-0.305176,-3.356934
3812,-0.093750,-0.047852,1.048950,-4.882812,0.488281,-0.793457
3824,-0.053711,-0.035156,1.062622,-4.516602,1.586914,0.549316
3833,-0.031860,-0.044922,1.068481,-3.906250,2.563477,1.770020
3842,0.003052,-0.003662,1.074341,-3.784180,2.258301,2.075195
3852,-0.006470,0.020630,0.992065,-3.601074,2.136230,2.380371
3863,0.012939,-0.010376,0.985596,-3.417969,1.586914,2.868652
3872,-0.022095,-0.038818,0.981323,-3.601074,0.854492,3.234863
3882,0.015869,-0.038086,0.996338,-3.173828,3.112793,5.187988
3893,0.007446,-0.005859,0.991089,-4.394531,1.647949,5.615234
3903,-0.000366,-0.092407,0.972412,-4.455566,2.502441,6.469727
3913,0.006836,-0.176514,0.940552,-4.028320,3.601074,7.019043
3922,-0.039673,-0.135132,0.932617,-3.967285,2.563477,6.958008
3933,-0.015747,-0.017822,0.979492,-3.906250,2.380371,6.469727
3942,-0.087769,-0.033569,0.960937,-3.723145,2.319336,6.103516
3955,-0.055054,-0.163086,0.934692,-3.479004,2.502441,5.065918
3964,-0.067505,-0.163940,0.922852,-3.234863,3.173828,5.065918
3974,-0.046387,-0.042725,0.983765,-3.234863,3.540039,4.821777
3983,-0.045654,0.002319,0.989380,-3.417969,3.601074,4.455566
3993,-0.010254,-0.047729,0.999756,-2.807617,3.601074,3.906250
4002,0.004272,-0.067139,0.994751,-1.708984,3.234863,3.234863
4012,0.007813,-0.058228,1.004883,-0.732422,2.441406,2.502441
4023,-0.000610,-0.074829,1.049561,1.708984,2.319336,1.220703
4033,-0.025024,-0.183594,1.005859,2.319336,2.258301,1.159668
4043,0.089600,-0.174561,0.950806,3.112793,2.563477,0.610352
4052,0.059814,-0.142456,0.946289,3.051758,2.563477,0.610352
4062,0.107910,-0.189209,0.947388,2.807617,2.563477,0.610352
4072,0.071899,-0.176025,0.899780,2.136230,1.525879,0.793457
4082,0.121582,-0.162598,0.909546,1.403809,1.525879,0.976562
4092,0.061279,-0.087891,0.983154,0.549316,1.770020,2.075195
4104,0.032715,0.009399,1.053345,-0.976562,1.708984,2.380371
4113,-0.007568,-0.025879,0.998657,-1.464844,0.915527,2.746582
4123,-0.007690,-0.082642,0.957153,-1.098633,1.403809,3.112793
4132,-0.011841,-0.074585,0.933350,-1.281738,1.403809,3.479004
4143,0.011963,-0.017822,0.957397,-2.197266,1.159668,4.028320
4152,-0.001343,0.083252,1.040649,-2.441406,3.845215,4.272461
4165,-0.015015,-0.004272,1.087769,-2.868652,3.051758,5.065918
4174,-0.008667,-0.057007,1.122559,-2.380371,3.295898,4.760742
4184,0.001831,-0.100830,1.137573,-2.136230,0.793457,4.516602
4193,-0.026367,-0.091675,1.108765,-0.915527,3.479004,4.272461
4203,0.031860,-0.119751,1.041626,0.061035,1.586914,3.601074
4212,-0.008301,-0.173340,0.946899,0.854492,1.159668,3.662109
4222,0.032349,-0.165161,0.912231,1.525879,3.601074,3.845215
4234,0.008179,-0.141113,0.899048,0.732422,2.624512,4.333496
4244,-0.036377,-0.144531,0.962036,0.122070,2.563477,4.577637
4254,-0.045776,-0.183472,0.926392,-0.244141,2.746582,4.882812
4263,-0.060425,-0.110229,1.006348,-0.427246,2.807617,5.187988
4273,-0.059326,-0.056641,1.056641,-0.427246,2.929688,5.676270
4283,-0.058594,-0.021606,1.119263,-0.610352,3.417969,6.164551
4292,-0.031250,-0.082275,1.080811,-0.366211,3.967285,6.713867
4302,-0.078735,-0.135620,0.991089,-0.244141,3.112793,7.324219
4314,-0.046875,-0.091675,1.006714,0.122070,5.187988,7.812500
4323,-0.051636,-0.051514,1.024902,0.305176,4.943848,8.300781
4333,-0.036011,-0.092773,1.004028,0.244141,5.065918,8.789063
4342,-0.029297,-0.064575,0.955811,0.061035,5.004883,8.972168
4352,-0.026855,-0.069824,0.955688,0.061035,5.249023,9.399414
4362,-0.000488,-0.068970,0.990479,-0.305176,5.249023,9.399414
4375,-0.008667,-0.123779,0.984497,-1.037598,4.089355,9.521484
4384,0.012329,-0.053101,1.068481,-1.037598,4.394531,9.460449
4393,-0.005371,-0.003418,1.155762,-0.244141,4.394531,9.521484
4403,-0.013062,-0.019653,1.183105,1.159668,4.272461,9.277344
4413,-0.034180,-0.104248,1.117065,2.685547,4.699707,9.643555
4422,0.004761,-0.164551,1.066772,4.089355,4.211426,9.948730
4433,0.048096,-0.186279,1.001221,4.882812,4.882812,10.498047
4442,0.044922,-0.182739,0.922119,4.760742,6.652832,11.413574
4453,0.050171,-0.170898,0.869995,3.540039,4.882812,12.390137
4463,0.028809,-0.124756,0.919067,2.319336,3.601074,13.061523
4472,-0.001465,-0.100586,0.992065,1.831055,5.676270,13.488770
4483,-0.003540,-0.120972,0.943848,1.281738,4.211426,14.099121
4492,-0.005127,-0.062378,0.973999,0.427246,1.831055,14.892578
4502,0.014404,0.061035,1.013916,0.549316,4.150391,15.686035
4514,-0.034058,-0.038940,1.032715,1.220703,3.417969,16.296387
4524,-0.037476,-0.145752,0.940796,1.708984,2.990723,16.418457
4533,-0.035156,-0.150391,0.952515,1.281738,3.784180,16.845703
4543,-0.073120,-0.138550,0.919922,0.793457,2.868652,16.723633
4552,-0.002563,-0.006714,0.935425,-0.305176,2.563477,16.845703
4562,0.003052,0.074341,0.970337,-0.610352,2.746582,16.540527
4572,0.035400,0.049316,0.943848,-0.671387,2.380371,16.296387
4585,0.015381,-0.045654,0.955200,-1.525879,0.915527,14.282227
4594,0.012207,-0.062988,1.010742,-2.258301,-0.549316,13.305664
4604,0.023804,-0.122070,0.945923,-2.197266,-0.183105,12.390137
4614,0.026611,-0.050171,0.994385,-2.319336,-0.488281,11.901855
4623,0.046387,0.025635,1.046387,-2.258301,-0.122070,11.962891
4633,0.049683,-0.132202,1.062500,-1.464844,-0.183105,11.718750
4642,0.038940,-0.099121,1.102295,-1.159668,-1.403809,11.230469
4654,0.061279,-0.083130,1.136353,-0.854492,-0.244141,10.498047
4663,0.073486,-0.093628,1.109375,-0.244141,-2.807617,8.972168
4673,0.074829,-0.114136,1.059692,-0.305176,-0.671387,8.850098
4682,0.059814,-0.104980,0.976440,-0.549316,-1.831055,8.850098
4692,0.077148,-0.105225,0.895752,-1.525879,-4.028320,9.521484
4702,0.093872,-0.157471,0.864868,-2.136230,-2.624512,9.826660
4712,0.101196,-0.177002,0.864746,-3.112793,-2.746582,10.253906
4724,0.069824,0.018311,1.008057,-3.723145,-3.906250,10.070801
4734,0.028564,0.022705,1.035889,-3.540039,-4.455566,9.643555
4743,0.028320,-0.005981,1.050171,-3.479004,-5.371094,9.216309
4753,0.054199,0.005615,1.037476,-3.356934,-5.065918,9.033203
4763,-0.012573,-0.040771,1.015259,-2.990723,-4.089355,8.972168
4772,0.034180,-0.045166,1.031128,-2.624512,-4.882812,8.483887
4782,0.009766,-0.064819,1.036499,-1.953125,-4.699707,8.056641
4794,0.014038,-0.262695,0.847534,-1.403809,-5.004883,6.225586
4803,0.035156,-0.216919,0.867676,-1.892090,-5.187988,5.065918
4813,0.034180,0.008423,0.939087,-2.929688,-5.676270,3.784180
4822,0.071533,0.014038,0.960815,-3.234863,-5.798340,2.746582
4832,0.079590,-0.129395,0.934692,-3.295898,-5.737305,1.586914
4842,0.070679,-0.196777,0.925537,-3.479004,-6.103516,0.549316
4853,0.090088,-0.047607,1.005981,-3.784180,-6.958008,-0.671387
4862,0.086426,0.085815,1.071411,-2.563477,-7.202148,-2.929688
4874,0.061157,-0.118408,0.974731,-1.708984,-7.385254,-3.417969
4883,0.087646,-0.175171,0.928711,-0.976562,-7.873535,-3.723145
4893,0.057861,-0.166016,0.961426,-0.427246,-7.324219,-3.784180
4902,0.084961,-0.122192,0.963989,-0.427246,-7.629395,-4.028320
4912,0.108276,-0.098999,0.986206,-0.793457,-7.080078,-4.089355
4922,0.091309,-0.243896,0.896118,-1.525879,-7.568359,-4.028320
4932,0.051147,-0.260254,0.880493,-2.258301,-7.080078,-5.004883
4944,0.006348,0.093506,1.105103,-4.089355,-6.652832,-5.493164
4953,0.008789,0.070679,1.107178,-4.455566,-6.774902,-5.859375
4963,-0.027710,-0.019653,1.044067,-4.150391,-6.164551,-6.225586
4973,0.025391,-0.069702,1.030518,-3.356934,-5.554199,-6.408691
4983,0.001831,-0.044434,1.074341,-2.685547,-5.859375,-6.042480
4992,0.029053,0.040039,1.084229,-1.708984,-4.516602,-5.981445
5004,0.080322,-0.140137,0.972900,-1.342773,-5.249023,-5.310059
5013,0.031616,-0.220581,0.890747,-1.525879,-4.882812,-5.249023
5023,0.012817,-0.305908,0.804810,-1.647949,-4.089355,-5.004883
5032,0.030518,-0.169800,0.898193,-2.258301,-3.784180,-5.004883
5043,-0.004883,0.016113,0.969727,-3.173828,-3.906250,-5.004883
5052,-0.006836,-0.019287,0.984741,-3.540039,-3.540039,-4.760742
5062,0.008911,-0.112305,0.975830,-4.211426,-3.051758,-4.333496
5074,-0.013794,0.034790,1.083862,-3.967285,-1.708984,-3.234863
5084,0.004639,0.016724,1.109619,-2.990723,-1.708984,-2.685547
5093,-0.032227,0.042847,1.043579,-2.014160,-0.122070,-2.075195
5103,0.010864,-0.060059,1.016357,-1.037598,-1.037598,-1.342773
5113,0.034424,-0.162231,0.986450,0.244141,-0.793457,-0.244141
5122,0.030640,-0.185547,0.949951,0.793457,-0.366211,0.427246
5133,0.005981,-0.143188,0.952393,0.488281,-0.549316,1.281738
5144,-0.025513,-0.179077,0.897217,0.427246,-1.342773,2.136230
5154,-0.020752,-0.141724,0.903687,-1.342773,0.183105,2.380371
5163,-0.072998,0.061768,0.943115,-1.892090,-0.610352,2.685547
5173,-0.062622,0.124146,1.028564,-1.281738,-0.610352,3.234863
5182,-0.066406,0.063965,1.078491,-0.305176,1.098633,3.906250
5193,-0.093384,-0.052002,1.015747,-0.061035,0.671387,4.455566
5202,-0.004761,-0.095459,0.985107,-0.366211,1.037598,5.004883
5214,-0.004639,0.128662,1.005493,-0.854492,2.502441,7.019043
5223,0.001221,0.023315,0.975098,-0.366211,1.464844,7.629395
5233,-0.012939,-0.100830,0.957031,-0.366211,3.234863,8.178711
5243,-0.028076,-0.048584,1.042725,-1.037598,1.953125,7.995605
5252,-0.032104,0.067749,1.106689,-2.136230,2.380371,8.178711
5263,-0.043701,0.059814,1.060425,-2.685547,1.953125,8.483887
5272,-0.040649,-0.013428,1.029175,-1.708984,2.685547,8.911133
5284,0.005371,0.012329,1.107910,-0.366211,2.807617,9.460449
5293,0.016602,-0.100586,1.066284,-0.305176,1.525879,9.582520
5303,-0.000977,-0.085815,0.945312,-1.098633,0.427246,9.155273
5313,0.004883,0.070801,0.921631,-0.854492,0.793457,8.972168
5323,-0.003662,0.104980,0.953735,-0.183105,1.220703,9.399414
5332,-0.004272,-0.002930,0.958862,0.854492,1.586914,9.338379
5344,-0.002197,-0.174316,0.970947,-0.122070,-0.610352,8.911133
5354,-0.009521,-0.015625,0.933350,-0.427246,1.647949,8.972168
5363,-0.022461,0.004150,0.937378,-0.366211,1.098633,9.033203
5373,-0.030762,-0.000610,0.960083,-0.427246,1.220703,9.460449
5383,-0.037109,-0.059326,0.983887,-0.366211,0.854492,9.094238
5393,-0.028809,-0.072388,1.040161,-0.549316,0.915527,8.605957
5403,-0.011230,-0.047729,1.017090,-1.525879,0.976562,7.934570
5414,-0.008423,-0.000366,1.019287,-1.770020,0.915527,7.568359
5424,0.051880,0.124268,1.104858,-1.098633,0.610352,7.568359
5433,0.035889,-0.047607,1.067139,-0.488281,0.244141,7.141113
5443,0.035522,-0.050293,1.115967,-0.549316,0.000000,6.347656
5453,0.087646,0.142456,1.173340,-1.037598,-1.281738,5.310059
5463,0.062744,0.083008,1.062134,-0.732422,-1.220703,4.760742
5472,0.063843,-0.011353,0.922241,0.000000,-0.793457,4.089355
5484,0.087280,0.049438,1.013794,0.488281,-2.807617,3.356934
5493,0.063477,0.015869,0.957642,0.183105,-2.136230,2.990723
5504,0.071167,0.062866,0.972168,-0.793457,-2.441406,2.319336
5513,0.047974,0.053223,0.934814,-0.915527,-2.258301,2.197266
5523,-0.007446,0.011597,0.863403,-1.403809,-2.868652,2.380371
5532,-0.008301,0.091675,0.937744,-1.037598,-1.647949,1.647949
5543,-0.007202,-0.013672,0.992065,-2.075195,-4.089355,1.525879
5553,-0.066284,0.000977,0.943970,-2.197266,-1.647949,0.976562
5564,-0.007080,0.019775,0.904419,-3.112793,-1.892090,1.525879
5574,-0.018677,0.070801,0.955688,-2.319336,-2.014160,1.708984
5583,0.028198,0.062012,1.082397,-2.075195,1.342773,2.258301
5593,-0.008423,-0.052979,1.032837,-2.990723,-4.089355,1.953125
5602,0.032959,0.043335,1.097534,-2.319336,-2.197266,0.915527
5613,0.049316,0.030151,1.065552,-2.258301,2.380371,1.098633
5623,0.024414,-0.034424,0.925293,-2.685547,-2.624512,1.708984
5634,0.051514,-0.052368,0.983032,-0.122070,-0.732422,0.976562
5644,0.043457,0.030151,0.988770,0.244141,2.868652,1.281738
5653,0.048462,0.084595,1.100586,-1.464844,-0.061035,2.014160
5663,0.036133,-0.062622,0.936157,-2.197266,-4.638672,1.647949
5673,0.043457,0.133179,1.050171,-1.342773,0.549316,2.319336
5682,0.004028,-0.060181,0.910645,-1.281738,-2.380371,3.540039
5694,-0.019897,0.009888,0.968384,-1.037598,-3.784180,2.563477
5704,-0.016968,-0.021606,0.958984,-2.197266,-0.915527,3.051758
5713,-0.032837,0.050049,1.028198,-3.295898,-4.089355,3.295898
5723,-0.016357,0.015259,0.892090,-3.112793,-3.784180,3.479004
5733,-0.037720,0.108276,1.021973,-1.892090,-0.305176,3.234863
5743,-0.043701,-0.058472,0.960327,-2.136230,-1.159668,4.150391
5753,-0.050049,0.095947,1.078003,-2.014160,-1.464844,3.784180
5762,-0.021973,0.044067,1.098999,-2.197266,2.441406,4.272461
5774,0.004883,0.048462,1.025513,-3.051758,1.770020,4.211426
5783,0.007690,-0.002319,0.975220,-2.502441,-1.342773,4.638672
5793,0.003540,0.032959,0.993774,-1.770020,0.000000,3.662109
5803,0.057251,0.016846,0.985474,-2.197266,-2.380371,3.784180
5813,0.020508,0.026245,1.022949,-1.770020,0.427246,3.662109
5823,0.007324,-0.022461,0.942871,-2.319336,-1.647949,3.845215
5832,0.009644,-0.017578,1.014893,-1.953125,-0.305176,4.089355
5844,0.013062,0.003174,1.032593,-1.525879,-0.732422,5.004883
5854,-0.011597,-0.014160,0.961182,-1.037598,-1.037598,4.699707
5863,0.002686,0.129028,1.075562,-0.915527,3.356934,5.065918
5872,-0.020020,0.010254,1.014648,-1.403809,-1.525879,5.065918
5883,-0.000244,0.087769,1.023315,-0.427246,1.220703,4.333496
5892,-0.027832,0.025024,0.957764,-0.488281,1.342773,5.065918
5904,0.029175,0.065674,1.063232,0.061035,-0.183105,5.615234
5913,0.027222,-0.017212,0.969360,0.671387,3.173828,5.981445
5923,0.008301,-0.006836,0.940918,-0.366211,-0.732422,5.920410
5932,0.015625,-0.074707,0.971436,0.000000,0.610352,5.432129
5943,0.036011,-0.054932,1.035889,0.000000,0.305176,5.065918
5952,0.019531,-0.090576,0.918213,-0.976562,-0.793457,5.065918
5963,0.011108,-0.020386,0.886963,-1.220703,1.098633,4.821777
5975,0.020874,0.054443,0.927612,-2.380371,0.915527,4.882812
5985,0.002197,0.064819,0.969360,-2.868652,-0.976562,4.455566
5994,0.006226,0.043213,0.967407,-3.234863,-0.610352,3.906250
6003,0.018433,0.097900,1.075928,-3.601074,-0.183105,3.784180
6013,0.002808,0.039917,0.988403,-3.295898,-1.281738,3.662109
6023,0.051270,0.126709,1.085938,-3.234863,-1.220703,3.417969
6033,0.059692,0.035522,1.008179,-2.319336,-0.976562,3.479004
6044,0.067749,0.044189,1.006958,-1.525879,-0.732422,3.967285
6053,0.029419,-0.059204,0.948242,-1.464844,-1.892090,4.394531
6063,0.049438,-0.032959,1.016724,-1.037598,0.305176,3.906250
6072,0.011963,-0.059448,1.008423,-1.342773,-1.525879,3.784180
6083,-0.002930,-0.067627,0.950073,-1.403809,-0.793457,3.967285
6093,0.004883,-0.014038,1.018799,-1.525879,-0.976562,3.723145
6102,-0.007324,0.004639,0.998169,-1.953125,-0.976562,3.662109
6114,-0.000977,0.005859,0.944214,-2.624512,-0.976562,3.479004
6124,-0.029785,0.039917,0.975952,-3.173828,-0.793457,3.479004
6133,0.002686,0.039185,1.038086,-2.990723,-0.488281,3.112793
6143,0.002808,0.089722,1.061646,-3.051758,-1.464844,3.051758
6153,-0.005127,-0.039429,0.975708,-2.868652,-0.671387,2.868652
6163,0.023193,0.040649,1.008301,-2.624512,-0.793457,2.258301
6173,0.026001,0.056396,1.020264,-2.380371,-1.037598,1.953125
6183,0.009644,-0.050415,1.002808,-2.197266,-0.793457,1.708984
6194,0.017822,0.005371,1.049927,-2.136230,-0.610352,1.342773
6204,0.024048,-0.115845,1.016479,-2.075195,-1.220703,1.098633
6213,0.054321,0.000977,1.010986,-2.136230,-0.610352,0.976562
6223,0.055908,-0.001587,0.998657,-1.953125,-0.793457,0.976562
6233,0.027344,-0.036865,0.934692,-1.953125,-1.037598,0.793457
6243,0.012817,0.067993,0.992310,-2.563477,-1.403809,0.671387
6253,-0.024536,0.082275,1.013306,-2.807617,-2.624512,0.732422
6264,-0.005615,0.008545,1.000854,-2.929688,-0.366211,1.403809
6274,-0.027466,0.090454,1.003784,-3.051758,-1.037598,1.892090
6283,0.001831,0.064209,0.962646,-2.563477,-0.427246,2.441406
6293,0.036133,-0.076660,0.961182,-2.441406,-1.037598,2.990723
6303,0.029297,0.079468,1.037842,-2.746582,0.244141,3.295898
6314,0.007690,0.076172,1.042236,-2.868652,0.305176,3.417969
6323,0.001831,0.006836,1.029297,-2.563477,-0.427246,3.051758
6334,0.013428,0.050537,1.133423,-1.647949,-0.122070,3.112793
6343,-0.007324,-0.010742,1.011108,-0.915527,-0.732422,2.929688
6353,0.024048,-0.078247,0.948242,0.000000,0.854492,3.234863
6364,0.007202,-0.057373,0.900635,-0.122070,-0.183105,3.479004
6373,0.033691,-0.047241,0.928711,-0.122070,-0.366211,3.540039
6384,-0.007935,-0.030884,0.858521,-0.488281,-0.183105,3.662109
6393,-0.010010,-0.061523,0.952271,-0.976562,-0.244141,4.089355
6403,-0.036377,0.061157,0.970093,-1.831055,0.244141,4.333496
6413,-0.012817,0.035278,1.011963,-1.892090,0.610352,4.577637
6423,-0.019775,0.054810,1.001587,-1.770020,0.427246,5.126953
6434,0.010864,0.037964,0.990234,-1.464844,1.037598,5.554199
6443,0.004517,-0.003174,0.949219,-1.342773,0.610352,5.554199
6453,0.036621,-0.008789,0.969971,-1.586914,1.220703,5.615234
6464,0.030884,-0.035400,0.938232,-2.807617,-0.183105,5.676270
6474,-0.015381,0.027344,0.981812,-2.807617,0.366211,5.737305
6483,0.030640,0.048462,1.093262,-2.441406,0.488281,6.042480
6493,-0.031250,0.052856,1.002686,-1.892090,0.366211,6.896973
6503,0.025635,0.015991,1.047241,-1.525879,1.770020,7.263184
6513,0.008423,-0.037109,0.998047,-1.403809,0.732422,7.751465
6523,0.001099,0.032227,0.948853,-1.770020,0.671387,7.934570
6533,0.005005,0.041870,1.016846,-1.770020,0.793457,8.300781
6544,-0.010620,0.071777,1.028931,-1.953125,0.915527,8.483887
6554,-0.041748,-0.007446,1.001221,-1.953125,0.610352,8.850098
6564,-0.029907,0.007080,0.973267,-2.075195,1.281738,9.216309
6573,-0.007813,0.078369,1.075195,-1.892090,1.586914,9.643555
6583,0.005493,0.097900,1.035156,-1.586914,1.220703,9.948730
6593,0.003662,0.026123,1.027954,-1.403809,0.976562,9.582520
6603,0.016357,-0.070312,1.040894,-1.342773,0.366211,8.850098
6614,-0.004639,0.027954,1.054077,-1.342773,1.037598,8.789063
6624,0.013184,0.021362,1.060303,-1.098633,0.366211,8.178711
6633,0.016113,-0.036865,0.988281,-0.854492,0.488281,8.117676
6643,0.030396,-0.091064,0.992676,-0.915527,0.305176,7.446289
6653,0.035767,-0.054443,0.971558,-1.220703,-0.366211,6.958008
6663,0.026611,-0.016113,0.953125,-1.159668,0.244141,6.713867
6675,0.008057,0.048218,1.002686,-2.136230,-0.427246,5.920410
6685,0.024658,0.030518,1.061401,-2.014160,-0.366211,5.676270
6694,0.025879,0.110107,1.042847,-1.831055,-0.793457,5.432129
6703,0.033691,0.039429,1.052979,-1.770020,-0.732422,5.126953
6713,0.046265,0.015015,1.027466,-1.647949,-0.183105,5.065918
6723,0.058105,0.020508,1.014893,-1.647949,-0.610352,4.882812
6733,0.065308,-0.003662,0.984375,-1.342773,-0.671387,4.516602
6743,0.032104,-0.047485,0.943481,-1.037598,-0.671387,4.211426
6754,0.024780,-0.015381,1.026855,-1.892090,-2.624512,3.417969
6764,0.015991,-0.015747,1.022827,-1.953125,-2.136230,3.112793
6774,0.007202,-0.005859,0.981689,-1.770020,-1.464844,3.173828
6783,0.031250,-0.012085,1.010498,-1.647949,-1.403809,3.479004
6794,0.034790,-0.031250,0.996338,-1.770020,-1.220703,3.295898
6803,0.033569,-0.020020,0.959717,-1.953125,-1.525879,2.990723
6813,0.029419,0.023682,0.940430,-1.953125,-1.892090,2.075195
6824,0.034180,0.021484,0.970459,-2.380371,-2.075195,1.647949
6834,0.017212,0.066162,0.989868,-2.441406,-2.075195,1.464844
6843,-0.007080,0.010986,1.010254,-2.380371,-2.563477,1.281738
6853,0.005981,0.068359,0.999756,-2.136230,-1.403809,1.037598
6863,0.006470,0.058594,0.995117,-2.014160,-1.586914,1.220703
6873,-0.004639,0.019287,0.995972,-1.708984,-1.464844,1.525879
6885,0.032471,0.000122,1.005737,-1.342773,-1.708984,1.342773
6895,0.060669,-0.043823,0.979004,-0.610352,-1.525879,0.915527
6904,0.037720,-0.017212,0.989136,-1.159668,-2.868652,1.220703
6914,0.041260,0.001709,0.988403,-0.793457,-2.258301,0.793457
6924,0.018433,-0.030029,0.974854,-0.793457,-1.586914,1.159668
6933,0.014648,-0.053955,0.973877,-0.305176,-1.464844,1.220703
6943,0.020386,-0.021851,1.008911,-0.610352,-1.647949,1.342773
6955,0.010742,-0.006714,1.045532,-0.427246,-1.892090,1.342773
6965,-0.002441,-0.018433,1.025269,-0.549316,-1.403809,1.342773
6974,-0.013672,0.017212,0.979492,-0.854492,-1.220703,1.708984
6984,0.000732,0.018433,1.011230,-0.732422,-1.525879,2.197266
6993,-0.027588,0.038940,0.977295,-0.854492,-1.464844,2.136230
7004,-0.033447,0.054810,1.000244,-1.037598,-1.037598,2.380371
7013,-0.007690,-0.000732,0.994019,-1.159668,-0.305176,2.563477
7023,0.027100,0.071777,1.035645,-1.403809,-0.244141,2.807617
7035,0.019775,0.064941,1.019897,-1.708984,-0.549316,2.807617
7044,0.023926,-0.015259,1.046143,-1.342773,-0.488281,2.929688
7054,0.007446,0.031616,1.025757,-1.159668,0.183105,2.868652
7063,0.005005,0.017822,1.026001,-1.525879,-0.427246,2.685547
7074,0.001953,0.033203,0.992676,-1.525879,-1.037598,2.746582
7083,0.022583,-0.010132,0.962280,-1.464844,-0.061035,2.624512
7096,0.026978,-0.018555,0.972412,-1.708984,-0.793457,2.624512
7105,0.008545,-0.011475,0.977173,-1.708984,-0.488281,2.624512
7115,0.005249,-0.025146,0.988770,-2.075195,-1.525879,2.502441
7124,-0.010864,0.031128,0.974121,-1.831055,-0.366211,2.563477
7134,0.014282,-0.006104,0.994385,-2.258301,-0.122070,3.356934
7143,0.005371,-0.004395,0.999390,-2.258301,-3.295898,2.929688
7153,0.005127,0.009277,1.013062,-1.953125,1.220703,3.234863
7166,-0.006226,0.007568,0.949585,-1.953125,0.000000,3.540039
7175,0.010010,0.045166,0.986572,-2.014160,-2.380371,3.417969
7185,-0.033691,0.036255,0.968018,-1.831055,2.014160,3.967285
7194,-0.004883,0.006104,0.992676,-2.807617,-1.586914,4.699707
7204,-0.032593,-0.013306,0.973511,-1.708984,1.831055,4.394531
7214,-0.006714,0.000000,0.984375,-2.075195,3.356934,5.310059
7223,-0.011719,0.070923,1.010986,-2.746582,-0.610352,5.676270
7236,-0.006958,0.032837,1.023193,-2.319336,0.305176,6.469727
7245,0.014404,0.013428,1.009277,-2.441406,0.305176,6.408691
7255,-0.000488,0.049805,0.999268,-2.990723,-2.563477,6.713867
7264,0.007813,-0.043579,0.935547,-1.892090,0.610352,6.652832
7273,0.016357,-0.041382,0.948730,-2.319336,0.305176,7.507324
7283,0.010620,0.010376,1.003784,-2.441406,-0.183105,7.446289
7293,0.020020,0.007690,1.044922,-2.746582,-0.366211,7.385254
7306,-0.002075,-0.017944,1.022461,-2.014160,1.098633,6.591797
7315,-0.022339,0.051025,1.032715,-2.807617,-0.732422,6.713867
7325,-0.003418,-0.045044,0.991943,-1.831055,2.075195,6.225586
7334,-0.003052,-0.083008,0.994751,-2.258301,-0.183105,6.408691
7344,0.014404,-0.037231,1.021851,-1.708984,0.671387,5.798340
7353,0.020264,-0.021729,1.017944,-2.197266,-0.549316,5.554199
7363,0.009399,-0.005371,0.982422,-1.403809,1.647949,4.577637
7376,0.021240,0.035156,1.004639,-1.831055,-2.929688,3.906250
7385,0.008423,-0.026978,0.984497,-1.403809,0.122070,3.967285
7395,0.020508,0.020142,0.969849,-1.892090,0.488281,4.150391
7404,0.026733,0.037231,0.983765,-1.953125,-0.305176,4.028320
7413,0.037720,0.043457,1.046265,-1.647949,0.305176,4.028320
7423,-0.001709,0.048340,1.001953,-2.075195,-0.305176,4.150391
7433,0.017700,0.087769,1.059692,-1.953125,-0.305176,4.028320
7446,0.012329,-0.019287,0.994507,-1.831055,0.732422,4.821777
7455,0.014282,0.057739,0.991333,-2.258301,0.488281,5.371094
7464,0.046875,0.024658,1.020386,-2.197266,-0.671387,5.432129
7474,0.042114,0.006958,1.035034,-2.136230,-0.244141,5.798340
7483,0.017456,0.005005,0.990112,-2.014160,-0.061035,5.859375
7493,0.023437,-0.013550,1.014648,-2.014160,-0.427246,5.859375
7503,0.043701,0.043579,1.005371,-2.380371,-0.610352,5.676270
7516,0.029419,-0.026001,0.990723,-1.953125,-1.098633,5.065918
7525,-0.012085,-0.013672,0.987183,-2.258301,-0.793457,5.065918
7535,0.015259,-0.005127,0.991455,-2.380371,-0.671387,4.882812
7545,-0.001953,0.049194,1.007813,-2.502441,-0.610352,4.577637
7554,0.025146,0.013184,1.035278,-1.953125,-0.671387,4.516602
7564,-0.002441,-0.066284,0.991455,-1.770020,-0.366211,4.394531
7574,-0.005005,-0.001709,1.005737,-1.953125,-0.549316,4.211426
7583,0.024170,-0.008667,0.985107,-1.586914,-0.915527,3.784180
7593,0.039551,0.005493,0.997314,-1.464844,-0.732422,3.295898
7603,0.004761,-0.020996,0.966309,-1.831055,-1.281738,2.807617
7614,0.012573,0.070801,1.000854,-1.770020,-0.793457,2.380371
7623,0.032104,0.049316,1.002075,-1.892090,-0.671387,2.319336
7634,0.031738,-0.014038,0.980225,-1.403809,-0.854492,2.258301
7643,-0.001709,0.022705,1.024292,-1.403809,-0.610352,2.075195
7653,0.025757,0.014893,1.057983,-1.525879,-0.549316,2.014160
7664,0.025757,0.037720,1.010498,-1.464844,0.061035,2.258301
7674,0.051270,-0.005981,1.019531,-1.281738,-2.624512,2.441406
7683,0.024536,0.021606,1.034668,-0.671387,0.610352,2.563477
7693,0.017822,0.001709,0.991577,-1.403809,-2.685547,2.807617
7703,0.041992,-0.028320,0.971680,-1.098633,-1.281738,2.563477
7713,0.014771,0.051758,1.028442,-1.098633,-0.793457,2.380371
7725,0.004639,-0.031616,0.991211,-0.488281,-0.488281,2.197266
7735,0.016479,0.031372,1.033813,-0.854492,-0.854492,2.319336
7744,0.005127,0.041748,1.038696,-0.671387,-1.586914,2.258301
7753,0.002075,-0.020874,0.965088,-0.366211,-1.586914,2.380371
7764,-0.017456,0.011108,0.998047,0.061035,0.427246,2.563477
7773,0.011353,0.010498,1.045166,0.000000,-1.037598,2.624512
7784,-0.002319,0.009521,0.994141,-0.427246,-1.831055,2.807617
7793,-0.001709,0.008911,0.962158,0.183105,-0.305176,2.685547
7805,0.008667,-0.041870,1.020386,0.305176,-1.098633,2.563477
7814,-0.010132,-0.014038,1.010742,0.122070,-0.244141,2.563477
7824,0.014893,-0.019897,0.966553,-0.122070,-0.793457,2.441406
7834,0.018677,0.041016,0.983398,-0.061035,-0.732422,2.746582
7844,0.016846,0.032837,0.964111,0.061035,-0.976562,2.807617
7854,0.011353,-0.001831,0.998901,0.549316,0.000000,2.868652
7863,0.003784,0.005981,0.990479,-15.319824,-0.671387,2.746582
7875,0.019897,0.056885,1.005493,-0.671387,-0.854492,3.051758
7884,0.017700,0.017822,0.991943,-0.122070,-0.915527,3.417969
7894,0.002319,0.044922,0.992554,0.305176,0.793457,3.723145
7903,0.038940,0.002441,1.013794,0.366211,-0.183105,3.540039
7913,0.020752,-0.011230,0.996704,-0.183105,-1.281738,3.845215
7925,0.024170,0.070190,1.027466,-0.549316,-1.098633,3.417969
7935,0.020264,-0.075928,0.963501,0.000000,-0.366211,3.356934
7944,-0.004272,0.012817,1.034180,-0.244141,-0.610352,2.868652
7954,0.010742,0.020142,1.008179,-0.305176,-0.366211,2.929688
7963,0.003784,-0.012817,0.972778,-0.183105,0.122070,2.868652
7974,0.013672,0.034424,1.006958,0.061035,-0.305176,2.624512
7984,0.015381,-0.001099,0.969116,0.305176,-0.305176,2.441406
7994,0.027710,-0.009399,1.008911,0.305176,-0.732422,2.136230
8005,0.021484,0.038696,1.003418,0.122070,0.122070,2.319336
8014,0.020996,0.019165,0.993286,-0.793457,-3.479004,2.380371
8024,0.014771,-0.040161,0.965820,0.549316,0.183105,1.831055
8033,-0.005127,0.014526,1.020020,0.061035,-0.244141,2.258301
8044,0.012939,-0.021484,0.995239,0.183105,0.671387,2.319336
8053,0.027710,-0.046265,0.991577,-0.061035,-1.220703,2.258301
8064,0.009399,0.001831,0.958618,-0.427246,-1.098633,2.563477
8075,0.031738,-0.051147,0.949829,-0.366211,-1.708984,2.563477
8085,0.020630,-0.060059,1.008301,0.061035,0.610352,2.441406
8094,0.008545,0.025024,1.023682,-1.037598,-2.075195,2.380371
8103,0.005005,-0.006836,0.991211,-0.915527,1.159668,2.563477
8114,-0.002319,-0.003540,0.977661,-1.037598,-1.892090,2.441406
8123,-0.001709,-0.012817,0.952393,-0.671387,0.427246,2.624512
8135,0.040039,0.027954,1.011841,-0.427246,-0.671387,2.136230
8145,0.022461,0.000977,1.031982,-1.098633,-1.159668,1.708984
8155,0.010864,0.049438,0.989990,-1.525879,0.671387,1.953125
8164,0.014526,0.103394,1.045898,-1.586914,-0.305176,1.953125
8173,0.003784,-0.003174,0.966187,-0.732422,1.281738,2.319336
8184,0.005005,0.011230,1.051270,-0.427246,-0.305176,2.075195
8194,0.009888,-0.002441,0.997925,-1.037598,-0.671387,2.319336
8204,0.020142,0.049194,1.052246,-1.770020,-5.432129,1.770020
8215,0.049072,0.047119,1.023682,-1.586914,-0.427246,2.197266
8225,0.036621,0.022583,0.950684,-0.427246,0.793457,1.281738
8234,0.026245,-0.013428,0.993042,-1.281738,-4.577637,1.403809
8244,0.027100,-0.062866,0.976196,-1.708984,-2.319336,2.014160
8254,0.026489,0.001465,1.068604,-1.831055,0.061035,2.258301
8264,0.012695,0.014893,0.989136,-1.037598,3.295898,1.770020
8275,0.012085,0.018555,0.990723,-0.793457,4.150391,1.770020
8285,0.011475,0.012939,1.017700,-0.976562,2.868652,1.708984
8294,0.007568,-0.006592,0.999634,-1.525879,-0.549316,1.708984
8303,-0.001709,-0.020142,0.981323,-1.770020,-3.662109,1.403809
8314,0.008301,-0.030396,0.980103,-1.892090,-4.821777,0.915527
8323,0.021484,0.001709,0.988159,-0.976562,-1.403809,0.366211
8334,0.027588,0.046143,1.021973,-0.610352,2.746582,0.244141
8346,0.023682,-0.002319,1.042480,-1.220703,0.915527,1.037598
8356,0.036011,-0.033936,0.986938,-2.075195,-4.333496,0.915527
8365,0.017212,0.040405,1.033936,-2.258301,-3.417969,1.037598
8374,0.013794,0.008301,0.972900,-2.136230,-4.699707,0.976562
8384,0.014648,-0.032227,0.971191,-1.281738,-4.638672,0.671387
8393,0.010132,-0.006104,1.020508,-0.732422,-1.770020,0.305176
8404,0.011475,-0.028076,0.982300,-0.122070,2.136230,0.244141
8414,-0.000610,0.001343,1.018188,-0.122070,2.441406,0.366211
8425,0.011963,-0.013184,0.992432,-0.183105,4.943848,0.976562
8434,0.001465,-0.029663,0.999878,0.000000,4.821777,1.098633
8444,0.014404,-0.024536,1.004883,-0.488281,4.272461,1.159668
8453,0.008301,-0.004883,1.027832,-1.037598,2.258301,1.403809
8464,0.011353,-0.042969,0.973511,-1.220703,2.685547,1.159668
8474,0.017212,0.009521,1.037109,-1.342773,2.929688,1.037598
8485,0.027710,-0.045288,1.006958,-1.708984,-0.976562,0.671387
8495,0.029419,0.018066,1.026978,-1.892090,-3.662109,0.366211
8504,0.034180,-0.067749,0.939209,-0.854492,1.220703,0.122070
8514,0.024658,-0.002808,0.990234,-0.183105,3.906250,-0.549316
8524,0.034790,0.005005,1.010132,-0.854492,3.784180,-0.305176
8534,0.015991,0.006958,0.963501,-1.770020,1.159668,0.244141
8544,-0.001587,0.102539,1.019165,-2.685547,-2.685547,0.427246
8554,0.007080,0.041748,1.012085,-2.563477,-4.699707,-0.061035
8566,-0.030762,0.019043,1.040283,-1.281738,1.708984,0.000000
8575,0.001831,0.015259,0.996094,-1.892090,-0.549316,0.610352
8584,-0.000488,0.025635,0.964355,-1.220703,1.647949,0.488281
8594,0.010620,0.015015,0.983276,-2.075195,0.000000,1.220703
8604,0.027466,-0.054321,0.978027,-1.708984,-0.793457,0.671387
8614,0.007202,-0.032104,0.998291,-2.197266,-0.366211,0.854492
8624,0.001465,0.010498,1.010864,-2.136230,0.854492,0.793457
8635,-0.008667,-0.010498,0.954224,-1.953125,3.417969,1.464844
8645,-0.004272,0.004639,1.019043,-2.319336,-0.305176,1.220703
8654,-0.007324,-0.017212,1.006348,-2.319336,0.183105,1.464844
8664,-0.011108,-0.041382,0.963379,-2.319336,-2.807617,1.159668
8674,0.007202,0.038086,1.028687,-1.770020,2.319336,1.159668
8684,0.006470,0.012207,1.001465,-2.441406,0.427246,1.525879
8695,-0.014404,-0.056152,0.961426,-2.502441,-0.305176,1.892090
8705,0.007813,-0.006348,1.042969,-1.892090,3.540039,2.075195
8714,-0.013916,-0.038330,0.958374,-2.746582,-1.098633,2.624512
8724,-0.016479,0.009277,0.991699,-2.075195,2.075195,2.441406
8734,-0.000366,0.051392,1.036499,-2.685547,3.662109,3.540039
8744,-0.025391,-0.042236,0.979858,-2.319336,-1.098633,3.295898
8754,-0.035156,-0.046021,0.962646,-1.220703,4.272461,2.868652
8764,-0.008911,0.044678,1.074219,-2.258301,0.854492,3.723145
8774,-0.005249,0.006348,1.037109,-1.464844,5.371094,4.028320
8784,-0.009155,0.022095,1.008057,-2.380371,0.793457,5.126953
8794,0.054321,0.059204,1.039673,-1.586914,2.624512,5.249023
8804,0.068481,-0.003174,0.993042,-1.403809,4.882812,6.286621
8814,0.050293,-0.008789,0.934204,-1.831055,-0.915527,6.591797
8824,0.105347,0.052124,0.992187,-1.464844,3.601074,6.713867
8835,0.073242,0.049194,1.002441,-1.220703,3.845215,6.713867
8844,0.063599,0.006714,0.977051,-2.136230,2.502441,7.385254
8854,0.067139,0.058228,1.029907,-2.563477,-0.976562,6.652832
8865,0.066650,0.055420,1.019043,-1.464844,2.502441,6.103516
8874,0.092407,0.015137,1.014160,-1.159668,4.760742,5.920410
8884,0.066162,0.007568,0.968018,-1.953125,2.502441,5.737305
8894,0.145874,-0.001343,1.041138,-2.197266,-2.258301,4.333496
8905,0.101807,-0.005371,1.052856,-2.258301,-4.089355,2.075195
8915,0.092773,-0.022461,0.981812,-2.380371,-1.953125,1.770020
8925,-0.001343,0.058228,0.925659,-2.380371,-1.220703,1.342773
8934,0.103516,0.025024,1.050293,-2.380371,-3.601074,-0.061035
8944,0.042847,-0.019531,1.066162,-1.831055,-0.122070,-0.976562
8954,-0.011230,-0.038574,1.070068,-2.258301,-3.112793,-2.136230
8965,-0.002563,-0.017334,1.011597,-1.953125,-1.403809,-2.563477
8975,-0.008667,-0.008179,0.963989,-1.892090,-2.502441,-4.455566
8984,-0.010620,-0.017700,1.000610,-1.281738,-1.220703,-4.699707
8994,0.007813,-0.054077,1.001953,-1.953125,-3.967285,-4.394531
9004,0.005615,-0.037964,1.000244,-1.403809,-2.807617,-4.699707
9014,0.004272,0.005249,0.983765,-1.098633,0.061035,-4.333496
9024,-0.004883,0.014526,0.965210,-1.220703,-0.854492,-3.723145
9034,-0.013916,0.000977,0.960937,-1.220703,-1.708984,-3.479004
9044,-0.009888,-0.016724,1.012329,-1.037598,-2.075195,-2.990723
9055,-0.005371,-0.050903,1.012939,-1.464844,-2.807617,-2.441406
9065,0.011841,-0.023315,0.989502,-1.892090,-0.488281,-1.647949
9075,0.023804,-0.024658,0.965576,-1.586914,-0.305176,-1.831055
9084,0.035522,-0.031738,0.978638,-1.953125,-0.732422,-1.464844
9094,0.056519,-0.040039,1.017090,-1.586914,-0.549316,-1.708984
9104,0.052490,-0.065430,1.023315,-1.464844,-0.732422,-1.708984
9116,0.065186,-0.018311,1.011963,-1.831055,-0.793457,-1.953125
9126,0.059082,-0.022827,0.987915,-1.770020,2.441406,-1.464844
9136,0.044434,-0.008545,0.986694,-2.380371,-3.295898,-2.075195
9145,0.031006,-0.000366,0.999268,-0.976562,0.976562,-2.990723
9154,0.033447,-0.029053,1.014771,-1.159668,2.136230,-2.441406
9164,0.025879,-0.050049,1.011841,-2.441406,-3.845215,-2.563477
9174,0.029175,-0.004028,1.010010,-2.563477,-5.737305,-2.868652
9187,0.031738,-0.001465,0.974854,-1.770020,-3.906250,-3.479004
9196,0.030273,-0.029541,0.990601,-0.915527,-0.244141,-3.845215
9206,0.015869,-0.027832,1.006836,-0.793457,1.708984,-4.394531
9215,0.009521,-0.012085,1.014282,-0.915527,2.624512,-4.577637
9225,-0.010376,-0.002441,1.001465,-1.892090,1.220703,-4.516602
9234,-0.021362,-0.011719,0.993408,-2.502441,-3.784180,-5.432129
9245,-0.014648,-0.020630,0.994629,-1.281738,-1.953125,-6.591797
9255,-0.008301,-0.012207,0.999634,-1.953125,-1.525879,-6.652832
9264,-0.008057,-0.008423,0.979248,-1.037598,-0.915527,-7.141113
9274,0.002197,-0.004639,0.984253,-1.525879,1.159668,-6.652832
9285,0.006348,0.012573,0.997437,-2.136230,-3.417969,-6.958008
9294,0.002563,0.013794,1.006958,-1.281738,-0.671387,-7.019043
9305,-0.003540,0.010376,1.028931,-1.708984,1.281738,-6.164551
9314,-0.015869,0.001709,1.036011,-2.075195,0.671387,-5.615234
9327,-0.036865,0.021973,1.016602,-2.136230,-3.784180,-5.615234
9336,-0.051025,0.043091,0.996216,-1.098633,1.525879,-5.187988
9346,-0.053101,0.039673,0.979248,-1.464844,0.244141,-4.516602
9355,-0.049805,0.033447,0.979614,-1.708984,1.647949,-3.845215
9365,-0.050537,0.036865,0.991455,-1.770020,0.793457,-3.540039
9374,-0.054077,0.046143,1.000488,-2.197266,0.122070,-2.990723
9384,-0.051880,0.045166,1.010620,-1.708984,2.319336,-3.051758
9396,-0.046509,0.030762,1.022461,-2.014160,2.685547,-2.075195
9406,-0.040527,0.039917,1.016602,-2.014160,2.502441,-1.770020
9416,-0.036011,0.049561,1.002808,-1.831055,3.479004,-1.281738
9425,-0.031006,0.053589,0.997437,-1.708984,2.563477,-0.427246
9435,-0.022705,0.059570,0.996948,-1.403809,3.479004,0.549316
9444,-0.006104,0.064331,1.000122,-1.586914,3.662109,1.586914
9455,0.005371,0.067017,0.996094,-1.342773,4.638672,2.624512
9464,0.013794,0.071655,0.990112,-1.281738,5.065918,4.577637
9475,0.035889,0.018799,1.032104,-1.098633,5.615234,5.371094
9484,0.040283,-0.048218,1.042603,-0.793457,4.760742,5.859375
9494,0.049927,-0.078613,1.032349,-0.610352,4.821777,6.164551
9504,0.068604,-0.112061,1.011841,-0.122070,4.882812,6.469727
9514,0.080200,-0.114380,0.993652,0.183105,5.981445,6.652832
9524,0.083008,-0.092529,0.973511,-0.122070,4.760742,7.019043
9534,0.073730,-0.102783,0.970215,-0.122070,4.760742,6.896973
9545,0.047363,-0.099243,0.989380,-0.793457,4.089355,6.652832
9555,0.051392,-0.107422,1.000244,-1.037598,3.662109,6.530762
9564,0.059570,-0.114380,1.001587,-0.854492,3.540039,5.859375
9575,0.067383,-0.108276,1.000366,-0.549316,3.845215,5.187988
9584,0.081421,-0.105347,0.992065,-0.671387,2.685547,4.638672
9595,0.096924,-0.096436,0.990112,-0.610352,3.051758,3.601074
9604,0.098022,-0.080688,0.988281,-0.732422,1.953125,2.441406
9616,0.112183,-0.079346,0.924683,-0.549316,2.319336,1.892090
9625,0.115967,-0.090210,0.966675,-1.098633,2.258301,1.647949
9634,0.093262,0.014282,1.007324,-1.342773,1.647949,1.220703
9644,0.127930,0.044800,1.169556,-1.220703,1.647949,0.610352
9655,0.106812,-0.048462,1.123047,-1.586914,0.488281,-0.122070
9665,0.062012,-0.145386,0.992554,-1.342773,0.549316,-0.793457
9674,0.088257,-0.260132,0.953979,0.122070,0.183105,-2.075195
9684,0.031494,-0.249756,0.953369,-1.647949,0.061035,-2.380371
9695,0.061035,-0.149048,0.947021,-0.854492,0.671387,-1.953125
9704,0.072021,-0.234375,0.970337,-0.305176,0.854492,-2.685547
9714,0.007568,-0.048828,0.985474,-1.831055,0.610352,-3.112793
9724,0.012817,-0.120972,0.987549,-1.647949,0.793457,-2.990723
9735,0.047852,-0.189697,1.001953,-0.976562,0.366211,-3.784180
9744,0.039795,-0.056885,0.984985,-1.831055,0.061035,-3.479004
9756,0.064331,-0.141357,1.005615,-1.281738,0.427246,-3.784180
9765,0.037842,-0.003296,0.974609,-2.197266,-0.183105,-3.112793
9775,0.057495,-0.059692,0.970459,-1.892090,-0.122070,-2.380371
9784,0.078979,-0.084106,0.980591,-1.403809,0.000000,-2.136230
9795,0.072632,-0.007202,0.989014,-2.136230,0.244141,-1.037598
9804,0.087158,-0.078613,0.997192,-1.892090,-0.183105,-0.183105
9814,0.094238,-0.112427,0.997681,-1.342773,0.549316,0.671387
9826,0.066772,-0.121826,0.993530,-1.647949,-0.976562,1.342773
9835,0.060425,-0.121826,0.984619,-1.586914,-0.366211,1.892090
9845,0.035645,-0.063599,0.974609,-1.708984,-0.427246,2.197266
9855,0.035278,-0.098755,0.978882,-1.708984,0.305176,2.502441
9865,0.044800,-0.108032,0.996338,-1.953125,0.000000,2.990723
9875,0.035645,-0.067139,0.993042,-2.380371,-2.990723,3.173828
9884,0.042480,-0.088867,0.997314,-1.770020,-0.305176,3.417969
9896,0.030762,-0.076782,1.001465,-1.953125,-0.549316,3.417969
9905,0.026367,-0.086426,0.994995,-2.014160,-1.403809,3.479004
9915,0.035278,-0.098877,0.996338,-1.770020,-0.488281,3.417969
9925,0.036499,-0.069702,0.998291,-1.831055,0.244141,3.540039
9935,0.041504,-0.069946,1.003906,-1.953125,-0.427246,3.845215
9944,0.056641,-0.089844,1.001343,-1.342773,1.159668,3.417969
9956,0.073608,-0.063721,1.008179,-1.708984,-1.098633,3.601074
9966,0.078369,-0.084595,1.007080,-1.586914,-1.586914,3.417969
9975,0.070679,-0.077637,1.000977,-1.403809,-0.305176,3.051758
9985,0.069336,-0.067139,0.996094,-1.892090,-1.159668,2.746582
9995,0.074219,-0.080566,0.994751,-1.525879,-1.525879,2.380371
10004,0.066895,-0.085815,0.999756,-1.525879,-1.281738,2.502441
10015,0.059448,-0.085205,0.998413,-1.342773,-0.793457,1.953125
10026,0.065430,-0.095459,1.001831,-1.586914,-1.892090,1.647949
10036,0.066650,-0.086304,0.999756,-1.525879,-1.647949,1.464844
10045,0.065918,-0.091675,0.995728,-1.708984,-3.295898,1.037598
10055,0.061279,-0.090576,0.996582,-1.586914,-1.831055,1.220703
10065,0.056030,-0.082031,0.996338,-1.464844,-2.075195,0.854492
10075,0.056519,-0.086548,0.994995,-1.586914,-3.540039,0.732422
10086,0.052124,-0.090210,0.996826,-1.342773,-2.685547,0.366211
10095,0.044678,-0.084839,0.997925,-1.525879,-2.075195,0.244141
10106,0.031128,-0.078491,0.995605,-1.220703,-1.647949,0.244141
10115,0.025513,-0.072632,0.990967,-1.342773,-2.380371,0.183105
10125,0.025024,-0.075806,0.993042,-1.281738,-1.953125,0.488281
10135,0.026855,-0.082031,0.996216,-1.281738,-1.953125,0.610352
10144,0.031616,-0.084106,0.997070,-1.220703,-2.258301,0.793457
10155,0.031860,-0.091309,0.996094,-1.281738,-1.892090,0.976562
10166,0.027100,-0.093262,0.986694,-1.220703,-1.586914,1.159668
10176,0.024902,-0.090698,0.986084,-1.525879,-1.647949,1.464844
10185,0.026489,-0.093262,0.989258,-1.647949,-2.868652,1.708984
10195,0.028076,-0.095215,0.996948,-1.281738,-1.403809,1.708984
10205,0.025879,-0.095947,0.999023,-1.342773,-2.502441,1.586914
10214,0.016602,-0.091797,1.000732,-1.708984,-2.624512,1.892090
10225,0.010620,-0.083862,1.001709,-1.037598,-0.427246,1.647949
10236,0.025513,-0.078491,0.997314,-1.647949,-2.319336,1.770020
10246,0.037964,-0.077515,0.994995,-1.220703,-2.075195,1.464844
10255,0.044800,-0.082520,0.997192,-1.708984,-3.356934,1.708984
10264,0.050781,-0.092285,1.000977,-1.464844,-1.953125,1.525879
10275,0.052734,-0.093384,1.003052,-1.220703,-1.831055,1.342773
10284,0.046265,-0.085815,1.002930,-1.220703,-2.197266,1.159668
10295,0.035034,-0.081787,0.999878,-1.403809,-2.746582,0.976562
10306,0.000244,-0.072754,0.987061,-1.342773,-1.708984,1.037598
10316,-0.011353,-0.074341,0.990845,-1.586914,-3.051758,0.915527
10325,-0.013672,-0.081055,0.999146,-0.976562,-0.488281,0.854492
10335,-0.018188,-0.089478,1.002197,-1.220703,-2.807617,0.732422
10345,-0.018677,-0.093384,1.001221,-1.159668,-0.305176,0.732422
10355,-0.015259,-0.091309,0.989258,-1.403809,-1.892090,0.671387
10365,-0.004150,-0.088013,0.979492,-1.159668,-1.342773,0.549316
10376,0.019043,-0.078247,0.980713,-0.976562,-1.159668,0.854492
10386,0.027832,-0.072754,0.986450,-0.976562,-0.915527,0.976562
10395,0.036987,-0.073730,0.995850,-0.854492,-0.976562,1.403809
10404,0.042480,-0.078979,1.002441,-0.915527,-0.305176,1.647949
10415,0.041748,-0.083130,1.009277,-0.915527,-1.098633,1.647949
10425,0.035156,-0.079468,1.007690,-0.854492,-0.732422,1.831055
10435,0.017090,-0.069946,1.000488,-1.037598,-2.075195,1.770020
10445,0.002563,-0.067993,0.985718,-0.793457,-0.854492,1.647949
10455,-0.014160,-0.045898,0.987061,-0.854492,-0.061035,1.220703
10465,-0.056152,-0.053223,0.999634,-1.220703,-0.610352,0.854492
10476,-0.047974,-0.063110,1.003296,-1.220703,-0.976562,0.427246
10485,-0.039551,-0.088623,1.003052,-1.159668,-0.061035,-0.366211
10496,-0.032349,-0.102905,1.021118,-1.342773,-0.610352,-0.671387
10505,-0.032104,-0.156982,1.022217,-1.159668,-15.014648,-0.732422
10515,-0.035278,-0.101929,1.013184,-2.136230,0.000000,-0.549316
10525,-0.045410,0.012939,0.960449,-1.953125,0.732422,-0.122070
10535,-0.040283,-0.045532,0.938354,-1.464844,1.464844,0.488281
10545,-0.019897,-0.094482,0.968140,-1.403809,0.915527,1.281738
10555,0.000244,-0.068970,1.031006,-1.708984,2.380371,2.014160
10565,0.023315,0.002441,1.067627,-2.197266,1.220703,2.075195
10576,0.028931,0.024780,1.047119,-1.770020,2.319336,1.953125
10585,0.057251,-0.081665,0.981079,-1.586914,0.976562,1.281738
10596,0.095703,-0.104858,0.999023,-1.586914,1.159668,0.732422
10605,0.092285,-0.086792,1.018433,-2.136230,0.671387,0.610352
10615,0.064087,-0.066895,1.024292,-2.014160,0.915527,0.915527
10625,0.053589,-0.078125,0.999268,-1.892090,0.427246,1.586914
10635,0.052856,-0.129639,0.974976,-1.403809,1.281738,2.441406
10645,0.054199,-0.167603,0.972778,-1.770020,0.122070,3.051758
10656,0.029419,-0.151733,0.984131,-1.647949,0.244141,2.807617
10666,0.017822,-0.164917,0.985840,-2.014160,-0.244141,3.051758
10675,0.005371,-0.184937,0.990112,-1.464844,0.000000,2.441406
10685,-0.019531,-0.193970,0.997070,-1.403809,0.305176,2.258301
10695,0.035522,-0.195679,1.029175,-1.770020,0.427246,2.441406
10705,0.077637,-0.178467,1.040527,-1.892090,-0.122070,2.197266
10718,0.052612,-0.186890,0.971924,-1.586914,-0.305176,1.770020
10727,0.051514,-0.227295,0.960083,-1.647949,-0.061035,1.770020
10736,0.056763,-0.204956,0.969116,-1.708984,0.610352,1.831055
10746,0.023193,-0.188721,0.973999,-1.708984,0.183105,1.708984
10755,-0.039917,-0.180786,0.984009,-1.892090,-0.610352,1.953125
10766,-0.081665,-0.181274,0.982300,-1.525879,1.586914,2.014160
10775,-0.079834,-0.208862,0.977661,-1.647949,0.610352,2.197266
10788,-0.063965,-0.205444,0.974609,-1.525879,1.342773,0.793457
10797,-0.040283,-0.189209,0.988159,-1.464844,1.708984,0.549316
10806,-0.006226,-0.191040,0.996948,-1.403809,2.319336,0.366211
10816,0.011230,-0.199463,0.991455,-1.342773,1.464844,0.305176
10825,0.019409,-0.197510,0.983032,-1.281738,2.441406,0.366211
10835,0.034302,-0.191650,0.986206,-1.220703,2.441406,0.549316
10845,0.050049,-0.169678,0.992554,-1.403809,2.319336,1.098633
10855,0.046387,-0.156372,0.999023,-1.403809,1.953125,1.464844
10866,0.036255,-0.155762,1.002319,-1.586914,2.197266,2.441406
10876,0.024414,-0.140015,0.988647,-1.159668,2.380371,2.929688
10885,0.009888,-0.134888,0.973999,-1.586914,2.685547,4.272461
10895,0.030029,-0.130371,0.985229,-1.892090,2.563477,5.371094
10905,0.010498,-0.157349,0.972046,-1.770020,2.746582,6.774902
10915,0.051514,-0.165161,1.018066,-1.770020,3.479004,8.728027
10928,0.039185,-0.185913,1.021851,-1.770020,2.319336,6.591797
10937,0.089355,-0.185425,1.004761,-1.831055,1.525879,4.333496
10946,0.146973,-0.188965,0.992310,-2.014160,1.159668,1.647949
10956,0.165161,-0.203613,0.972900,-1.953125,0.610352,0.122070
10965,0.189575,-0.177979,0.971558,-1.892090,-0.427246,-2.075195
10976,0.196167,-0.163574,1.021851,-1.892090,-0.915527,-3.723145
10985,0.175781,-0.178345,1.036133,-1.647949,-1.953125,-5.554199
10998,0.146362,-0.194458,1.007690,-1.770020,-2.136230,-7.202148
11007,0.112427,-0.179443,0.991333,-1.953125,-2.868652,-8.117676
11017,0.071533,-0.195679,0.971436,-1.708984,-2.990723,-8.361816
11027,0.044067,-0.208984,0.977661,-1.586914,-2.990723,-8.728027
11036,0.036133,-0.200317,1.008667,-1.770020,-3.417969,-9.521484
11046,0.022339,-0.145996,1.098755,-1.708984,-3.417969,-10.437012
11055,0.027100,0.012817,1.347656,-1.586914,-4.333496,-11.291504
11067,0.015503,-0.005737,1.361816,2.746582,-4.516602,-11.657715
11077,0.020142,-0.225098,1.192139,5.371094,-4.821777,-11.779785
11086,0.010376,-0.448120,1.026489,6.835937,-4.394531,-11.413574
11096,0.022339,-0.545288,0.898560,6.713867,-3.662109,-10.437012
11105,0.015991,-0.465088,0.838379,5.310059,-3.234863,-10.375977
11115,0.012939,-0.333130,0.830078,4.211426,-2.563477,-10.314941
11125,0.016602,-0.300659,0.839722,3.906250,-2.197266,-9.277344
11136,0.010620,-0.342651,0.851929,3.051758,-2.563477,-7.751465
11146,0.023804,-0.244751,0.993652,2.136230,-2.807617,-8.056641
11155,0.066040,-0.229980,0.959717,1.831055,-2.136230,-7.995605
11166,0.060425,-0.243286,0.853394,1.708984,-2.624512,-7.751465
11175,0.037598,-0.216919,0.788818,0.976562,-3.723145,-7.995605
11186,0.089355,-0.196411,0.832642,0.732422,-3.417969,-8.422852
11195,0.096558,-0.251953,0.866699,0.366211,-3.112793,-7.934570
11208,0.083984,-0.245117,0.893433,-1.281738,-3.723145,-7.812500
11217,0.118408,-0.182129,0.937256,-2.075195,-3.723145,-7.629395
11227,0.103027,-0.165039,0.918335,-2.197266,-4.272461,-6.652832
11236,0.049683,-0.202759,0.873413,-2.197266,-3.906250,-5.798340
11246,0.031616,-0.165527,0.926392,-2.441406,-4.150391,-5.004883
11255,0.046875,-0.153931,0.979370,-2.624512,-3.662109,-3.784180
11266,0.020874,-0.212891,0.973633,-2.563477,-3.479004,-2.624512
11275,-0.008789,-0.251831,0.985229,-2.746582,-3.784180,-1.220703
11287,-0.011230,-0.207764,0.990479,-2.624512,-4.333496,-0.976562
11296,-0.061401,-0.262085,0.912598,-2.258301,-3.417969,-0.610352
11306,-0.070557,-0.246094,0.947388,-2.197266,-2.746582,-0.732422
11315,-0.057861,-0.250732,0.968262,-2.136230,-1.892090,-0.915527
11325,-0.049316,-0.275757,0.940186,-1.953125,-1.708984,-1.220703
11335,-0.042969,-0.236816,0.997437,-2.258301,-2.014160,-1.342773
11345,-0.044922,-0.208496,1.028442,-2.197266,-1.831055,0.122070
11356,-0.060303,-0.217285,0.967163,-1.403809,-1.525879,1.647949
11366,-0.020874,-0.214233,0.943726,-1.281738,-0.793457,3.112793
11375,-0.006470,-0.268066,0.940430,-1.342773,0.427246,4.089355
11386,-0.000122,-0.271240,0.935303,-1.770020,-0.122070,4.760742
11395,0.011597,-0.251343,0.960571,-2.075195,0.000000,4.943848
11406,0.010742,-0.193115,1.040894,-2.319336,-0.671387,5.371094
11415,0.003784,-0.189575,1.004517,-2.014160,14.953613,5.004883
11426,-0.018433,-0.185669,0.994507,-0.793457,0.976562,5.004883
11436,-0.061646,-0.197632,0.916016,-0.549316,1.098633,4.577637
11445,-0.031982,-0.139526,0.974731,-0.549316,1.098633,3.845215
11456,-0.024536,-0.154785,0.983643,-0.671387,0.122070,3.234863
11465,-0.051758,-0.129150,0.969482,-1.342773,-0.793457,2.746582
11476,-0.030762,-0.022705,1.031982,-1.647949,-0.061035,2.075195
11485,-0.004395,-0.074829,0.998779,-1.525879,-0.732422,1.892090
11495,0.016479,-0.019775,1.038086,-1.220703,-0.366211,1.586914
11506,0.066284,-0.066162,1.041870,-1.098633,0.183105,1.342773
11515,0.035034,0.022705,1.065918,-1.708984,-0.244141,1.098633
11525,0.038940,0.024048,1.029785,-1.708984,-0.549316,0.976562
11535,0.041016,0.005493,1.018555,-1.525879,-0.061035,0.793457
11545,0.074829,0.005249,1.007568,-1.647949,-1.220703,0.488281
11558,0.071045,0.007690,1.030518,-1.953125,-1.403809,0.122070
11567,0.054810,0.000000,1.058105,-2.075195,-0.793457,0.732422
11576,0.005371,-0.056641,1.002441,-2.014160,-1.037598,0.427246
11586,-0.028809,-0.023437,1.044922,-2.014160,-0.366211,0.427246
11595,-0.001709,-0.043335,1.048706,-2.136230,-0.488281,0.488281
11606,-0.036011,-0.115112,0.973145,-1.892090,0.122070,-0.183105
11615,-0.029907,-0.079834,1.000854,-1.892090,-0.488281,-0.976562
11625,-0.024658,-0.057129,1.030640,-2.197266,0.366211,-2.868652
11636,0.001221,-0.085937,0.994385,-1.831055,-0.488281,-3.479004
11646,0.033691,-0.110474,1.009888,-1.708984,-1.098633,-4.760742
11655,0.050781,-0.142700,0.935303,-1.892090,-1.342773,-5.310059
11666,0.079346,-0.114014,0.947632,-1.464844,-1.953125,-6.835937
11675,0.074951,-0.113892,1.000732,-2.136230,-3.356934,-7.507324
11686,0.093750,-0.142456,0.942993,-1.342773,-1.831055,-8.789063
11695,0.116333,-0.138794,0.983765,-2.014160,-2.380371,-10.681152
11707,0.090576,-0.148437,0.980103,-1.892090,-5.187988,-11.535645
11716,0.097534,-0.107910,1.006104,-1.953125,-4.333496,-11.962891
11726,0.049683,-0.085571,1.046631,-2.075195,-5.126953,-12.878418
11735,0.059204,-0.096313,0.971436,-1.770020,-5.798340,-14.343262
11746,0.053711,-0.103027,0.985352,-1.586914,-5.249023,-15.014648
11755,0.000244,-0.074219,1.012085,-1.953125,-6.958008,-15.808105
11767,-0.001587,-0.035278,0.995239,-1.831055,-7.446289,-17.028809
11777,-0.063110,-0.011475,1.018433,-1.892090,-6.652832,-17.089844
11786,-0.050781,-0.055420,0.962891,-1.831055,-5.126953,-16.784668
11796,-0.099731,-0.047363,1.022583,-1.770020,-4.943848,-16.052246
11805,-0.110229,-0.052490,1.048462,-1.892090,-4.577637,-16.052246
11815,-0.065308,-0.069946,0.998901,-1.892090,-4.272461,-16.235352
11825,-0.075439,-0.067139,1.028564,-1.831055,-3.845215,-16.174316
11835,-0.093750,-0.074829,1.018188,-1.647949,-3.784180,-16.723633
11847,-0.069092,-0.125366,0.992432,-1.464844,-3.479004,-16.235352
11856,-0.088379,-0.131958,1.013672,-1.647949,-3.234863,-15.991211
11866,-0.023437,-0.134644,0.976807,-1.770020,-2.746582,-15.258789
11875,0.013184,-0.148071,0.988525,-1.831055,-1.647949,-13.854980
11886,0.017700,-0.140137,1.020874,-2.075195,-2.441406,-13.122559
11895,0.082764,-0.180420,0.968994,-1.708984,-2.441406,-12.329102
11908,0.098633,-0.168579,1.055908,-1.342773,-2.624512,-9.826660
11917,0.076782,-0.183594,0.977295,-1.342773,-3.112793,-9.338379
11927,0.003418,-0.145996,0.957886,-1.647949,-2.868652,-8.483887
11936,-0.042969,-0.095581,1.018188,-1.708984,-2.502441,-8.239746
11946,-0.043335,-0.130859,0.937378,-1.342773,-2.807617,-8.789063
11956,-0.090942,-0.112793,0.959839,-1.159668,-1.464844,-9.155273
11966,-0.025757,-0.111938,1.140259,-1.586914,-1.953125,-9.582520
11975,-0.160156,-0.166626,0.913452,-1.281738,-1.770020,-10.253906
11987,-0.061646,0.003906,1.010742,-1.708984,-0.244141,-10.070801
11996,-0.029785,-0.044922,0.941528,-1.525879,-2.136230,-10.314941
12006,-0.059204,-0.049683,0.972778,-1.281738,-1.647949,-9.643555
12015,-0.007935,-0.033569,1.035889,-1.342773,-0.061035,-8.544922
12026,0.004395,-0.075684,0.963745,-0.976562,0.488281,-7.934570
12035,0.010498,-0.021118,0.985718,-1.220703,-0.244141,-7.202148
12047,0.049438,-0.104248,0.939331,-1.098633,-0.915527,-5.432129
12056,0.045410,-0.073364,1.010010,-1.159668,-1.586914,-4.455566
12066,-0.014282,-0.007080,0.812378,-1.281738,-1.159668,-3.295898
12075,0.005005,-0.250732,1.032959,-0.793457,-1.464844,-2.197266
12086,-0.030762,-0.108765,0.961670,-1.159668,-0.427246,-1.037598
12095,-0.137451,-0.047119,0.989136,-1.464844,0.488281,-0.305176
12106,-0.063477,-0.146240,1.040527,-1.281738,0.976562,1.159668
12115,-0.151123,-0.088867,1.060303,-1.281738,1.159668,2.380371
12127,-0.068481,-0.165161,0.916260,-1.220703,1.098633,3.601074
12136,-0.012817,-0.065308,0.955078,-1.220703,1.037598,4.821777
12146,0.094482,-0.264160,0.964600,-1.281738,1.892090,6.042480
12156,0.032104,-0.058472,1.032349,-2.075195,2.380371,7.263184
12165,-0.010986,0.057861,1.199097,-2.380371,2.075195,7.995605
12180,0.014038,-0.157715,0.930786,-1.647949,1.525879,7.019043
12189,-0.062378,-0.091431,0.962280,-1.281738,1.037598,7.385254
12198,-0.055542,-0.123413,0.940063,-0.793457,0.854492,7.568359
12208,-0.108276,-0.167725,0.984619,-1.159668,0.061035,7.568359
12217,-0.003296,-0.122070,1.081787,-2.258301,0.976562,7.934570
12227,-0.057617,-0.075928,0.994873,-2.746582,2.258301,8.666992
12236,-0.116089,-0.010376,0.977539,-3.234863,0.854492,9.582520
12245,-0.073975,-0.080078,0.992310,-1.831055,2.014160,9.155273
12257,-0.088013,-0.206787,1.060669,-1.281738,1.953125,10.070801
12266,-0.045288,-0.142212,1.001343,-1.159668,3.234863,10.131836
12276,-0.086426,-0.159424,0.886841,-1.037598,3.234863,10.253906
12285,-0.073608,-0.114258,0.948975,-0.915527,3.356934,10.253906
12296,-0.005249,-0.119385,0.928589,-0.854492,2.441406,10.498047
12305,-0.009644,-0.210815,0.931641,-0.549316,2.990723,10.864258
12316,0.071655,-0.135620,1.061768,-0.976562,2.746582,11.474609
12327,0.021240,-0.118774,0.970825,-1.281738,2.319336,13.061523
12337,0.056030,-0.050659,1.028687,-1.342773,2.563477,13.610840
12346,-0.024658,-0.163818,0.960205,-1.220703,2.990723,14.038086
12356,-0.020752,-0.182739,1.000977,-0.915527,2.929688,14.160156
12366,0.011108,-0.162720,1.024658,-1.281738,3.906250,14.343262
12376,-0.029419,-0.241089,1.002075,-1.098633,1.403809,13.916016
12386,0.051636,-0.155884,1.033936,-1.037598,1.525879,13.488770
12397,-0.013062,-0.155151,0.987549,-0.427246,1.098633,12.573242
12406,-0.003418,-0.097778,0.988525,-0.915527,0.610352,11.352539
12415,-0.016602,-0.093506,0.939087,-1.342773,0.427246,11.291504
12426,0.033325,-0.064941,1.066162,-1.281738,0.793457,10.620117
12436,0.031006,-0.137207,1.005249,-1.220703,0.122070,10.253906
12446,0.057861,-0.146484,1.020752,-1.525879,-0.366211,10.192871
12457,0.061646,-0.124146,1.042114,-1.037598,-0.854492,10.192871
12467,0.069580,-0.115356,1.017334,-1.281738,-1.281738,9.704590
12477,0.020142,-0.174927,0.987915,-1.708984,-3.540039,9.521484
12486,-0.012817,-0.148560,0.970215,-1.464844,-2.075195,8.666992
12496,-0.028809,-0.103149,0.973389,-1.586914,-1.037598,8.361816
12505,-0.018066,-0.135376,0.948120,-1.464844,-1.892090,8.117676
12516,-0.008057,-0.143311,0.993042,-1.342773,-3.417969,7.568359
12525,-0.021240,-0.231445,0.990234,-0.793457,0.366211,6.958008
12538,-0.011719,-0.093750,1.005127,-1.708984,-1.708984,5.554199
12547,-0.014160,-0.095947,0.985229,-1.464844,-2.319336,5.493164
12557,0.008667,-0.157471,1.002197,-1.281738,-2.685547,5.615234
12566,-0.027588,-0.220337,0.963867,-1.342773,-2.258301,5.432129
12576,-0.016724,-0.169556,0.998047,-1.953125,-2.868652,5.310059
12585,-0.010132,-0.114380,1.002075,-2.258301,-1.770020,5.310059
12596,0.005371,-0.152832,0.978394,-1.892090,-2.868652,4.333496
12607,-0.044800,-0.223022,0.967041,-1.586914,-2.075195,2.807617
12617,-0.036133,-0.162476,1.003540,-2.319336,-4.028320,1.708984
12626,-0.038818,-0.174805,0.994141,-1.831055,-3.173828,0.549316
12636,-0.009033,-0.207275,1.002808,-1.342773,-3.051758,-0.305176
12646,-0.013550,-0.229980,0.978638,-1.220703,-2.563477,-0.488281
12656,-0.030396,-0.174316,1.002563,-1.708984,-2.929688,-0.732422
12665,-0.027100,-0.139893,1.005005,-1.525879,-2.929688,-0.732422
12677,-0.000854,-0.254517,1.011475,-1.281738,-2.685547,0.183105
12686,-0.018066,-0.258789,0.960815,-1.037598,-1.892090,0.488281
12696,-0.029175,-0.144043,0.974976,-1.525879,-2.807617,0.793457
12705,-0.006714,-0.159424,0.964111,-1.525879,-2.868652,1.037598
12716,-0.000244,-0.231445,1.012817,-1.342773,-3.051758,1.342773
12726,-0.005127,-0.230713,1.005127,-1.464844,-2.868652,1.770020
12736,-0.015015,-0.151489,1.000488,-1.464844,-2.441406,2.319336
12747,-0.017944,-0.233521,0.984375,-0.976562,-2.990723,3.112793
12757,-0.020508,-0.228394,0.993530,-1.220703,-2.502441,3.173828
12767,-0.026611,-0.173706,0.973633,-1.342773,-2.075195,3.295898
12776,-0.032715,-0.170410,0.975464,-1.159668,-2.563477,3.356934
12786,-0.017944,-0.226562,0.995972,-1.037598,-2.075195,3.234863
12796,-0.031250,-0.217896,1.032349,-1.037598,-2.685547,3.479004
12806,-0.032715,-0.182251,1.018677,-1.098633,-3.234863,3.662109
12816,-0.036987,-0.159790,0.977539,-0.915527,-2.441406,3.845215
12826,-0.038940,-0.245728,0.995850,-1.159668,-2.624512,3.723145
12836,-0.051758,-0.190674,1.000488,-1.159668,-2.868652,3.356934
12846,-0.041138,-0.196167,0.992187,-1.098633,-2.563477,2.746582
12856,-0.069214,-0.239990,0.986938,-0.732422,-2.502441,2.075195
12866,-0.050293,-0.242065,0.955811,-1.098633,-2.868652,0.915527
12875,-0.070679,-0.184326,0.956543,-1.220703,-2.441406,-0.122070
12887,-0.030762,-0.250244,1.007080,-1.342773,-2.624512,-2.014160
12897,-0.002686,-0.233276,1.000366,-1.159668,-2.441406,-2.990723
12906,0.003174,-0.209229,1.017822,-1.220703,-2.624512,-3.601074
12916,0.015869,-0.244873,0.981201,-0.915527,-3.417969,-4.394531
12926,0.006836,-0.227905,0.981323,-0.976562,-3.601074,-5.065918
12936,-0.010010,-0.209106,0.992432,-1.037598,-4.211426,-5.310059
12946,-0.012451,-0.269409,0.962769,-0.915527,-4.089355,-5.920410
12956,-0.028076,-0.251587,1.001099,-0.793457,-3.540039,-6.347656
12965,-0.048950,-0.293213,0.965698,-0.488281,-3.356934,-6.591797
12976,-0.037720,-0.291870,0.984985,-0.366211,-3.479004,-6.896973
12986,-0.036133,-0.291016,0.932373,-0.549316,-3.295898,-7.080078
12996,-0.042725,-0.266602,0.986206,-0.793457,-3.356934,-7.019043
13006,-0.033569,-0.276367,0.997314,-0.610352,-2.868652,-6.896973
13016,-0.018555,-0.258911,0.980957,-0.732422,-2.990723,-6.652832
13025,-0.022217,-0.242920,1.005005,-0.549316,-2.746582,-6.347656
13036,-0.031616,-0.272949,0.930420,-0.671387,-2.319336,-6.225586
13046,-0.052734,-0.218872,0.986328,-0.915527,-2.624512,-6.225586
13056,-0.052612,-0.210083,0.997314,-0.915527,-2.502441,-6.408691
13066,-0.042725,-0.207275,0.974365,-0.854492,-1.953125,-6.347656
13076,-0.041138,-0.220459,0.995239,-0.732422,-2.319336,-6.347656
13086,-0.022949,-0.232544,0.972046,-0.732422,-2.319336,-6.347656
13098,-0.045166,-0.202637,0.974243,-1.037598,-1.525879,-5.615234
13107,-0.049805,-0.204956,0.977539,-0.854492,-1.342773,-5.432129
13117,-0.053223,-0.211792,0.952515,-1.037598,-1.342773,-5.432129
13127,-0.036499,-0.197021,0.965698,-0.854492,-1.342773,-5.676270
13136,-0.040405,-0.175781,0.980957,-1.098633,-1.708984,-5.737305
13146,-0.029907,-0.223755,0.974731,-1.342773,-1.586914,-5.859375
13156,-0.026733,-0.230103,0.996216,-1.403809,-1.098633,-6.042480
13166,-0.037231,-0.172607,1.025269,-1.037598,-1.281738,-6.042480
13176,-0.000977,-0.224609,0.971069,-0.671387,-0.610352,-5.798340
13186,-0.037476,-0.227905,0.949341,-0.671387,-0.366211,-5.493164
13196,-0.052490,-0.182373,0.996826,-0.976562,-0.488281,-5.493164
13206,-0.077148,-0.197021,0.956421,-1.159668,-0.549316,-5.249023
13216,-0.068604,-0.212891,0.961304,-1.159668,-0.305176,-5.065918
13228,-0.069946,-0.175171,0.960571,-1.281738,0.122070,-4.150391
13238,-0.075195,-0.179565,0.978516,-1.586914,0.549316,-3.601074
13248,-0.077515,-0.148071,1.009521,-1.770020,0.671387,-2.990723
13257,-0.085693,-0.148804,0.999390,-1.708984,0.732422,-2.441406
13267,-0.085815,-0.172974,0.991943,-1.770020,1.220703,-1.770020
13277,-0.092773,-0.167358,0.990234,-1.586914,1.220703,-0.976562
13286,-0.126465,-0.205078,0.991333,-1.281738,1.403809,-0.244141
13296,-0.117554,-0.166382,1.002808,-1.037598,2.075195,0.732422
13307,-0.129639,-0.225586,0.983154,-1.525879,3.417969,3.051758
13317,-0.142700,-0.185913,0.976807,-1.403809,3.479004,4.394531
13327,-0.163330,-0.182617,0.975098,-1.281738,4.577637,5.737305
13336,-0.163330,-0.212280,0.986938,-1.281738,4.882812,6.958008
13347,-0.170288,-0.264648,0.937622,-1.037598,5.920410,7.873535
13356,-0.142456,-0.170288,0.994751,-1.220703,6.225586,8.605957
13369,-0.088257,-0.206909,0.993408,-0.915527,6.713867,9.582520
13378,-0.063232,-0.107666,1.038574,-1.220703,6.652832,9.582520
13388,-0.035889,-0.140747,1.032837,-0.793457,7.324219,9.887695
13397,-0.045898,-0.167358,0.966064,-0.732422,7.202148,10.009766
13407,-0.027710,-0.151245,0.975098,-0.671387,6.652832,10.192871
13416,-0.049438,-0.070190,0.983765,-0.854492,6.591797,10.498047
13426,-0.018188,-0.109009,0.967285,-0.854492,6.530762,10.864258
13439,-0.033447,-0.135986,0.974487,-1.281738,6.530762,11.657715
13448,-0.031616,-0.107178,0.965454,-1.403809,6.896973,12.329102
13458,-0.015137,-0.067749,1.005005,-1.892090,6.286621,12.634277
13467,-0.007080,-0.105103,1.007324,-1.770020,6.408691,12.329102
13477,-0.074097,-0.052734,0.989502,-2.075195,6.225586,12.145996
13486,-0.053711,-0.101807,0.979248,-2.014160,5.859375,11.840820
13497,-0.075806,-0.122070,0.935669,-2.136230,5.615234,11.291504
13506,-0.021362,-0.145386,0.956909,-2.197266,5.371094,9.643555
13516,-0.030762,-0.128906,0.974854,-2.075195,5.187988,8.789063
13526,-0.051025,-0.191406,0.870361,-1.892090,4.882812,7.934570
13536,0.000977,-0.165039,0.906738,-2.624512,4.943848,7.080078
13546,-0.006714,-0.089722,1.031494,-3.417969,4.821777,6.713867
13556,0.010742,-0.050171,1.109985,-3.234863,4.333496,5.859375
13566,-0.024902,-0.176758,1.065308,-2.319336,4.333496,5.249023
13576,-0.038452,-0.213867,1.008911,-1.953125,4.272461,4.760742
13587,-0.003662,0.007690,1.141357,-2.624512,4.089355,4.943848
13597,0.007446,-0.044678,1.073120,-1.831055,4.699707,5.432129
13606,0.063232,-0.233276,0.955200,-0.366211,4.638672,5.676270
13617,0.072998,-0.207886,0.993164,-0.305176,4.760742,5.554199
13626,0.084717,-0.196045,1.025024,-0.488281,4.333496,5.126953
13637,0.074707,-0.114990,1.015503,-0.488281,3.051758,4.272461
13646,-0.100342,-0.063354,0.989014,-0.488281,3.112793,1.953125
13658,-0.009033,-0.205078,0.926514,-0.732422,3.356934,0.976562
13668,-0.046143,-0.173218,0.962891,-0.854492,3.173828,-0.610352
13677,-0.041138,-0.059692,1.020752,-1.342773,2.807617,-2.502441
13687,-0.100220,-0.129272,1.006104,-1.708984,2.563477,-3.906250
13697,-0.086304,-0.104004,1.016113,-1.708984,3.051758,-5.676270
13707,-0.083252,-0.165649,0.974854,-1.647949,2.929688,-6.896973
13716,-0.057007,-0.122559,0.990356,-1.586914,3.662109,-7.751465
13726,-0.032227,-0.078857,0.998169,-1.403809,3.967285,-7.690430
13737,0.028198,-0.100342,0.932617,-1.403809,4.272461,-7.446289
13746,0.061401,-0.156738,0.926880,-1.403809,4.577637,-7.202148
13757,0.098755,-0.167969,0.909424,-1.831055,3.662109,-6.774902
13766,0.087769,-0.219604,0.934692,-2.014160,3.662109,-6.042480
13776,0.068481,-0.128906,0.959473,-2.319336,3.356934,-5.371094
13789,-0.024170,-0.179443,1.004883,-1.831055,4.882812,-4.211426
13798,-0.061768,-0.156372,1.001221,-1.647949,5.126953,-4.577637
13808,-0.058716,-0.208252,1.014893,-1.281738,5.065918,-5.310059
13818,-0.035767,-0.195190,0.983765,-1.281738,5.310059,-5.859375
13828,-0.041138,-0.245239,0.963867,-1.403809,5.554199,-5.676270
13837,-0.002563,-0.177734,0.971680,-1.647949,5.615234,-5.554199
13847,0.014771,-0.103394,0.963745,-1.464844,5.493164,-4.943848
13856,0.049683,-0.135010,0.956787,-1.403809,5.676270,-3.540039
13866,0.046997,-0.171997,0.918579,-1.342773,5.615234,-3.112793
13876,0.045410,-0.143433,0.942017,-1.525879,6.103516,-2.502441
13887,0.001099,-0.156738,1.008545,-1.403809,5.981445,-1.586914
13896,-0.002686,-0.111694,1.081787,-1.586914,6.591797,-1.037598
13907,-0.019897,-0.155884,1.091919,-1.403809,6.774902,0.061035
13917,-0.000122,-0.175903,1.064331,-1.098633,7.263184,1.159668
13926,-0.020508,-0.162964,1.017944,-0.732422,7.568359,3.601074
13936,-0.005249,-0.161865,0.977783,-1.342773,7.507324,5.126953
13947,0.000488,-0.102783,1.004395,-1.586914,7.751465,6.469727
13957,-0.003662,-0.109497,1.023926,-1.220703,8.544922,8.605957
13966,0.013794,-0.154419,1.011841,-0.976562,9.277344,10.559082
13977,0.003662,-0.137451,0.993774,-0.671387,9.765625,12.512207
13986,-0.002197,-0.148315,0.979858,-0.488281,9.521484,14.465332
13997,-0.025024,-0.162354,0.938599,-0.488281,9.704590,17.700195
14007,-0.020386,-0.155396,0.887207,-0.671387,10.009766,19.470215
14016,-0.054077,-0.114990,0.852173,-1.037598,9.765625,21.179199
14027,-0.086792,-0.113770,0.935791,-1.281738,9.887695,22.644043
14036,-0.120728,-0.147461,1.031860,-1.647949,9.826660,23.925781
14047,-0.099609,-0.160156,1.183838,-2.197266,11.413574,25.451660
14056,-0.068115,-0.125488,1.250366,-2.441406,12.878418,26.916504
14066,-0.002808,-0.115601,1.148071,-2.136230,13.793945,27.648926
14077,0.071899,-0.242310,0.789307,-0.854492,12.268066,26.733398
14087,0.096802,-0.258057,0.766724,-0.854492,9.704590,25.756836
14096,0.112793,-0.136230,0.931274,-0.732422,9.216309,25.756836
14107,0.074097,-0.120605,1.071655,-0.427246,8.300781,26.672363
14116,0.084595,-0.332642,1.068115,0.732422,8.422852,26.794434
14127,0.018799,-0.378784,0.968506,0.671387,8.117676,26.611328
14136,0.026855,-0.280518,0.877930,-0.488281,7.873535,25.756836
14148,-0.008667,-0.160645,0.958984,-0.976562,7.507324,25.024414
14157,0.015381,-0.193481,0.944702,-1.037598,7.812500,24.658203
14167,0.092041,-0.189941,0.967407,-1.586914,7.507324,24.719238
14176,0.086426,-0.230103,1.004517,-2.319336,6.896973,25.146484
14187,0.019775,-0.106689,1.011353,-2.563477,6.286621,25.024414
14196,0.013184,-0.093384,1.049194,-2.319336,5.065918,24.108887
14206,-0.019165,-0.185913,1.055054,-2.014160,5.126953,22.338867
14218,0.005371,-0.147827,1.099731,-1.770020,5.737305,21.728516
14227,0.018555,-0.091675,1.100464,-1.464844,6.347656,21.606445
14237,0.020142,-0.113525,1.052612,-0.793457,6.286621,21.118164
14246,0.060303,-0.122925,1.007690,-0.488281,5.615234,20.385742
14257,0.132568,-0.162476,0.960449,-0.305176,5.065918,19.958496
14266,0.161621,-0.119873,1.032471,-0.488281,4.272461,19.714355
14279,0.175415,-0.118408,1.021484,-0.183105,2.746582,18.981934
14288,0.153809,-0.140991,1.008911,0.122070,2.197266,18.310547
14298,0.124390,-0.222900,0.978149,0.549316,1.953125,17.822266
14307,0.107422,-0.192505,0.976685,0.549316,1.586914,17.211914
14316,0.109131,-0.208252,0.973389,0.549316,1.159668,16.540527
14326,0.106689,-0.225098,0.942383,0.732422,0.915527,16.113281
14337,0.125244,-0.249023,0.912476,0.915527,-0.061035,15.319824
14347,0.131958,-0.287476,0.900146,0.427246,-1.525879,13.427734
14356,0.106812,-0.231445,0.948730,0.122070,-1.708984,12.268066
14367,0.119507,-0.185059,0.947876,0.061035,-1.892090,11.108398
14376,0.137207,-0.119873,1.027466,-0.061035,-2.929688,9.643555
14386,0.112183,-0.155640,1.016724,0.000000,-3.234863,7.873535
14396,0.104736,-0.154541,1.029053,-0.061035,-3.356934,6.469727
14406,0.091675,-0.124634,0.997437,-0.244141,-4.089355,5.065918
14419,0.091797,-0.101196,0.916748,-0.793457,-4.821777,2.990723
14428,0.100098,-0.055054,0.920898,-1.159668,-4.150391,2.990723
14438,0.080322,-0.087402,0.946289,-1.220703,-4.150391,2.868652
14447,0.077148,-0.030640,1.015015,-1.464844,-4.455566,2.807617
14457,0.064941,-0.064209,1.061279,-1.281738,-3.784180,2.990723
14466,0.054810,-0.065063,1.064087,-1.708984,-4.150391,2.929688
14476,0.047241,-0.006592,1.066650,-1.831055,-4.028320,2.624512
14486,0.032471,-0.038452,1.040527,-1.586914,-3.845215,2.807617
14498,0.060669,-0.007324,1.006836,-1.770020,-3.356934,3.234863
14507,0.133057,-0.014282,1.022949,-1.464844,-3.173828,3.967285
14517,0.068359,-0.016846,1.089844,-1.647949,-3.051758,4.699707
14526,0.022095,0.004272,1.076050,-1.525879,-2.746582,5.981445
14536,0.041626,-0.126587,0.996826,-0.671387,-1.892090,6.591797
14546,0.113281,-0.123413,1.016846,-0.244141,-1.770020,7.446289
14556,0.204102,-0.152832,0.958740,-15.625000,-2.624512,8.300781
14566,0.144043,-0.180542,0.954468,-0.976562,-3.662109,8.789063
14577,0.043335,-0.146240,0.969849,-1.708984,-3.967285,9.399414
14586,0.079956,-0.096558,0.982178,-1.647949,-3.356934,10.131836
14596,0.053711,-0.073364,0.909912,-1.708984,-2.380371,11.291504
14607,0.012939,-0.120361,0.871704,-1.770020,-2.685547,12.878418
14617,-0.017700,-0.182983,0.996094,-1.525879,-2.502441,13.854980
14626,0.028198,-0.181519,1.057617,-1.586914,-2.990723,15.014648
14636,0.069702,-0.146606,1.058105,-0.793457,-2.014160,16.845703
14647,0.083008,-0.174194,0.972778,-0.122070,-1.708984,17.822266
14656,0.030273,-0.212158,0.979004,0.671387,-2.258301,18.249512
14666,-0.009888,-0.202026,0.975586,0.610352,-2.563477,18.432617
14676,-0.009277,-0.184082,1.003784,0.244141,-2.197266,18.310547
14687,-0.002563,-0.086304,0.997559,-0.305176,-1.953125,18.493652
14697,-0.002075,-0.089355,0.987671,-0.183105,-2.624512,19.653320
14706,0.025024,-0.118042,0.998291,-0.488281,-2.075195,20.812988
14717,0.026611,-0.140381,0.978394,-0.854492,-1.831055,21.850586
14726,0.006958,-0.120117,0.991943,-1.281738,-1.464844,22.521973
14736,0.024780,-0.043945,1.005493,-1.770020,-1.586914,22.705078
14746,-0.031128,-0.164062,0.945068,-1.708984,-1.892090,22.277832
14756,-0.001587,-0.169556,0.963867,-2.197266,-2.075195,21.545410
14769,0.043457,-0.123657,1.026123,-2.685547,-3.173828,19.592285
14778,0.080933,-0.154419,0.995972,-2.502441,-3.845215,18.615723
14788,0.104858,-0.090088,1.008667,-2.380371,-4.394531,17.700195
14798,0.159180,-0.145752,1.003418,-2.197266,-4.882812,17.089844
14807,0.162964,-0.211914,0.971680,-2.441406,-5.065918,16.723633
14817,0.179810,-0.104492,1.004272,-2.319336,-5.554199,16.662598
14826,0.154907,-0.170532,0.997314,-2.197266,-6.469727,16.540527
14839,0.058960,-0.127441,1.011353,-1.953125,-6.958008,14.892578
14848,0.041260,-0.190674,1.013672,-1.464844,-7.629395,13.244629
14858,0.009277,-0.193359,1.031250,-1.037598,-7.995605,11.047363
14868,0.033691,-0.197021,1.041748,-0.549316,-8.239746,9.216309
14877,0.001953,-0.242187,0.968872,-0.183105,-9.582520,7.507324
14887,0.035522,-0.245239,0.934326,0.061035,-9.094238,5.859375
14896,0.001587,-0.249878,0.909668,0.122070,-8.850098,4.394531
14909,0.026733,-0.226196,0.953247,-0.183105,-8.178711,1.953125
14918,0.058594,-0.160889,0.989380,-0.366211,-8.605957,1.464844
14928,0.057739,-0.197632,0.980469,-0.305176,-8.605957,0.427246
14937,0.053467,-0.223389,0.966064,0.000000,-8.911133,-0.976562
14947,0.056274,-0.240479,1.001343,-0.183105,-9.277344,-2.197266
14956,0.043213,-0.237061,0.968018,-0.305176,-9.521484,-3.662109
14966,0.030396,-0.267578,0.928345,-0.427246,-8.850098,-5.187988
14979,-0.009521,-0.190063,0.979614,-1.037598,-9.277344,-6.713867
14988,0.008911,-0.216187,1.038574,-1.220703,-7.873535,-6.896973
14998,-0.003784,-0.196167,1.013428,-1.525879,-7.873535,-6.958008
15008,-0.018677,-0.183960,1.018433,-1.525879,-7.629395,-7.202148
15017,0.032837,-0.142578,1.019043,-1.586914,-7.263184,-7.141113
15027,0.024292,-0.226807,0.934570,-1.464844,-6.835937,-6.958008
15036,0.036011,-0.207520,0.974731,-1.708984,-6.958008,-6.347656
15046,0.030029,-0.105835,1.036011,-1.525879,-5.737305,-4.028320
15058,-0.038452,-0.055054,1.022827,-1.770020,-4.577637,-2.746582
15067,-0.044800,-0.176880,0.960937,-1.586914,-3.967285,-1.525879
15077,-0.052368,-0.227661,0.927734,-1.831055,-3.540039,-0.122070
15087,-0.063110,-0.059570,1.015259,-2.197266,-3.479004,0.854492
15096,-0.066162,-0.043213,1.017944,-2.258301,-2.807617,1.770020
15108,-0.121582,-0.071899,0.987671,-2.441406,-1.464844,4.089355
15118,-0.153442,-0.142212,0.925049,-2.685547,-0.427246,5.310059
15128,-0.110718,-0.140747,0.960571,-2.685547,0.793457,6.896973
15137,-0.124146,-0.115967,1.030396,-2.807617,1.098633,8.056641
15147,-0.114868,-0.095825,1.031372,-2.563477,1.953125,8.850098
15156,-0.096680,-0.083618,0.997437,-2.319336,1.708984,9.460449
15167,-0.072754,-0.087891,0.976807,-2.014160,2.929688,10.009766
15176,-0.086792,-0.033813,0.984863,-1.953125,3.234863,10.864258
15188,-0.113159,-0.132080,1.028809,-1.586914,3.784180,11.962891
15197,-0.124268,-0.099976,1.002686,-1.342773,4.760742,12.084961
15207,-0.116577,-0.104248,1.000000,-1.281738,4.455566,12.329102
15216,-0.105835,-0.040283,1.010986,-0.854492,5.065918,12.817383
15227,-0.081299,-0.056274,1.043579,-0.793457,5.249023,12.939453
15236,-0.067871,-0.119263,1.039429,-0.732422,5.371094,13.122559
15247,-0.058105,-0.078613,0.993774,-0.183105,6.164551,13.610840
15256,-0.019287,-0.066162,0.967407,0.061035,6.103516,15.319824
15268,0.037964,-0.125854,0.908203,0.427246,6.286621,16.540527
15277,0.041016,-0.127563,1.004395,-0.183105,6.469727,17.395020
15286,0.033081,-0.059570,0.968872,-0.549316,6.347656,18.127441
15297,0.012817,-0.123291,0.950562,-0.366211,6.591797,18.554687
15307,0.052490,-0.180054,0.982544,-0.549316,6.591797,18.737793
15317,0.044556,-0.176147,0.992432,-1.159668,5.493164,18.432617
15328,0.041138,-0.049438,1.102417,-1.586914,5.065918,17.089844
15337,0.007813,-0.155518,1.045776,-1.342773,4.150391,15.563965
15347,0.024658,-0.245605,1.006592,-1.281738,3.906250,14.282227
15357,-0.063110,-0.230835,0.934814,-1.098633,3.662109,13.488770
15367,0.024048,-0.212402,0.951294,-0.732422,3.784180,12.756348
15377,0.084473,-0.096436,1.030762,-0.915527,3.845215,11.901855
15387,0.077271,-0.081909,1.033936,-0.610352,3.967285,11.352539
15398,0.036621,-0.239746,0.938721,-0.549316,3.295898,9.155273
15408,0.056396,-0.237061,0.922729,-0.244141,2.075195,7.629395
15417,0.085937,-0.117676,0.971069,-0.244141,0.732422,5.981445
15427,0.124756,-0.089844,1.010376,0.000000,1.464844,4.760742
15436,0.089355,-0.177368,0.958618,-0.183105,1.159668,4.028320
15447,0.106812,-0.191528,0.992920,-0.244141,1.037598,3.540039
15456,0.111206,-0.198242,0.993286,0.061035,0.732422,3.173828
15469,0.116089,-0.101074,1.014648,0.427246,0.671387,2.319336
15478,0.104370,-0.131836,1.000732,0.488281,0.305176,1.647949
15487,0.084595,-0.136841,0.960815,0.610352,-0.366211,0.793457
15497,0.091187,-0.127197,0.932739,0.183105,-1.098633,0.244141
15507,0.113892,-0.124146,0.962280,0.061035,-0.976562,0.122070
15517,0.127686,-0.080688,0.940063,-0.366211,-0.793457,0.000000
15526,0.107300,-0.124268,1.002319,-0.549316,-0.854492,0.732422
15538,0.077026,-0.108154,1.064331,-0.488281,-1.098633,1.342773
15547,0.078003,-0.106812,0.997437,-0.244141,-1.037598,1.831055
15557,0.107544,-0.128174,0.973267,-0.610352,-0.671387,2.258301
15567,0.112915,-0.169189,0.979858,-0.610352,-0.427246,2.685547
15576,0.088257,-0.154297,0.926392,-0.793457,-0.732422,3.234863
15587,0.051392,-0.149536,0.985962,-1.220703,-1.342773,3.662109
15597,0.045044,-0.142822,0.935791,-1.403809,-1.037598,4.333496
15606,0.045532,-0.175537,0.965820,-1.464844,-0.366211,5.798340
15618,0.005371,-0.188843,1.016113,-1.403809,-0.610352,6.347656
15627,0.009399,-0.203247,0.998291,-1.586914,-0.610352,6.530762
15637,-0.027222,-0.207153,0.938721,-1.586914,0.061035,6.835937
15646,0.020874,-0.213379,0.937134,-2.014160,0.427246,7.385254
15657,0.008179,-0.162964,0.953247,-2.136230,0.549316,7.080078
15668,-0.005859,-0.130493,1.039673,-2.624512,0.183105,6.652832
15678,-0.001831,-0.147827,1.001953,-2.868652,0.732422,6.469727
15687,0.032349,-0.116699,1.006226,-2.746582,1.403809,6.835937
15697,0.036987,-0.107178,1.030640,-2.441406,1.892090,7.324219
15707,0.028687,-0.163330,0.967529,-2.319336,1.647949,7.446289
15717,0.018188,-0.177979,0.995972,-2.319336,1.464844,7.629395
15727,0.033081,-0.098511,0.971069,-2.258301,1.647949,7.995605
15737,0.065552,-0.123657,1.014282,-2.258301,1.220703,8.728027
15748,0.012573,-0.143188,1.048950,-1.708984,1.770020,10.253906
15758,0.007202,-0.093140,1.069458,-1.586914,1.525879,10.864258
15767,0.001709,-0.146240,0.986572,-0.976562,2.380371,11.474609
15777,0.015869,-0.193115,0.983643,-0.854492,1.953125,11.718750
15788,0.067505,-0.163696,0.990723,-0.732422,2.319336,11.657715
15797,0.002441,-0.167847,0.998535,-0.976562,1.770020,11.657715
15807,0.007935,-0.156860,0.983276,-1.098633,1.586914,11.474609
15818,0.012695,-0.157104,1.011841,-0.732422,1.403809,11.352539
15828,0.026733,-0.216064,0.990234,-0.488281,2.319336,11.657715
15837,0.021484,-0.215942,0.974121,-0.671387,1.708984,11.840820
15847,0.050537,-0.150269,1.005981,-0.488281,1.892090,11.840820
15857,0.062866,-0.159912,0.996338,-0.671387,1.159668,11.962891
15867,0.138428,-0.136597,1.057861,-0.427246,1.159668,11.718750
15877,0.098389,-0.151001,1.078491,-0.061035,0.549316,11.352539
15888,0.099854,-0.294556,0.885132,-0.610352,-0.305176,9.216309
15898,0.148560,-0.160034,0.931641,-1.220703,-0.671387,8.117676
15908,0.153320,-0.082764,0.910034,-1.464844,-1.037598,7.446289
15917,0.153687,-0.112915,0.884277,-1.708984,-1.831055,7.141113
15927,0.105225,-0.141479,0.911743,-2.136230,-2.258301,7.141113
15936,0.128052,-0.041504,0.927368,-2.685547,-2.441406,7.324219
15948,0.130859,-0.030273,0.934204,-3.112793,-1.586914,7.507324
15958,0.089111,-0.016479,0.984131,-3.295898,-2.075195,7.507324
15967,0.105225,0.020752,1.019531,-3.417969,-2.746582,7.080078
15977,0.079468,-0.055420,1.015625,-3.051758,-3.295898,6.469727
15987,0.061523,-0.027344,1.044189,-2.868652,-2.868652,6.042480
15997,0.066162,-0.005981,1.089355,-2.746582,-2.502441,5.737305
16007,0.030273,-0.072998,1.035156,-2.563477,-3.356934,5.249023
16017,0.018188,-0.119019,0.915527,-2.258301,-3.601074,5.432129
16028,0.038330,-0.044678,0.939941,-2.136230,-2.929688,5.859375
16038,0.020996,-0.090332,0.921143,-2.563477,-2.441406,5.798340
16048,0.036011,-0.089478,0.976440,-2.258301,-2.014160,5.676270
16057,0.032959,-0.087524,1.027466,-2.380371,-1.953125,5.065918
16067,0.023804,-0.125732,1.001587,-2.685547,-2.685547,4.577637
16077,0.006470,-0.126953,1.011841,-1.953125,-2.746582,4.089355
16087,0.008667,-0.126465,1.052856,-1.281738,-2.685547,3.967285
16099,0.023193,-0.175659,0.956543,-0.732422,-2.136230,4.943848
16108,0.043213,-0.077271,1.009155,-0.366211,-1.892090,5.798340
16117,0.033936,-0.172852,0.946289,0.000000,-1.953125,7.141113
16127,0.066772,-0.146729,1.003296,-0.305176,-1.770020,8.666992
16137,0.096680,-0.101074,1.098877,-0.549316,-1.586914,10.253906
16147,0.096680,-0.188721,0.985962,-0.549316,-1.098633,11.962891
16159,0.113403,-0.171997,1.027710,-1.098633,-1.464844,14.343262
16168,0.053833,-0.110718,1.069702,-1.281738,-1.403809,14.953613
16177,0.005005,-0.085205,1.115479,-1.281738,-1.708984,15.380859
16187,-0.003174,-0.023560,1.078247,-1.464844,-1.770020,15.991211
16198,-0.023560,-0.097412,0.994507,-1.281738,-1.525879,16.784668
16207,-0.014526,-0.102173,0.995239,-1.647949,-1.220703,17.272949
16218,0.012573,-0.061890,1.034912,-1.892090,-1.525879,17.639160
16227,0.095825,-0.106445,1.026245,-2.197266,-1.647949,18.188477
16238,0.094604,-0.074463,1.029053,-2.136230,-2.624512,19.104004
16248,0.011230,-0.091919,0.989502,-1.953125,-3.356934,19.470215
16257,0.011597,-0.130615,1.029663,-1.586914,-3.173828,19.042969
16267,0.006470,-0.127686,1.048706,-1.281738,-3.173828,18.676758
16277,0.014648,-0.187134,0.998901,-0.732422,-3.234863,17.944336
16288,-0.031860,-0.153320,0.989014,-0.366211,-3.662109,17.333984
16297,0.010620,-0.156982,0.978760,0.305176,-4.699707,16.540527
16309,-0.001221,-0.165894,0.906738,1.281738,-4.211426,15.991211
16318,0.001953,-0.236572,0.914551,1.464844,-4.394531,15.136719
16328,-0.040649,-0.196777,0.912354,1.281738,-4.333496,14.404297
16337,-0.022827,-0.191895,0.968384,1.647949,-4.699707,12.939453
16348,0.003784,-0.247192,0.954834,2.014160,-4.821777,11.291504
16357,-0.003540,-0.216431,0.914429,2.075195,-5.432129,9.582520
16367,0.026489,-0.252686,0.893555,1.953125,-6.164551,7.568359
16377,0.019409,-0.276123,0.868652,1.647949,-6.469727,4.882812
16388,0.081787,-0.177734,0.922363,1.037598,-6.469727,3.967285
16397,0.058838,-0.190186,0.934692,0.915527,-6.408691,3.295898
16408,0.106812,-0.209229,0.939941,0.793457,-6.347656,2.807617
16417,0.097778,-0.176147,1.021851,0.732422,-6.713867,1.892090
16428,0.098511,-0.185547,0.984253,0.488281,-7.446289,1.220703
16437,0.084106,-0.113159,1.081665,0.427246,-7.690430,0.976562
16448,0.034912,-0.229614,0.942505,0.549316,-7.080078,1.525879
16458,0.071289,-0.116821,0.995117,0.000000,-6.774902,1.831055
16467,0.044678,-0.162109,0.963135,-0.427246,-6.774902,2.197266
16478,0.061035,-0.085083,1.009888,-0.854492,-6.835937,2.807617
16487,0.041504,-0.097900,0.967041,-1.281738,-6.713867,2.990723
16498,-0.016602,-0.050415,1.021118,-1.708984,-6.469727,3.295898
16507,0.024292,-0.052490,1.053589,-1.831055,-6.164551,3.356934
16519,-0.005493,-0.060913,1.067139,-1.770020,-5.432129,3.356934
16529,-0.047974,-0.114014,1.011841,-2.136230,-5.554199,3.051758
16538,-0.054321,-0.099854,1.017944,-2.502441,-5.798340,2.868652
16548,-0.061646,0.003540,1.024292,-2.807617,-5.737305,2.502441
16557,-0.059692,-0.070068,0.977173,-2.563477,-5.798340,2.441406
16567,-0.081421,-0.107910,0.980835,-2.441406,-4.455566,2.868652
16580,-0.076172,-0.076538,0.947876,-3.295898,-3.051758,3.356934
16589,-0.112549,-0.023071,0.999878,-3.356934,-2.624512,3.479004
16599,-0.095581,-0.107666,1.001099,-3.173828,-2.685547,3.295898
16608,-0.081177,-0.072632,1.030396,-2.990723,-2.624512,2.929688
16618,-0.069946,-0.071777,1.020752,-2.685547,-2.319336,2.502441
16627,-0.058472,-0.136475,0.936523,-2.685547,-1.708984,2.136230
16637,-0.068970,-0.027710,0.990723,-3.051758,-1.586914,2.136230
16650,0.007446,-0.015747,1.066528,-2.990723,-0.061035,3.051758
16659,0.012207,-0.023682,1.069214,-2.807617,0.183105,3.417969
16668,0.012817,-0.110107,0.982056,-2.258301,0.061035,3.540039
16678,0.044678,-0.071167,1.013916,-2.258301,0.183105,3.356934
16687,0.085937,-0.131104,0.992798,-2.258301,0.366211,3.662109
16697,0.071411,-0.144653,1.019409,-2.136230,0.122070,3.845215
16708,0.085327,-0.094360,1.042236,-1.953125,-0.244141,3.723145
16717,0.038696,-0.159424,0.987183,-1.525879,-0.610352,3.601074
16727,0.023193,-0.176147,1.010620,-1.098633,-0.183105,3.662109
16738,-0.002197,-0.241455,1.030762,-0.793457,0.000000,3.784180
16747,0.000122,-0.224487,1.054688,-0.549316,-0.061035,3.845215
16757,0.010620,-0.182129,0.967529,0.305176,-0.305176,3.723145
16767,-0.003540,-0.258667,0.967529,0.793457,-0.061035,3.601074
16778,0.017944,-0.210815,0.959106,0.976562,-0.427246,3.295898
16787,-0.057373,-0.220215,0.881592,0.976562,-0.305176,2.258301
16799,-0.005493,-0.158203,0.885254,0.366211,0.610352,2.136230
16809,-0.053345,-0.140259,0.947510,0.000000,0.793457,1.525879
16818,-0.065796,-0.040771,1.026245,-0.305176,1.098633,1.037598
16828,-0.091675,-0.094238,1.013428,0.000000,0.915527,0.244141
16838,-0.050293,-0.076782,0.979614,0.305176,1.159668,-0.732422
16847,-0.047607,-0.167725,0.961426,0.366211,1.281738,-1.342773
16857,0.051636,-0.035034,1.017334,0.244141,1.647949,-0.854492
16869,0.091187,-0.101196,0.947754,0.427246,1.586914,-0.305176
16878,0.126587,-0.124268,0.940552,0.610352,2.136230,0.366211
16887,0.129395,-0.111084,0.896484,0.610352,1.525879,1.525879
16898,0.162109,-0.126709,0.934814,0.122070,2.014160,2.624512
16907,0.115601,-0.133057,0.964478,-0.244141,1.953125,3.173828
16918,0.130127,-0.173950,0.920776,-0.244141,1.464844,3.417969
16928,0.107300,-0.156128,0.945435,-1.770020,0.793457,3.784180
16939,0.020630,-0.095093,1.142212,-2.136230,0.305176,3.479004
16948,-0.010986,-0.093262,1.145630,-1.953125,0.183105,2.624512
16958,-0.006470,-0.151489,1.056030,-1.525879,0.671387,2.075195
16968,-0.001099,-0.227051,0.970337,-0.915527,0.915527,1.892090
16977,0.019897,-0.248413,0.962769,-1.159668,0.976562,2.136230
16987,-0.015869,-0.124634,1.049072,-1.159668,0.854492,2.929688
17000,0.038696,-0.171265,1.003296,-0.915527,1.647949,4.028320
17009,0.022095,-0.255371,0.941650,-1.037598,1.892090,4.272461
17018,0.037231,-0.238281,0.966431,-1.159668,1.708984,3.662109
17028,0.001465,-0.156006,1.000244,-1.342773,1.464844,3.295898
17037,0.020996,-0.237793,0.919922,-1.647949,1.647949,2.136230
17048,-0.029785,-0.222656,0.984009,-1.953125,1.098633,1.342773
17057,-0.020752,-0.220581,0.942139,-2.075195,1.098633,0.549316
17067,-0.026123,-0.143066,1.028198,-2.319336,1.220703,-0.183105
17077,0.003174,-0.140625,0.908203,-2.929688,2.563477,0.000000
17087,0.020996,-0.123779,1.004883,-3.356934,2.685547,0.549316
17098,0.010620,-0.153076,0.982178,-3.601074,2.929688,1.098633
17108,0.035400,-0.021851,0.937744,-3.601074,3.173828,2.075195
17118,0.043823,-0.168335,0.893677,-3.356934,3.601074,3.295898
17128,0.088867,-0.112671,1.015137,-3.479004,3.906250,4.577637
17137,0.035156,-0.128784,0.978394,-3.540039,4.211426,8.422852
17149,0.011841,-0.120483,0.979004,-3.295898,4.577637,9.704590
17158,0.059204,-0.170532,1.012817,-3.051758,4.699707,11.413574
17168,0.020508,-0.088257,1.019653,-3.356934,4.150391,12.756348
17178,0.003662,-0.126099,0.967163,-3.173828,4.455566,13.549805
17188,-0.005005,-0.057129,1.017944,-3.234863,4.272461,14.160156
17197,0.036255,-0.145020,1.040771,-3.173828,4.577637,15.075684
17210,0.003296,-0.057739,0.981445,-3.295898,3.723145,16.662598
17219,0.030518,0.028564,1.075806,-3.295898,3.540039,17.272949
17229,0.049927,-0.062012,1.083862,-2.685547,3.112793,18.005371
17238,0.041992,-0.024902,1.088257,-2.197266,3.601074,18.676758
17248,0.000732,-0.045410,1.058594,-1.586914,3.662109,19.409180
17257,0.006226,-0.011230,1.108398,-0.976562,3.417969,19.470215
17268,0.024292,-0.087402,1.065063,-0.610352,3.234863,19.104004
17277,0.019287,-0.059326,1.053589,15.258789,2.502441,18.005371
17289,0.001099,-0.036377,1.034180,0.427246,2.197266,17.150879
17298,-0.008179,-0.173706,0.955078,0.427246,1.342773,16.479492
17308,0.014160,-0.101196,0.968628,0.244141,1.220703,15.991211
17318,0.018555,-0.168213,0.860962,0.183105,1.159668,15.625000
17328,0.034424,-0.122925,0.971191,-0.305176,1.220703,15.319824
17339,0.048218,-0.137817,0.967041,-1.464844,0.427246,15.319824
17349,0.064331,-0.077637,1.000000,-1.342773,0.488281,15.563965
17358,0.125122,-0.169189,1.047119,-0.488281,0.183105,15.930176
17367,0.134277,-0.104736,1.028442,-0.122070,-0.244141,16.113281
17378,0.147949,-0.094116,1.009766,0.000000,-0.793457,16.357422
17387,0.158447,-0.077148,1.055542,0.549316,-1.647949,16.967773
17398,0.152588,-0.129028,1.068481,1.220703,-2.624512,17.639160
17409,0.107178,-0.107178,1.061523,2.380371,-3.723145,18.432617
17419,0.050537,-0.110718,0.977173,2.685547,-3.662109,18.310547
17428,0.020874,-0.189575,1.072021,2.197266,-3.723145,17.822266
17438,-0.024292,-0.107178,1.002808,2.014160,-3.662109,17.089844
17448,-0.090332,-0.204956,0.935303,2.075195,-4.516602,15.991211
17458,-0.092407,-0.113770,0.947021,1.953125,-4.272461,15.014648
17468,-0.070923,-0.215698,0.998169,1.892090,-4.516602,13.854980
17480,-0.031372,-0.117432,0.991455,1.708984,-4.577637,11.718750
17489,0.038940,-0.102661,1.005005,1.708984,-5.004883,10.620117
17498,0.046143,-0.239868,0.939209,1.770020,-5.065918,9.582520
17508,0.098999,-0.098633,1.024658,1.647949,-5.371094,8.483887
17518,0.110596,-0.250000,0.979492,1.831055,-5.798340,7.507324
17529,0.114136,-0.137329,0.926636,1.647949,-6.530762,6.469727
17538,0.131592,-0.306030,0.831665,1.708984,-6.713867,5.737305
17549,0.176636,-0.210205,0.937012,0.732422,-6.835937,3.662109
17559,0.149536,-0.143066,0.966309,0.244141,-7.751465,2.868652
17569,0.102905,-0.169678,0.978027,-0.061035,-8.911133,2.136230
17579,0.143799,-0.065430,1.040405,-0.488281,-9.826660,1.037598
17588,0.115479,-0.156982,0.990479,-0.671387,-9.826660,0.061035
17598,0.106079,-0.143555,1.010010,-0.732422,-9.582520,-0.427246
17608,0.059570,-0.184814,0.933594,-0.915527,-10.253906,-0.915527
17618,0.080078,-0.119873,1.017822,-1.281738,-10.681152,-0.976562
17630,0.074097,-0.053101,1.101807,-1.281738,-9.460449,-0.427246
17639,0.025513,-0.228760,0.955811,-1.098633,-9.704590,-0.488281
17648,0.029907,-0.091187,1.116943,-1.464844,-9.399414,-0.732422
17658,-0.006470,-0.173340,0.942749,-1.525879,-9.521484,-1.220703
17668,-0.024414,-0.095093,1.054688,-1.647949,-9.704590,-1.953125
17679,-0.039917,-0.244385,0.938110,-1.281738,-9.887695,-2.075195
17688,-0.057495,-0.176147,0.915039,-1.586914,-9.704590,-1.586914
17698,0.007813,-0.141235,0.908325,-2.807617,-8.056641,-0.732422
17708,-0.033325,-0.145508,1.024536,-2.380371,-8.728027,-0.915527
17718,-0.044678,-0.104858,1.095093,-2.075195,-7.751465,-0.671387
17728,-0.061279,-0.176270,1.001343,-1.831055,-7.629395,-0.854492
17738,-0.103638,-0.064453,0.995972,-2.075195,-6.713867,-0.976562
17749,-0.102539,-0.184204,0.935181,-1.831055,-5.859375,-0.976562
17758,-0.098511,-0.065063,1.015991,-2.319336,-5.126953,-0.244141
17768,-0.098145,-0.120117,1.026855,-2.746582,-4.638672,0.244141
17778,-0.052124,-0.064209,1.006836,-2.319336,-3.234863,0.366211
17788,-0.034790,-0.151733,0.930054,-2.258301,-2.868652,0.488281
17798,-0.057861,-0.086426,0.983032,-2.624512,-2.807617,0.122070
17808,-0.050781,-0.046875,1.005981,-2.868652,-3.112793,-0.610352
17818,-0.079712,-0.053955,0.971436,-2.685547,-3.601074,-1.403809
17829,-0.091675,-0.099365,0.910522,-2.624512,-3.234863,-2.075195
17839,-0.052490,-0.031494,0.987915,-2.441406,-1.831055,-2.441406
17849,-0.063110,-0.035400,0.998413,-1.770020,-0.122070,-2.807617
17859,0.006958,-0.021362,1.059692,-2.502441,-0.183105,-2.258301
17869,0.031006,-0.000366,1.091675,-1.708984,-0.732422,-3.051758
17878,0.043579,-0.067993,0.962036,-1.281738,-1.281738,-2.990723
17888,0.047852,-0.080933,0.988159,-0.671387,-0.244141,-3.051758
17898,0.062866,-0.113892,1.004517,-0.366211,0.061035,-2.990723
17909,0.067261,-0.199097,0.842896,-0.671387,14.282227,-2.746582
17919,0.076660,-0.224976,0.860718,-2.014160,-1.403809,-2.380371
17928,0.058716,-0.142212,0.883545,-2.441406,-0.366211,-2.990723
17938,0.033813,-0.177002,0.825684,-3.051758,-1.037598,-3.234863
17948,0.050781,-0.097534,1.034424,-3.295898,-2.258301,-3.540039
17958,0.034180,-0.263062,1.049438,-2.624512,-0.671387,-4.150391
17968,0.012817,-0.084839,1.069092,-2.746582,-1.281738,-5.004883
17979,0.029907,-0.208496,1.076416,-2.258301,-0.183105,-5.981445
17989,0.016113,-0.227051,0.932495,-2.075195,-0.610352,-6.042480
17999,-0.058960,-0.112305,0.991455,-1.525879,-1.037598,-5.920410
18009,-0.069580,-0.098999,0.979980,-1.525879,-0.244141,-4.699707
18018,-0.061523,-0.101440,0.919067,-1.037598,1.281738,-3.784180
18028,-0.037720,-0.156494,0.966309,-1.220703,2.258301,-2.624512
18038,-0.057861,-0.168945,0.978394,-1.281738,2.990723,-1.892090
18050,-0.074463,-0.023560,0.998657,-2.014160,3.112793,-0.305176
18059,-0.081421,-0.045410,1.068970,-1.831055,3.662109,0.061035
18069,-0.077148,-0.150024,1.010986,-2.197266,3.540039,0.732422
18078,-0.010620,0.024658,1.079102,-2.319336,3.540039,1.708984
18088,-0.000977,-0.049683,1.014404,-2.258301,4.516602,2.807617
18098,0.042236,0.020386,1.047852,-1.892090,5.065918,4.089355
18108,0.011475,-0.213257,0.984497,-1.403809,5.065918,5.432129
18119,0.068970,-0.206909,0.953735,-1.831055,4.821777,7.324219
18129,0.052612,-0.041382,1.053833,-2.441406,4.638672,7.934570
18138,0.018555,-0.153198,0.962402,-2.624512,4.455566,8.239746
18148,0.018921,-0.039551,1.007080,-2.258301,4.394531,7.873535
18158,0.023926,-0.236450,0.987915,-1.647949,4.089355,7.324219
18168,-0.022461,-0.137573,1.049561,-1.647949,4.516602,7.263184
18178,-0.006836,-0.180786,1.036987,-1.464844,4.516602,6.652832
18189,0.026245,-0.148560,1.006104,-1.281738,3.479004,5.249023
18199,0.021729,-0.268677,0.990845,-0.671387,3.356934,4.272461
18208,-0.002197,-0.132690,1.037598,-0.732422,3.784180,3.601074
18218,-0.032104,-0.220703,0.949463,-0.915527,3.051758,2.685547
18228,0.027100,-0.173706,0.960571,-1.403809,3.601074,1.525879
18239,-0.007935,-0.294434,0.906616,-1.403809,3.051758,0.488281
18248,0.056519,-0.150635,0.934448,-1.586914,2.563477,-0.915527
18260,0.128906,-0.076416,0.943604,-1.464844,2.136230,-3.051758
18269,0.088623,-0.316162,0.943970,-0.915527,2.624512,-3.540039
18279,0.104614,-0.150635,1.014893,-1.098633,2.441406,-3.662109
18288,0.091553,-0.230103,0.934326,-1.098633,2.563477,-3.540039
18298,0.083130,-0.106934,0.980225,-0.854492,2.868652,-3.112793
18309,0.092041,-0.224609,0.952393,-0.427246,2.868652,-2.380371
18318,0.073242,-0.236084,0.917725,-0.427246,2.441406,0.000000
18329,0.093262,-0.280273,0.927490,-1.098633,2.685547,1.159668
18339,0.109131,-0.046631,0.994995,-1.647949,2.746582,2.319336
18348,0.054687,-0.120850,1.022095,-1.892090,3.173828,3.051758
18358,0.032715,0.005615,1.014160,-2.136230,2.258301,3.234863
18369,0.050781,-0.026611,1.042725,-1.831055,2.685547,3.662109
18378,-0.023193,-0.158691,0.977295,-1.708984,2.563477,4.638672
18388,-0.012451,-0.041504,1.036377,-1.892090,3.112793,5.676270
18399,-0.035156,0.099121,0.996704,-2.197266,4.028320,8.728027
18409,-0.020508,-0.114380,0.963989,-1.892090,4.577637,10.314941
18418,-0.004639,0.002319,0.994141,-2.136230,4.699707,11.657715
18428,-0.024414,-0.120605,0.983398,-2.319336,4.882812,12.817383
18438,0.003662,-0.027344,0.996216,-2.685547,4.943848,13.732910
18448,-0.048828,0.034790,1.078491,-2.746582,5.249023,15.136719
18459,-0.086670,-0.087402,0.966675,-3.173828,4.394531,16.723633
18469,-0.080811,-0.153809,0.970093,-2.502441,5.737305,17.761230
18479,-0.086304,-0.060181,1.040039,-2.136230,6.164551,18.920898
18488,-0.035767,-0.165771,1.004517,-1.831055,5.798340,20.080566
18498,-0.051758,-0.089844,1.006226,-1.831055,5.798340,21.057129
18509,-0.042236,-0.096191,1.009888,-1.708984,5.920410,21.850586
18518,-0.012817,-0.197876,1.015259,-1.586914,5.737305,22.705078
18531,-0.008667,-0.150269,0.992065,-1.647949,5.004883,24.108887
18540,0.004761,0.021606,1.018188,-1.586914,5.432129,25.024414
18549,0.000488,-0.152100,1.000000,-1.281738,5.432129,26.062012
18559,0.044800,-0.171997,1.036499,-1.342773,4.943848,26.977539
18569,0.086182,-0.082397,1.031616,-1.281738,4.760742,27.404785
18578,0.061279,-0.152710,0.968628,-1.403809,3.723145,27.770996
18589,0.067017,-0.102661,1.005371,-1.159668,3.356934,27.587891
18598,0.074951,-0.223511,0.934448,-1.037598,2.624512,25.329590
18609,0.005615,-0.214722,0.881104,-0.976562,1.586914,23.437500
18619,-0.023682,-0.042480,1.017822,-1.525879,-0.183105,22.705078
18629,0.000610,-0.191284,0.954712,-1.037598,-0.183105,20.935059
18638,-0.000854,-0.125732,0.997314,-1.281738,-2.014160,19.958496
18648,0.039429,-0.154785,1.048218,-0.183105,0.000000,18.432617
18659,0.035767,-0.266602,0.886963,-0.549316,-0.305176,17.700195
18668,0.128906,-0.133789,1.038330,-0.915527,-4.516602,14.892578
18678,0.132568,-0.215332,0.895020,-1.098633,-7.568359,13.122559
18688,0.142578,-0.195557,0.991943,-0.427246,-4.943848,11.718750
18699,0.156738,-0.229126,0.950806,-0.244141,-5.554199,10.192871
18708,0.144653,-0.095947,1.034546,-0.671387,-6.713867,8.972168
18718,0.068359,-0.233154,0.887207,-0.122070,-5.859375,6.774902
18729,0.042114,-0.043457,1.057983,-0.671387,-7.080078,5.249023
18738,0.032959,-0.155640,0.999268,-0.732422,-8.178711,2.075195
18750,0.028442,-0.083740,1.029297,0.061035,-7.690430,1.281738
18759,0.006592,-0.229492,0.935303,0.305176,-7.141113,0.366211
18768,0.071045,-0.035889,1.112061,0.244141,-7.385254,-0.122070
18778,0.049805,-0.134399,1.070923,0.549316,-6.958008,-0.061035
18789,-0.000610,-0.279297,0.967529,0.732422,-7.019043,-0.244141
18798,0.028442,-0.169678,1.000977,0.610352,-7.507324,-0.610352
18811,0.016602,-0.061890,0.977661,-0.610352,-6.896973,-0.244141
18820,-0.018188,-0.206665,0.962646,-0.793457,-6.774902,-0.122070
18830,-0.023071,-0.166626,0.970581,-1.220703,-5.859375,0.488281
18840,0.012207,-0.119507,1.011230,-1.586914,-4.882812,0.976562
18849,0.009521,-0.162354,0.981201,-1.892090,-4.699707,1.647949
18859,0.048950,0.031982,1.079956,-1.831055,-4.882812,1.770020
18868,0.005127,-0.189575,1.035889,-1.647949,-4.882812,1.892090
18878,0.039795,-0.117554,0.976318,-1.953125,-4.211426,2.746582
18890,-0.040161,-0.212769,0.876709,-1.220703,-3.417969,3.112793
18900,-0.039917,-0.070557,0.987427,-1.525879,-3.723145,3.845215
18909,-0.057373,-0.114502,0.929932,-1.770020,-3.967285,4.028320
18919,-0.071411,-0.005371,0.921997,-1.953125,-2.685547,3.723145
18928,-0.053345,0.000610,1.034180,-2.197266,-3.295898,4.089355
18938,-0.027954,-0.099487,0.995117,-2.014160,-2.868652,4.150391
18949,-0.034424,-0.007935,1.055908,-1.953125,-2.868652,3.662109
18959,-0.058105,0.001587,1.000977,-1.647949,-2.197266,3.540039
18969,-0.024536,-0.074829,1.010132,-0.976562,-1.892090,3.479004
18978,-0.011963,-0.170044,0.867310,-0.610352,-1.708984,3.112793
18988,0.013062,-0.101563,0.919678,-0.854492,-2.441406,2.746582
18998,0.017456,-0.223511,0.834839,-1.342773,-1.708984,2.746582
19008,0.017822,-0.162476,0.878906,-1.831055,-1.525879,3.051758
19018,0.000366,-0.098999,0.910767,-2.929688,-0.915527,3.295898
19029,-0.031982,-0.026733,1.000610,-3.601074,-0.305176,3.784180
19039,0.007324,-0.139893,0.968872,-2.990723,0.183105,4.577637
19048,-0.005615,-0.090454,0.996094,-2.868652,-0.244141,5.249023
19058,0.017578,-0.126343,0.978882,-2.990723,-0.061035,5.737305
19069,-0.043335,-0.038452,1.031982,-3.479004,-0.244141,6.530762
19078,-0.015625,-0.199097,0.951660,-3.356934,-0.061035,7.324219
19091,-0.000488,-0.203003,0.942993,-3.601074,1.098633,8.544922
19100,-0.050171,-0.145508,0.920044,-3.845215,0.244141,9.216309
19110,0.017212,-0.035767,1.046631,-4.211426,0.488281,9.826660
19119,0.015869,-0.153320,1.022705,-4.333496,1.647949,10.620117
19129,-0.009644,0.030273,1.102661,-4.516602,0.305176,10.681152
19138,0.002808,-0.115112,1.084961,-3.479004,2.929688,10.009766
19148,-0.017334,-0.168213,0.988403,-2.929688,1.098633,9.460449
19158,0.023071,-0.083130,1.131226,-2.624512,-0.427246,8.178711
19169,0.012939,-0.084473,1.025635,-2.197266,-0.793457,6.408691
