timestamp,accX,accY,accZ,gyrX,gyrY,gyrZ
11,-0.028076,-0.156006,0.923706,-1.708984,-2.929688,-5.981445
21,-0.030884,-0.151123,0.936890,-1.586914,-2.868652,-5.859375
31,-0.030762,-0.240601,0.909180,-1.586914,-3.112793,-5.310059
41,-0.013428,-0.156128,0.967041,-1.464844,-2.563477,-5.187988
50,0.019897,-0.157715,0.978760,-1.403809,-2.685547,-5.310059
61,0.031006,-0.112915,1.025269,-1.220703,-2.319336,-5.676270
71,0.038086,-0.141113,1.047241,-1.098633,-3.112793,-6.286621
80,0.040039,-0.144043,1.003662,-0.671387,-3.356934,-7.141113
91,0.046997,-0.091553,1.000488,-0.671387,-3.784180,-7.690430
101,0.041138,-0.147217,0.973389,-0.427246,-4.089355,-9.155273
111,0.002441,-0.195801,0.923340,-0.671387,-4.150391,-9.399414
120,0.033203,-0.258789,0.868286,-0.854492,-3.479004,-8.972168
130,0.031372,-0.142090,0.918335,-1.159668,-3.662109,-8.789063
141,0.000244,-0.208618,0.954224,-1.342773,-3.723145,-8.117676
151,-0.041626,-0.263184,0.968872,-1.586914,-3.723145,-7.934570
160,-0.003174,-0.165527,1.006958,-1.464844,-3.479004,-7.873535
170,-0.008179,-0.161011,1.063110,-1.037598,-3.295898,-8.178711
182,-0.061768,-0.208252,0.975098,-0.366211,-3.540039,-9.521484
192,-0.074219,-0.107544,0.960937,-0.488281,-3.967285,-10.070801
201,-0.078979,-0.194458,0.951294,-0.671387,-3.417969,-9.948730
211,-0.085449,-0.199829,0.957397,-0.915527,-3.051758,-9.887695
221,-0.104614,-0.139648,0.950684,-0.427246,-2.319336,-8.483887
230,-0.123535,-0.149414,0.967407,-0.366211,-1.525879,-7.385254
243,-0.123657,-0.156372,0.996460,-0.488281,0.366211,-5.065918
253,-0.100952,-0.117554,0.986816,-0.793457,0.610352,-3.906250
263,-0.084839,-0.114746,1.014160,-1.159668,1.159668,-2.807617
272,-0.072876,-0.168091,1.006592,-1.220703,1.464844,-1.281738
282,-0.111694,-0.189209,0.981934,-1.098633,1.831055,0.122070
291,-0.130249,-0.139038,1.038940,-0.976562,2.502441,1.464844
301,-0.123535,-0.068848,1.074463,-0.915527,3.112793,3.234863
311,-0.143677,-0.093750,0.991089,-0.732422,4.211426,5.920410
322,-0.120361,-0.224731,0.902466,-0.854492,4.943848,7.568359
331,-0.147705,-0.174316,0.912842,-1.281738,5.249023,9.216309
341,-0.156372,-0.085693,1.056885,-1.525879,5.493164,10.864258
350,-0.159912,-0.032104,1.057251,-1.586914,6.408691,12.695313
361,-0.142944,-0.103516,0.981812,-1.525879,6.774902,14.465332
371,-0.157471,-0.190552,0.958252,-1.159668,7.202148,15.808105
383,-0.203369,-0.183228,0.976318,-1.098633,7.873535,18.188477
393,-0.166992,-0.135498,1.062866,-0.976562,8.850098,19.409180
402,-0.117798,-0.115967,0.998779,-1.098633,9.277344,20.935059
412,-0.128296,-0.176880,0.988403,-0.915527,9.277344,21.789551
421,-0.139771,-0.258179,0.943726,-0.854492,9.155273,22.644043
431,-0.162476,-0.219482,0.956543,-1.525879,9.155273,23.437500
440,-0.135010,-0.136475,1.055664,-1.892090,9.216309,23.620605
452,-0.101807,-0.122314,0.971558,-2.319336,8.911133,23.254395
462,-0.088135,-0.195190,0.927124,-2.807617,8.056641,22.521973
471,-0.093262,-0.135620,0.925537,-3.112793,8.117676,21.606445
481,-0.043335,-0.009277,1.063843,-3.479004,7.995605,20.080566
490,-0.036621,0.005127,1.062378,-3.234863,7.690430,18.493652
501,-0.016846,-0.015259,0.977173,-2.807617,6.713867,16.540527
511,-0.062744,-0.114990,1.006592,-2.624512,5.798340,13.854980
523,-0.078613,-0.023193,1.058228,-2.746582,5.249023,8.544922
533,-0.073120,-0.034790,1.058594,-2.685547,4.638672,6.164551
542,-0.070923,-0.063721,0.956421,-2.197266,4.760742,4.211426
552,-0.066284,-0.131470,0.961792,-1.708984,4.821777,2.685547
561,-0.042847,-0.136353,0.898682,-1.647949,4.821777,1.403809
571,-0.032593,-0.076172,0.924561,-2.075195,5.004883,0.915527
580,-0.005249,-0.080078,1.016724,-2.319336,4.211426,0.732422
593,-0.023682,-0.153320,0.894653,-1.831055,5.004883,1.953125
602,-0.009888,-0.145142,0.975220,-2.014160,5.310059,2.929688
612,-0.040894,-0.021606,1.000610,-2.319336,5.432129,3.356934
622,-0.040649,0.076172,1.158813,-2.258301,5.859375,3.234863
631,-0.036743,0.019409,1.086914,-1.647949,5.615234,2.868652
641,-0.015625,-0.137085,1.010498,-1.098633,6.469727,1.953125
651,0.013794,-0.175415,1.002197,-0.793457,6.286621,0.976562
660,0.054321,-0.098633,1.055298,-0.793457,5.371094,-0.610352
672,-0.039429,0.029175,1.058838,-0.305176,4.516602,-0.427246
682,-0.043091,-0.061646,0.993530,0.305176,4.943848,-0.549316
691,0.028931,-0.167969,1.087524,1.159668,5.798340,-0.244141
700,0.017212,-0.232910,1.015259,1.525879,6.469727,-0.427246
711,-0.032837,-0.178345,1.001343,1.098633,5.554199,-1.037598
721,-0.047729,-0.203247,0.945557,0.976562,5.249023,-0.488281
733,0.000732,-0.174805,0.943726,0.427246,5.981445,2.624512
742,0.027466,-0.198730,0.960937,-0.183105,5.798340,6.042480
752,0.017212,-0.258667,0.947510,-0.366211,5.981445,9.643555
761,0.016724,-0.190063,0.973267,-0.915527,6.958008,13.122559
771,-0.027954,-0.231445,0.969116,-1.037598,7.019043,16.662598
781,0.029785,-0.276733,0.960815,-0.671387,8.483887,19.104004
791,0.053345,-0.199219,0.963623,-0.793457,8.056641,20.812988
800,0.017090,-0.276367,0.959106,-0.854492,8.117676,21.972656
812,-0.055664,-0.214478,1.043091,-1.159668,6.958008,21.301270
821,-0.016602,-0.210449,1.092773,-1.098633,5.981445,19.714355
831,0.003296,-0.220825,0.994751,-0.793457,5.187988,16.479492
840,0.030518,-0.238647,1.029053,-0.610352,4.089355,12.756348
850,0.070679,-0.228149,1.021851,-0.488281,3.112793,8.911133
860,0.118286,-0.156860,1.067871,-0.366211,1.831055,5.615234
873,0.174805,-0.144165,0.977417,-0.061035,0.976562,2.075195
883,0.154785,-0.147827,0.997559,0.244141,0.488281,1.342773
892,0.124023,-0.145386,0.985229,0.671387,0.061035,0.549316
901,0.091675,-0.183838,0.998535,0.610352,-0.122070,0.183105
911,0.092896,-0.167236,0.960937,0.793457,-0.427246,0.061035
920,0.101929,-0.192993,0.927002,1.220703,-0.854492,0.366211
931,0.106079,-0.257568,0.864868,1.281738,-1.159668,0.793457
940,0.057861,-0.232178,0.891479,0.854492,-1.220703,2.136230
952,0.020264,-0.176270,0.931030,-0.366211,-1.159668,2.990723
961,-0.000122,-0.083740,0.958496,-0.549316,-0.488281,3.601074
971,-0.041382,-0.111206,1.046875,-0.305176,0.183105,3.784180
980,-0.073608,-0.182129,1.037964,-0.183105,0.183105,3.295898
991,-0.028198,-0.204468,0.962036,0.000000,-0.183105,2.014160
1001,-0.014893,-0.195068,0.876343,-0.305176,0.122070,0.793457
1010,0.040649,-0.209839,0.900635,-1.037598,-0.366211,-1.464844
1022,0.027466,-0.123901,1.022583,-1.159668,-0.549316,-2.014160
1032,0.015503,-0.124634,1.036987,-1.281738,-0.427246,-2.075195
1041,0.050293,-0.137085,0.954224,-1.220703,-0.305176,-1.525879
1051,0.078613,-0.184204,0.950439,-1.281738,0.549316,-0.976562
1060,0.069214,-0.223999,0.980957,-1.525879,0.366211,-0.244141
1071,0.046875,-0.237671,1.001709,-2.258301,-0.610352,0.305176
1081,0.057007,-0.199951,1.010986,-3.051758,-0.244141,1.403809
1092,0.079834,-0.168823,1.027954,-3.112793,-0.610352,1.342773
1102,0.046509,-0.263428,1.001465,-3.173828,-1.037598,0.427246
1112,0.040405,-0.190063,1.015503,-3.234863,-1.770020,-0.915527
1121,0.040771,-0.173096,0.969360,-3.723145,-1.953125,-2.258301
1131,0.051880,-0.243652,0.963379,-3.662109,-1.770020,-3.112793
1140,0.070068,-0.182495,1.045410,-3.601074,-0.915527,-4.638672
1153,0.146362,-0.306763,0.966553,-3.356934,-2.990723,-7.812500
1163,0.158936,-0.210205,0.927368,-3.234863,-4.150391,-9.826660
1173,0.219482,-0.210571,0.925049,-3.173828,-4.882812,-11.108398
1183,0.229858,-0.207397,0.996460,-3.234863,-4.150391,-11.291504
1192,0.205444,-0.083374,1.077393,-3.295898,-5.126953,-11.291504
1202,0.182007,-0.120972,0.991577,-2.319336,-4.577637,-11.108398
1212,0.159546,-0.170898,0.988159,-1.708984,-5.126953,-10.375977
1221,0.185547,-0.219238,0.988892,-1.220703,-5.187988,-10.131836
1231,0.132935,-0.019409,1.038208,-1.403809,-5.859375,-10.009766
1241,0.043823,-0.048218,1.025269,-1.220703,-6.286621,-9.338379
1251,0.046875,-0.081421,1.056519,-0.976562,-5.004883,-8.239746
1260,0.013550,-0.126221,1.015747,-0.793457,-4.699707,-7.690430
1271,0.028442,-0.022339,1.058472,-1.464844,-4.516602,-7.202148
1281,0.024170,0.005249,1.025635,-1.647949,-4.333496,-6.652832
1292,0.032471,0.055908,1.082520,-1.831055,-4.577637,-4.516602
1302,-0.020996,-0.019775,1.012817,-1.586914,-3.173828,-3.479004
1312,-0.038086,-0.014648,1.030029,-0.976562,-2.380371,-2.502441
1321,-0.091064,-0.041382,1.036255,-0.549316,-2.380371,-1.281738
1331,-0.099487,-0.111450,0.995972,0.061035,-1.159668,0.000000
1341,-0.128662,-0.128784,1.026489,0.305176,-1.037598,1.159668
1351,-0.100464,-0.113892,1.014404,0.610352,-0.366211,2.197266
1363,-0.048462,-0.167725,0.997803,0.976562,0.061035,4.882812
1372,0.007324,-0.219116,0.921509,1.464844,1.159668,6.469727
1381,0.032959,-0.213989,0.952393,1.464844,1.342773,8.300781
1391,0.032837,-0.145142,0.951538,1.281738,1.770020,10.070801
1401,0.021973,-0.184692,0.919678,0.793457,1.403809,11.840820
1411,0.029785,-0.106323,0.975464,0.793457,1.342773,12.878418
1421,-0.017212,-0.110107,0.956055,0.793457,1.098633,13.854980
1432,-0.082886,-0.042969,1.033325,0.915527,1.647949,14.526367
1442,-0.043945,-0.168335,1.002075,1.403809,1.525879,14.221191
1452,-0.093140,-0.086670,0.935669,1.342773,0.671387,13.916016
1461,-0.055298,-0.201782,0.952515,1.464844,1.159668,13.793945
1471,-0.036255,-0.094849,1.000244,1.281738,1.037598,13.610840
1481,-0.009766,-0.081177,1.037354,1.220703,0.610352,12.817383
1491,0.011597,-0.152466,0.984497,1.342773,0.427246,12.207031
1502,0.081421,-0.231445,0.943359,1.708984,-0.427246,11.230469
1512,0.042236,-0.255981,0.918579,1.953125,-0.854492,10.498047
1521,0.036743,-0.219971,0.912354,1.586914,0.427246,10.314941
1531,-0.013062,-0.233765,0.918091,1.098633,-1.953125,9.948730
1541,0.017700,-0.134888,0.973755,1.037598,-1.586914,9.643555
1551,0.046631,-0.190918,1.010986,0.671387,-1.464844,9.216309
1561,0.024902,-0.197876,1.078003,0.549316,-2.380371,8.728027
1573,-0.003174,-0.178345,0.997559,0.549316,-2.502441,8.178711
1583,0.027222,-0.203003,1.005737,0.183105,-3.356934,7.629395
1593,-0.016113,-0.200562,0.990234,-0.244141,-2.929688,7.263184
1602,0.023804,-0.089233,1.004639,-0.488281,-3.112793,6.835937
1612,-0.022217,-0.130615,1.019531,-0.549316,-3.234863,6.164551
1622,0.021362,-0.176880,1.011597,-0.488281,-3.356934,5.187988
1631,0.030884,-0.243164,1.004639,-1.098633,-3.417969,4.272461
1641,-0.008057,-0.142456,1.027466,-2.014160,-4.150391,2.563477
1652,-0.013062,-0.248291,0.919067,-2.075195,-3.845215,1.647949
1662,0.076782,-0.171753,1.025146,-2.563477,-4.821777,0.671387
1671,0.010376,-0.224609,0.951782,-2.563477,-2.807617,0.366211
1681,0.005615,-0.153931,0.947510,-3.112793,-5.310059,0.549316
1691,-0.047241,-0.240234,0.884644,-3.295898,-5.249023,1.220703
1701,-0.013062,-0.252930,0.908691,-3.356934,-3.662109,1.831055
1711,-0.005005,-0.238403,0.959839,-4.699707,-3.784180,3.540039
1722,-0.103760,-0.082031,0.943726,-4.760742,-2.624512,3.723145
1732,-0.109375,-0.190918,0.997559,-4.760742,-3.723145,4.028320
1742,-0.097168,-0.128296,1.053955,-4.394531,-2.746582,3.967285
1751,-0.144653,-0.143799,0.947510,-3.662109,-2.380371,4.150391
1761,-0.141113,-0.081177,0.990601,-3.417969,-1.647949,4.150391
1771,-0.120483,-0.201294,1.002563,-3.479004,-1.037598,4.394531
1782,-0.088623,-0.064087,0.979370,-3.784180,-0.671387,4.516602
1792,-0.074707,-0.073730,1.006348,-3.234863,-0.366211,4.150391
1802,-0.065063,-0.124146,1.019165,-3.173828,-0.244141,4.272461
1811,-0.058716,-0.237427,0.933105,-2.929688,0.061035,4.699707
1821,-0.082275,-0.073120,0.888062,-3.356934,0.122070,4.943848
1832,-0.085083,-0.125122,0.892334,-3.784180,1.037598,5.554199
1841,-0.080933,-0.037231,0.989014,-3.967285,2.075195,5.859375
1851,-0.041138,-0.118164,0.937378,-4.760742,0.549316,5.493164
1862,0.029785,-0.065796,0.929565,-4.272461,0.549316,4.882812
1872,0.019165,-0.202881,0.878418,-4.577637,-0.244141,4.394531
1881,0.017700,-0.109741,0.956055,-4.943848,0.000000,3.723145
1891,0.008423,-0.078979,0.936768,-5.371094,0.305176,2.624512
1901,-0.015747,-0.023315,0.967163,-5.676270,0.305176,1.342773
1911,-0.045532,-0.049561,1.012573,-5.310059,-0.793457,-0.671387
1921,0.001831,-0.022461,1.098511,-4.699707,-0.610352,-4.272461
1931,0.115479,-0.010620,1.125488,-4.333496,-0.427246,-5.798340
1941,0.106934,-0.076904,1.090088,-3.662109,-0.366211,-6.591797
1951,0.113892,-0.127197,1.033081,-3.173828,-0.671387,-7.202148
1961,0.112427,-0.120972,0.986206,-2.563477,-1.159668,-7.812500
1971,0.115356,-0.211182,0.939087,-2.258301,-1.586914,-8.483887
1981,0.108154,-0.171509,0.994751,-2.319336,-1.403809,-9.033203
1993,0.105347,-0.175903,0.930176,-3.540039,-2.014160,-9.399414
2003,0.057983,-0.208130,0.885376,-3.967285,-2.136230,-9.521484
2012,0.094727,-0.155396,0.995728,-4.394531,-1.770020,-9.582520
2022,0.045410,-0.152954,1.044434,-4.577637,-2.807617,-9.338379
2032,0.044678,-0.135620,0.947144,-4.333496,-2.380371,-9.277344
2041,0.008789,-0.119873,0.981201,-4.333496,-2.014160,-8.728027
2051,-0.095215,-0.151489,0.952515,-4.272461,-2.380371,-8.300781
2061,-0.015015,-0.048706,1.101440,-3.234863,0.183105,-7.141113
2072,-0.032471,-0.084473,0.984497,-2.624512,1.281738,-6.713867
2081,-0.085937,-0.156128,0.969849,-2.441406,0.915527,-6.042480
2091,-0.053345,-0.117798,1.046997,-2.746582,0.854492,-5.371094
2101,-0.062988,-0.124023,0.927490,-2.685547,1.831055,-4.760742
2111,-0.001831,-0.054321,0.972168,-2.807617,2.380371,-3.784180
2121,-0.057251,-0.207397,1.003174,-2.502441,1.892090,-2.685547
2133,-0.042969,-0.091919,0.994995,-2.746582,3.967285,-0.854492
2142,-0.025269,-0.105469,1.022095,-2.502441,4.028320,-0.122070
2152,-0.046631,-0.140259,0.934448,-2.441406,4.516602,0.488281
2161,-0.076050,-0.045776,1.028198,-2.380371,4.638672,1.159668
2171,-0.051514,-0.087036,1.044067,-1.953125,4.089355,1.770020
2182,-0.023071,0.001099,1.058105,-1.098633,5.798340,2.929688
2191,-0.085815,-0.206299,0.943359,-0.427246,6.164551,4.699707
2201,-0.076538,-0.137451,1.052856,-0.183105,6.164551,7.568359
2212,-0.015015,0.097900,1.108887,0.427246,6.958008,8.728027
2222,-0.030029,-0.161011,1.065674,1.770020,7.690430,9.887695
2231,-0.055542,-0.255249,0.985718,3.051758,7.629395,10.559082
2241,-0.036499,-0.282471,0.991089,3.417969,7.263184,10.803223
2251,0.008789,-0.245239,0.914429,3.112793,6.713867,10.620117
2262,0.010010,-0.221558,0.976196,2.197266,6.286621,10.742188
2272,0.076416,-0.116211,1.108765,1.464844,5.676270,10.498047
2281,0.048218,-0.271729,0.979248,1.220703,5.615234,10.192871
2291,0.032959,-0.174316,1.033081,1.159668,5.004883,9.399414
2301,0.000977,-0.254272,0.960571,0.976562,5.371094,8.911133
2311,-0.005859,-0.141113,1.011597,0.488281,4.333496,8.056641
2321,0.043823,-0.194458,1.031494,0.671387,4.516602,7.385254
2331,-0.008423,-0.233276,1.023682,1.281738,4.150391,6.835937
2341,0.007202,-0.158691,1.091553,2.624512,4.150391,5.310059
2352,0.082520,-0.150269,1.050659,2.624512,3.295898,4.699707
2361,0.099976,-0.225586,1.065796,2.868652,2.441406,3.906250
2372,0.124512,-0.241333,1.039551,3.173828,2.075195,3.723145
2381,0.133789,-0.144165,1.058838,3.234863,1.586914,3.906250
2391,0.162231,-0.189819,0.968262,3.662109,1.464844,4.089355
2401,0.139038,-0.124390,0.997803,3.906250,1.220703,4.577637
2412,0.039917,-0.139893,0.793091,3.845215,1.281738,6.896973
2422,0.024536,-0.157593,0.861694,3.051758,1.220703,8.361816
2431,-0.011230,-0.487549,0.529785,2.929688,1.770020,9.765625
2441,0.009155,-0.078491,0.853638,0.610352,0.915527,10.437012
2451,0.021118,-0.097168,0.812744,-0.488281,0.793457,11.474609
2461,0.025879,-0.085327,0.876953,-1.098633,0.610352,12.145996
2472,-0.012207,-0.023437,0.949707,-2.441406,0.305176,13.000488
2482,-0.009399,-0.172363,0.930420,-3.173828,0.427246,13.183594
2491,0.000122,0.097046,1.102783,-3.723145,0.549316,13.061523
2501,0.036255,0.133057,1.225952,-3.356934,-0.183105,13.610840
2511,-0.010498,-0.140015,1.071777,-1.770020,0.610352,14.160156
2521,-0.062012,0.015869,1.103271,-1.159668,-0.122070,14.343262
2531,-0.028320,-0.131836,1.078857,-0.671387,-0.061035,14.526367
2542,-0.064697,-0.135620,1.009277,-0.915527,0.061035,13.854980
2552,-0.029175,-0.209351,0.939941,-1.159668,-0.244141,13.732910
2561,0.042114,-0.088989,0.985474,-1.586914,-0.061035,13.488770
2571,0.061768,-0.159668,1.045288,-2.197266,-0.793457,12.756348
2581,0.094482,-0.135132,1.089600,-2.502441,-1.464844,12.145996
2591,0.127808,-0.056030,1.137329,-2.502441,-2.685547,11.413574
2601,0.129883,-0.197266,1.017334,-1.953125,-2.441406,10.437012
2613,0.139771,-0.099609,1.098511,-2.075195,-4.699707,9.033203
2622,0.186768,-0.153564,1.139893,-1.953125,-5.493164,8.056641
2632,0.137817,-0.068726,1.093018,-1.647949,-6.469727,7.324219
2641,0.094971,-0.148193,1.025879,-1.037598,-6.652832,6.042480
2651,0.114990,-0.052490,1.047241,-1.098633,-7.263184,4.821777
2660,0.077148,-0.303955,0.948975,-0.793457,-7.934570,2.929688
2671,0.067871,-0.139282,0.941650,-1.220703,-8.117676,0.732422
2681,0.061279,-0.338379,0.839233,-1.708984,-8.483887,-1.220703
2692,0.061890,-0.154053,0.821045,-2.807617,-8.972168,-3.845215
2702,0.087280,-0.211792,0.819580,-5.432129,-9.643555,-8.117676
2711,0.113403,-0.177979,0.829102,-6.408691,-9.765625,-10.253906
2721,0.092529,-0.095703,0.973755,-7.080078,-10.681152,-11.779785
2731,0.047974,-0.099487,1.010010,-6.835937,-10.498047,-12.878418
2741,0.030273,-0.040894,1.012451,-6.164551,-10.131836,-13.732910
2751,0.022705,0.080933,1.057007,-5.310059,-9.826660,-14.343262
2763,0.103638,-0.195801,0.961670,-2.136230,-9.338379,-14.587402
2773,0.034668,-0.152954,0.868042,-1.892090,-8.972168,-13.854980
2783,0.019043,-0.147461,0.864502,-1.281738,-7.995605,-13.427734
2792,0.048340,-0.212158,0.896606,-0.305176,-7.751465,-12.756348
2802,0.032593,-0.209473,0.947632,-0.244141,-7.141113,-11.779785
2811,-0.024902,-0.207764,0.979004,-0.366211,-6.286621,-10.009766
2821,-0.037720,-0.248169,0.960937,-0.122070,-5.432129,-7.873535
2831,-0.066772,-0.194458,0.962280,-0.549316,-4.638672,-5.187988
2840,-0.073975,-0.178955,0.945557,-0.610352,-3.784180,-3.662109
2851,-0.092651,-0.129395,0.984863,-0.854492,-2.807617,-1.770020
2861,-0.090454,-0.144287,0.960937,-0.915527,-2.319336,-0.061035
2871,-0.130737,-0.320923,0.840454,-1.770020,-1.953125,1.220703
2881,-0.179199,-0.013184,0.984619,-2.380371,-0.427246,2.502441
2891,-0.157593,-0.088623,1.029419,-2.563477,0.366211,3.784180
2903,-0.145996,-0.065186,1.020996,-2.258301,1.098633,5.371094
2913,-0.170288,-0.258179,0.952393,-2.868652,1.525879,6.652832
2922,-0.108276,-0.118774,1.055542,-3.723145,2.258301,7.995605
2931,-0.112793,-0.009155,1.112305,-4.150391,2.929688,9.460449
2941,-0.128540,-0.067749,1.044067,-4.089355,4.028320,11.108398
2951,-0.122314,0.010620,1.070923,-4.028320,5.004883,12.512207
2961,-0.070801,-0.141724,1.039063,-4.211426,4.699707,13.366699
2971,-0.123901,-0.066772,0.997314,-5.249023,4.882812,13.854980
2982,-0.101196,-0.049561,1.059448,-4.882812,4.394531,13.732910
2995,-0.090332,-0.095459,1.004395,-4.455566,4.333496,13.122559
3005,-0.115234,0.069092,1.017456,-4.150391,3.662109,10.437012
3015,-0.090454,-0.100464,0.926636,-2.746582,3.295898,8.972168
3025,-0.071289,-0.130737,0.964478,-1.892090,2.624512,7.019043
3034,-0.071289,-0.148926,0.913208,-1.525879,2.380371,4.760742
3044,-0.005371,-0.076660,1.046021,-0.854492,2.685547,3.601074
3053,0.024658,-0.256714,0.898926,-0.854492,2.746582,2.319336
3063,0.056641,-0.097656,0.957886,-0.732422,2.441406,0.976562
3072,0.097656,-0.183960,0.887207,-0.549316,2.014160,0.122070
3082,0.097656,-0.253418,0.769287,-0.793457,1.220703,-1.037598
3092,0.123657,-0.130005,0.881714,-1.159668,1.525879,-1.525879
3101,0.086792,-0.283081,0.856812,-1.098633,1.281738,-2.380371
3111,0.069214,-0.173706,0.958008,-1.342773,0.061035,-3.601074
3122,0.120239,-0.242187,0.930908,-1.159668,-0.732422,-3.723145
3132,0.116943,-0.120361,1.095459,-1.281738,0.000000,-3.540039
3142,0.145630,-0.196777,1.123535,-1.220703,-0.244141,-3.112793
3151,0.003540,-0.201660,1.015869,-1.281738,0.305176,-2.868652
3161,-0.043213,0.110718,1.144653,-1.281738,-0.549316,-3.051758
3171,-0.065918,-0.019653,1.046143,-0.671387,0.671387,-2.502441
3182,-0.055298,0.010498,1.045776,-0.061035,1.220703,-1.708984
3192,0.013306,-0.077515,1.107788,-0.305176,1.525879,-1.037598
3201,-0.067749,-0.172729,0.989136,-0.122070,1.953125,-0.366211
3211,0.020386,0.121216,1.094360,0.061035,1.586914,0.244141
3221,0.016235,0.024170,1.101685,0.610352,1.586914,1.037598
3231,-0.036011,-0.339233,0.929565,0.793457,1.953125,1.159668
3243,-0.069458,-0.038452,1.056396,0.427246,2.563477,1.647949
3252,-0.123779,-0.377441,0.863281,0.915527,3.295898,1.953125
3261,-0.091919,-0.210571,0.926636,0.305176,3.173828,1.770020
3271,-0.001831,-0.009277,1.033447,0.122070,2.990723,2.075195
3281,0.021484,-0.169678,0.908203,-0.061035,3.601074,2.319336
3292,0.046753,-0.134766,0.990112,-0.305176,3.295898,2.563477
3301,0.043701,-0.104370,1.010620,-0.122070,3.479004,2.624512
3311,0.021484,-0.286865,0.893433,0.122070,3.479004,3.051758
3323,0.083374,-0.297607,0.942017,-0.122070,3.601074,4.333496
3332,0.079590,-0.359619,0.825195,-1.098633,2.807617,5.249023
3341,0.036377,-0.005371,0.994385,-1.770020,2.990723,5.676270
3351,0.079224,-0.121582,0.977661,-2.380371,2.990723,6.408691
3361,0.000488,-0.238647,0.893799,-2.441406,2.441406,6.530762
3371,0.008179,-0.077881,1.009277,-2.807617,2.746582,6.530762
3381,0.030640,-0.133057,0.942749,-2.746582,2.441406,6.408691
3392,0.076172,-0.083496,1.086060,-2.563477,1.037598,4.882812
3402,0.059692,-0.146973,1.047729,-1.770020,0.427246,4.394531
3411,0.117310,-0.134033,1.024048,-1.159668,0.488281,3.417969
3420,0.098633,-0.117798,1.073730,-0.366211,0.061035,2.929688
3431,0.058350,-0.251953,1.045898,0.000000,-0.854492,2.197266
3441,0.068848,-0.278076,0.927368,0.061035,-0.793457,1.281738
3451,0.072266,-0.106445,0.985596,-0.305176,-1.037598,0.549316
3463,0.094482,-0.397095,0.956909,-0.244141,-1.708984,-1.342773
3472,0.088989,-0.111084,0.926270,-1.342773,-2.197266,-1.892090
3482,0.112915,0.093628,1.078857,-1.281738,-2.258301,-2.441406
3491,0.120483,-0.201782,1.025024,-1.220703,-2.807617,-2.136230
3501,0.037598,-0.259644,0.854614,-1.220703,-2.197266,-1.892090
3512,0.064697,0.020020,0.962769,-2.014160,-3.051758,-1.342773
3521,0.045288,-0.013306,1.065552,-1.953125,-1.342773,0.000000
3531,0.036621,-0.165283,0.965820,-2.136230,-1.892090,1.586914
3542,-0.033203,-0.199951,0.900879,-2.258301,-0.976562,2.502441
3551,-0.040161,-0.302246,0.781006,-3.234863,-0.488281,3.723145
3561,-0.028442,0.003174,0.927124,-5.187988,-0.427246,5.065918
3571,-0.017212,0.041260,0.946655,-6.530762,-0.122070,6.530762
3581,-0.037720,-0.075073,0.875610,-6.896973,0.549316,7.995605
3591,-0.021362,0.139893,0.986084,-6.774902,0.427246,9.399414
3602,-0.048828,-0.162231,0.865479,-6.164551,0.976562,10.925293
3613,-0.095581,0.077515,1.020386,-6.347656,0.854492,10.803223
3622,-0.085937,-0.039795,1.033569,-5.981445,0.366211,10.070801
3632,-0.135986,-0.160522,0.904053,-5.676270,0.183105,9.277344
3641,-0.111938,0.090576,1.036011,-5.432129,-0.305176,7.812500
3650,-0.127197,-0.044434,0.997681,-4.638672,0.000000,6.530762
3661,-0.135010,-0.169189,0.959961,-4.333496,2.441406,5.554199
3671,-0.123657,0.095581,1.052490,-4.211426,2.136230,3.845215
3682,-0.131104,-0.141113,1.030273,-3.723145,2.136230,3.112793
3691,-0.071533,0.008911,1.100952,-3.051758,2.197266,2.929688
3701,-0.014282,0.070679,1.107544,-2.319336,2.014160,2.624512
3711,-0.008301,-0.142334,1.015259,-1.831055,1.586914,2.197266
3721,0.086914,-0.229492,0.951416,-1.831055,2.136230,1.953125
3731,0.110718,-0.059814,0.973511,-1.953125,2.136230,2.258301
3742,0.197266,-0.155884,0.940063,-1.770020,0.061035,2.624512
3752,0.190796,-0.001221,1.032959,-2.685547,-0.183105,2.746582
3761,0.150513,-0.168701,0.994385,-2.868652,-1.037598,2.502441
3771,0.147461,-0.181885,1.007080,-3.417969,-2.136230,2.136230
3781,0.123779,-0.013428,1.062012,-4.028320,-2.563477,2.197266
3792,0.118408,-0.103149,1.054443,-4.028320,-2.441406,2.319336
3801,0.093140,-0.137207,1.009888,-3.906250,-3.295898,2.441406
3811,0.094971,-0.003418,1.019653,-3.601074,-2.258301,1.953125
3821,0.084717,-0.122681,0.916382,-4.028320,-3.417969,1.220703
3831,0.009521,0.015625,1.010620,-4.394531,-3.662109,0.671387
3842,0.012573,-0.030396,0.999512,-4.211426,-3.723145,0.488281
3851,-0.034668,-0.114136,0.927002,-3.601074,-3.234863,0.305176
3861,-0.080688,-0.078979,0.996704,-2.868652,-2.868652,0.427246
3870,-0.056885,-0.076660,0.984131,-1.831055,-2.319336,0.488281
3882,-0.081055,-0.057129,1.011475,-0.976562,-2.014160,0.915527
3892,-0.079224,-0.168945,0.946167,0.549316,-1.770020,0.671387
3902,-0.017822,-0.309326,0.848022,0.610352,-1.098633,0.183105
3911,-0.049072,-0.107056,0.941040,0.549316,-1.037598,-0.305176
3921,-0.018066,-0.032593,1.023560,0.976562,-1.159668,-1.037598
3931,-0.043579,-0.184570,0.950317,1.159668,-1.525879,-1.525879
3942,-0.044189,-0.205078,0.976807,1.586914,-0.671387,-1.464844
3952,0.020386,-0.130249,0.967163,1.831055,0.488281,-0.732422
3961,0.015503,-0.221802,0.928955,1.403809,0.122070,0.427246
3971,0.021973,-0.062744,0.949097,0.671387,0.488281,1.403809
3981,0.030029,-0.046387,0.971313,-0.183105,0.854492,2.746582
3991,0.034424,-0.151367,0.955322,-1.098633,1.525879,3.906250
4001,-0.014404,-0.059814,0.953247,-2.014160,0.610352,4.760742
4011,-0.009155,0.142212,1.031616,-2.746582,0.915527,6.042480
4023,-0.017578,-0.072510,0.989258,-3.051758,1.342773,8.361816
4033,-0.032227,0.032349,1.070435,-3.112793,1.220703,9.094238
4042,-0.017090,0.023315,1.077271,-2.929688,1.403809,9.460449
4052,-0.025391,0.023926,1.117920,-2.990723,1.098633,9.765625
4062,-0.023193,-0.020752,1.127563,-2.868652,1.403809,9.582520
4071,-0.077637,0.056274,1.069580,-2.563477,1.159668,9.643555
4081,-0.039429,0.089478,1.125244,-2.014160,1.586914,9.765625
4092,-0.016113,-0.039795,1.007446,-1.708984,1.831055,10.498047
4102,-0.015503,-0.002319,1.018677,-1.586914,0.915527,10.498047
4111,0.005371,0.032471,1.051514,-1.281738,0.122070,10.131836
4121,-0.008423,-0.016235,0.996704,-0.610352,0.732422,9.765625
4131,-0.006958,-0.129883,0.990479,0.122070,1.403809,9.338379
4141,0.037476,-0.155273,0.947876,0.549316,0.610352,8.666992
4153,-0.000488,-0.051758,1.036499,0.549316,-0.061035,6.347656
4162,0.000366,-0.126709,0.940552,0.671387,-0.610352,4.760742
4172,0.001587,-0.185303,0.730713,0.671387,-0.732422,3.601074
4181,0.059204,-0.193359,0.804932,-0.305176,-1.037598,2.868652
4191,0.070312,0.146973,1.199219,-1.892090,-0.915527,1.708984
4201,0.060669,-0.068604,1.037231,-1.708984,-1.403809,0.793457
4211,0.042969,-0.015381,1.075928,-1.281738,-1.892090,-0.427246
4222,0.046265,0.038452,1.068481,-0.915527,-2.075195,-1.464844
4232,0.098389,0.029175,1.101563,0.305176,-1.647949,-0.915527
4242,0.092163,-0.024780,1.130127,1.342773,-1.953125,-0.671387
4252,0.073608,-0.023437,1.132446,1.281738,-1.342773,-0.305176
4261,0.061035,-0.054810,0.934814,1.831055,-2.258301,-0.427246
4271,0.042358,-0.030273,0.892944,2.197266,-2.319336,-1.281738
4281,0.054443,-0.046265,0.948730,1.464844,-2.685547,-1.647949
4292,0.013672,0.084473,1.055664,1.342773,-3.906250,-1.953125
4302,-0.033325,-0.161377,1.011719,1.464844,-3.601074,-2.075195
4311,0.016235,0.143677,1.169067,1.342773,-2.746582,-1.647949
4321,0.010132,0.008545,1.033569,1.708984,-2.197266,-0.976562
4331,-0.021362,-0.056152,0.925293,2.258301,-2.319336,-0.610352
4341,0.003540,-0.043701,0.959473,3.112793,-1.525879,-0.122070
4351,-0.027588,-0.192749,0.892212,3.173828,-1.892090,-0.061035
4361,-0.045410,-0.113647,0.934204,2.746582,-0.854492,0.000000
4373,-0.050049,-0.022949,0.901001,0.915527,-0.854492,0.366211
4382,-0.025879,-0.027954,0.962280,0.366211,-0.976562,1.159668
4391,-0.047119,0.052856,1.020874,0.122070,0.854492,2.075195
4401,-0.028198,0.024414,1.022339,0.427246,0.793457,2.136230
4411,-0.007568,-0.023315,1.072021,0.427246,-0.488281,1.892090
4421,-0.003296,0.017700,1.042847,0.244141,0.244141,1.464844
4432,0.019287,0.039673,0.997314,0.793457,-0.305176,0.366211
4442,0.033203,-0.021484,0.936768,0.488281,-0.427246,-0.061035
4452,0.048096,-0.026733,0.987671,0.122070,-0.671387,-0.244141
4462,0.036011,-0.004883,1.037842,-0.488281,-0.610352,-0.366211
4471,0.034912,0.042358,1.111572,-0.671387,-0.549316,-0.305176
4481,0.000732,0.015747,0.950073,-0.671387,0.183105,0.061035
4491,0.007935,0.117065,1.081299,0.000000,0.244141,0.793457
4501,-0.042358,-0.098267,0.973511,1.037598,0.305176,1.953125
4513,-0.038330,0.028931,0.979614,0.427246,0.549316,2.807617
4522,-0.028931,-0.017944,0.977905,-0.183105,0.671387,3.540039
4532,-0.026611,-0.079712,0.834351,0.122070,0.915527,4.089355
4541,-0.000244,-0.124512,0.845459,-0.976562,1.342773,4.577637
4551,-0.017212,-0.021729,0.916260,-2.258301,1.220703,5.126953
4561,-0.043945,0.129639,0.987915,-2.990723,0.915527,5.249023
4571,-0.079346,-0.076782,0.961182,-2.563477,1.464844,5.310059
4581,-0.036255,-0.133545,1.046265,-3.540039,1.953125,5.371094
4592,-0.007690,0.134766,1.067139,-3.356934,2.258301,6.042480
4602,0.016235,-0.037231,0.927002,-2.685547,2.441406,6.774902
4611,0.036865,0.000488,1.023560,-2.502441,2.807617,7.324219
4621,0.027466,-0.018555,1.012207,-2.746582,2.197266,7.507324
4631,-0.015869,0.041626,1.034058,-3.173828,1.892090,7.690430
4643,-0.006592,-0.063721,1.012573,-4.150391,1.342773,8.117676
4652,-0.027100,0.024048,0.923340,-4.272461,1.892090,8.911133
4661,-0.018555,0.107544,1.083862,-4.028320,2.197266,9.338379
4671,-0.012329,-0.047974,1.046265,-3.479004,1.892090,9.521484
4682,-0.025757,0.077393,1.111328,-3.112793,1.708984,9.277344
4691,-0.033936,-0.063843,1.003784,-2.319336,2.075195,9.094238
4701,-0.010498,-0.062988,1.040527,-2.319336,1.647949,8.728027
4711,0.024780,-0.105103,0.988525,-1.953125,0.915527,7.995605
4723,-0.002197,-0.081543,0.893188,-2.868652,0.549316,7.568359
4732,-0.027466,-0.031494,0.901978,-2.563477,1.220703,6.469727
4742,-0.015137,0.006104,0.974487,-3.417969,0.000000,6.103516
4751,-0.035156,0.037720,1.039429,-3.479004,1.037598,5.798340
4761,-0.014038,0.004761,0.991821,-3.356934,1.342773,5.676270
4771,-0.005737,0.012939,1.027954,-3.112793,3.295898,6.408691
4783,0.020508,0.038452,1.093262,-1.098633,3.540039,5.920410
4792,0.020386,-0.057983,0.981812,-1.098633,0.793457,5.615234
4802,0.049438,-0.079834,0.909180,-1.159668,1.464844,5.737305
4811,0.061035,-0.061890,0.922363,-1.586914,-0.671387,5.004883
4821,0.073486,-0.107300,0.863892,-1.647949,2.929688,5.432129
4831,0.038208,-0.142944,0.843628,-2.441406,-0.793457,4.943848
4841,0.063110,-0.055054,0.916016,-3.356934,0.183105,4.760742
4852,0.053345,0.041870,0.974487,-4.028320,-0.488281,4.577637
4862,-0.017578,0.011719,1.014771,-3.356934,0.183105,4.150391
4871,-0.002441,0.056641,1.065674,-3.234863,-0.793457,4.150391
4881,-0.010254,0.025024,1.077148,-3.112793,-0.427246,4.455566
4891,-0.004517,0.009277,1.069458,-2.197266,0.244141,4.638672
4901,0.007324,-0.012817,1.015503,-1.953125,-0.610352,4.882812
4911,0.015381,-0.020752,0.987427,-1.770020,-0.549316,5.126953
4921,0.021362,-0.035156,0.937134,-1.281738,0.000000,5.493164
4932,0.017700,-0.128662,0.966553,-1.037598,-0.305176,5.676270
4941,-0.003784,-0.065796,1.005493,-1.586914,-0.305176,5.859375
4951,-0.004639,-0.045288,0.991821,-1.770020,-0.793457,5.859375
4961,0.010132,-0.078369,0.989014,-1.831055,-1.098633,6.042480
4971,0.002930,-0.014526,0.983154,-1.831055,-0.732422,6.103516
4981,-0.000122,-0.021240,0.951904,-1.647949,-0.976562,6.164551
4991,-0.009033,-0.031250,0.990845,-1.831055,-0.793457,6.225586
5001,-0.029541,0.014160,1.018433,-2.197266,0.549316,6.469727
5012,-0.014893,0.032227,1.017090,-2.319336,-0.122070,6.286621
5021,-0.004028,-0.020752,1.048950,-2.319336,-0.061035,5.981445
5032,-0.026489,-0.053711,1.023926,-2.197266,0.488281,5.554199
5041,-0.000122,0.006592,1.064453,-2.258301,1.037598,4.821777
5051,0.027588,-0.022583,1.005371,-2.136230,0.366211,3.906250
5061,0.059326,-0.032104,1.009521,-2.136230,-0.244141,3.234863
5073,0.083496,-0.047119,0.989258,-1.708984,-1.403809,2.136230
5082,0.082764,-0.049683,1.038574,-1.770020,-1.220703,1.708984
5092,0.039429,-0.027222,1.005615,-1.342773,-1.525879,1.525879
5101,0.027466,0.005493,0.967041,-1.220703,-1.647949,1.586914
5112,0.033081,-0.012451,0.994751,-1.220703,-1.159668,2.197266
5121,-0.011475,-0.030396,0.968262,-1.159668,-1.037598,2.685547
5133,-0.025879,0.012939,0.992187,-1.953125,-1.037598,3.417969
5142,-0.032715,0.046509,0.994507,-2.624512,-0.915527,3.967285
5152,-0.003784,0.014160,0.995239,-2.563477,-0.244141,4.394531
5161,-0.016113,0.003784,0.993286,-2.502441,-0.183105,4.760742
5171,-0.009033,0.024902,1.012329,-2.502441,0.488281,5.126953
5182,0.011841,0.063354,0.987061,-2.197266,0.488281,5.432129
5191,0.058838,-0.025879,1.020020,-1.892090,0.183105,5.126953
5201,0.041260,0.014038,0.997681,-1.403809,0.793457,4.760742
5212,0.017456,0.018066,1.057129,-1.281738,-0.366211,4.516602
5222,0.005493,-0.115723,0.974243,0.061035,-0.366211,4.638672
5231,0.010742,-0.078613,1.036499,0.427246,-0.183105,4.699707
5242,0.015991,-0.009155,1.016235,0.244141,-0.366211,5.126953
5251,-0.028931,-0.036499,0.948120,0.244141,-0.244141,5.493164
5261,-0.006836,-0.066772,0.957886,0.610352,-0.427246,5.615234
5273,-0.004028,-0.014038,0.999146,0.488281,0.000000,5.615234
5282,-0.019165,-0.059448,0.992310,0.061035,0.061035,5.859375
5291,-0.032104,-0.047729,1.005615,0.122070,0.366211,5.859375
5301,0.005127,-0.012451,0.967896,0.305176,0.366211,5.981445
5311,0.049072,-0.018066,1.017700,0.061035,-0.732422,6.164551
5321,0.022461,-0.045410,0.956909,0.061035,0.244141,6.103516
5331,0.040039,-0.057129,1.006836,0.061035,0.122070,6.164551
5341,0.025269,-0.054687,0.989746,0.000000,-0.122070,5.920410
5352,-0.002441,-0.070801,0.968262,0.305176,0.549316,5.493164
5362,0.010498,-0.129639,0.999756,0.427246,0.671387,5.554199
5371,-0.021851,-0.061035,0.952759,0.183105,-0.305176,5.432129
5381,0.019653,-0.009644,0.983398,-0.183105,0.000000,5.371094
5392,0.005249,0.024536,0.998413,-0.610352,-0.183105,5.371094
5401,0.020386,0.013184,0.939697,-1.159668,-1.098633,5.065918
5414,0.008545,-0.011108,1.007324,-1.220703,-0.793457,4.577637
5424,0.023071,-0.007935,1.074951,-1.098633,-0.305176,4.577637
5434,0.015015,-0.020874,0.980347,-1.159668,-0.549316,4.760742
5443,0.043457,-0.009033,1.029297,-0.732422,0.671387,4.760742
5453,0.034668,-0.033447,0.982422,-0.915527,-0.427246,4.455566
5463,0.055664,0.016724,1.027710,-0.915527,-0.305176,4.089355
5472,0.047607,0.074707,1.057129,-1.098633,-0.854492,3.601074
5482,0.041992,-0.000366,1.039917,-0.671387,-0.854492,2.502441
5491,0.025146,-0.040894,1.031738,-0.610352,-1.892090,2.380371
5501,0.035522,-0.000854,1.125244,-0.122070,-1.281738,2.197266
5511,0.023682,-0.024170,1.066284,0.183105,-1.708984,2.075195
5522,0.010376,-0.060669,0.974487,0.366211,-1.586914,1.953125
5531,0.032349,-0.052612,0.940674,0.000000,-1.892090,1.647949
5541,0.043945,-0.070190,0.922241,0.366211,-0.854492,1.220703
5551,0.031250,-0.066040,0.923706,-0.061035,-2.136230,0.915527
5562,-0.005127,-0.051270,0.925781,-0.671387,-0.671387,1.098633
5572,0.013550,-0.021851,0.977905,-1.831055,-1.403809,1.342773
5581,-0.010864,-0.028931,0.939209,-1.831055,-1.464844,1.403809
5591,0.018677,-0.054687,0.993652,-1.403809,-0.488281,1.831055
5602,-0.010986,0.012085,1.012573,-1.647949,-1.647949,1.464844
5611,0.015015,0.038330,0.989136,-1.403809,-0.671387,1.770020
5624,-0.005371,-0.016602,0.983643,-1.403809,0.305176,2.197266
5633,0.004883,-0.003662,1.006348,-1.281738,-0.305176,2.624512
5642,-0.008301,-0.021729,1.007202,-0.671387,0.549316,3.295898
5652,0.015991,-0.076172,1.020874,-0.854492,0.366211,3.662109
5661,0.013672,-0.072998,1.025024,-0.915527,1.464844,3.906250
5672,0.031494,-0.089478,1.008911,-0.915527,0.183105,3.723145
5681,0.031616,-0.011719,0.972412,-1.159668,-0.671387,3.540039
5691,0.033081,0.011230,1.020874,-0.854492,-0.610352,3.662109
5703,-0.012085,-0.001953,1.029297,-1.037598,-0.610352,3.479004
5712,0.000366,-0.053467,1.067261,-1.342773,-0.610352,3.662109
5722,-0.001099,0.047363,1.062012,-1.220703,0.427246,3.723145
5731,0.008545,0.000000,1.022095,-1.525879,0.427246,3.784180
5741,-0.015137,-0.026733,0.989014,-1.098633,0.183105,3.784180
5751,-0.002197,-0.058105,1.037354,-0.732422,0.061035,3.540039
5764,0.005493,-0.038696,0.970215,-0.976562,0.305176,3.479004
5773,0.019409,-0.063965,0.945312,-0.549316,1.342773,3.112793
5783,0.041504,-0.037842,0.933716,-0.549316,0.488281,2.807617
5792,0.036377,-0.083984,0.946289,-0.854492,-0.976562,2.746582
5802,0.016479,-0.037109,0.961304,-0.976562,0.488281,2.868652
5812,-0.000122,-0.068604,0.953125,-1.037598,-2.197266,2.624512
5821,-0.018311,-0.046631,0.963135,-1.159668,1.159668,3.356934
5834,-0.042725,-0.060181,0.936279,-0.915527,0.427246,4.821777
5844,-0.020874,-0.031982,0.914917,-0.854492,0.976562,5.676270
5853,-0.027954,0.010864,0.937622,-0.976562,1.708984,6.652832
5862,-0.006104,-0.010742,0.937378,-1.098633,1.220703,7.080078
5872,-0.046631,-0.018311,0.937622,-1.464844,1.403809,7.568359
5882,-0.009155,0.037720,0.979736,-1.892090,1.342773,8.056641
5891,-0.046631,-0.020142,0.966797,-1.953125,2.319336,8.544922
5902,-0.009644,0.030518,0.990356,-1.770020,2.929688,9.765625
5912,0.016602,-0.063354,1.010254,-1.464844,2.685547,10.253906
5921,0.012329,-0.042725,1.033325,-1.770020,2.502441,10.498047
5932,0.028564,0.012573,1.039917,-2.014160,2.685547,10.681152
5941,0.008423,0.001587,1.004761,-1.892090,2.624512,10.925293
5951,0.007202,-0.020264,0.999512,-1.953125,2.014160,11.230469
5961,-0.008911,-0.044556,1.019775,-2.258301,2.563477,11.596680
5974,-0.019165,-0.054932,1.036133,-2.258301,1.892090,11.657715
5983,-0.009277,-0.010254,1.041260,-2.197266,1.586914,11.413574
5993,-0.005981,-0.074463,1.022583,-1.953125,1.708984,11.535645
6002,-0.004883,-0.070312,0.992798,-1.647949,1.831055,11.535645
6012,-0.000854,-0.065430,0.995483,-1.464844,1.220703,11.474609
6022,-0.002319,-0.027588,0.978394,-1.342773,2.014160,11.596680
6031,-0.007568,-0.057373,0.975708,-1.098633,1.831055,11.596680
6044,-0.001953,-0.023926,0.991943,-1.159668,1.647949,11.352539
6054,-0.004028,0.027710,1.001953,-1.281738,1.647949,11.047363
6063,0.002075,-0.032227,0.983276,-0.793457,2.014160,10.986328
6073,-0.031616,-0.037842,0.961426,-0.793457,2.014160,10.864258
6082,0.010986,-0.044312,0.963135,-0.793457,1.647949,11.047363
6091,-0.009277,-0.077637,0.945557,-0.732422,1.770020,11.169434
6102,0.016357,-0.029541,0.970215,-0.610352,1.892090,11.169434
6111,0.018188,-0.038696,0.930176,-0.976562,1.525879,12.207031
6121,0.036621,-0.031860,0.915527,-0.915527,2.014160,12.451172
6132,0.024902,-0.033936,0.978394,-1.220703,1.953125,12.878418
6141,-0.015259,-0.025024,0.983521,-1.403809,1.464844,13.183594
6152,0.017944,-0.059937,0.993652,-1.403809,1.647949,13.183594
6161,-0.011230,-0.035889,0.995605,-1.586914,1.220703,13.305664
6172,0.043579,-0.060181,0.999146,-1.464844,1.892090,13.305664
6182,0.015991,-0.058594,0.980103,-1.220703,1.159668,13.122559
6191,0.053223,-0.116211,0.995239,-1.770020,0.915527,13.061523
6201,0.033203,-0.048462,1.009277,-2.136230,1.342773,13.366699
6212,0.022217,-0.006226,1.007568,-1.892090,1.098633,13.305664
6222,0.009766,-0.036987,1.015015,-1.770020,0.976562,12.939453
6232,0.025757,-0.000610,1.038574,-1.586914,0.854492,12.268066
6241,0.021606,0.044189,1.090088,-1.647949,-0.061035,11.901855
6254,0.006714,0.050171,1.064575,-1.892090,0.122070,11.352539
6263,0.057739,-0.006714,1.066895,-1.831055,0.305176,11.291504
6273,0.028442,-0.046387,1.012817,-1.281738,-0.732422,10.925293
6283,0.053467,-0.116821,1.002075,-1.037598,1.281738,10.620117
6292,0.030273,-0.055176,0.981079,-1.403809,-1.586914,9.704590
6302,0.092896,-0.069824,0.956543,-1.831055,-0.671387,9.643555
6311,0.050293,0.032227,0.962524,-2.075195,-1.403809,9.338379
6324,0.052490,-0.034058,0.976318,-1.464844,-1.586914,8.911133
6333,0.050049,-0.050781,0.983276,-1.464844,-0.793457,8.728027
6343,0.047974,-0.030396,0.988892,-1.403809,-1.647949,7.934570
6352,0.027344,-0.027222,0.999512,-1.342773,-1.953125,7.324219
6362,0.057373,-0.044922,0.978882,-1.464844,-2.502441,6.835937
6371,0.031372,-0.068848,0.966675,-0.976562,-1.831055,6.347656
6382,0.070923,-0.072876,0.995239,-0.549316,-2.258301,5.554199
6391,0.042114,-0.073364,1.006104,-0.366211,-1.708984,4.577637
6403,0.078613,0.009155,1.001709,-0.732422,-1.953125,2.014160
6412,0.102905,0.011353,1.019409,-0.610352,-3.112793,0.854492
6422,0.084717,-0.055298,0.995117,-0.305176,-4.028320,-0.610352
6432,0.086060,-0.046509,1.004761,-0.488281,-4.333496,-2.014160
6441,0.087891,-0.027100,1.043091,-0.427246,-4.516602,-3.356934
6451,0.121216,0.038452,1.066895,-0.732422,-5.310059,-4.394531
6464,0.118530,-0.023560,0.974487,-0.244141,-4.943848,-5.554199
6474,0.120483,-0.023926,1.003174,-0.366211,-5.493164,-6.103516
6483,0.124023,-0.116577,0.989990,-0.305176,-5.920410,-6.469727
6493,0.076050,-0.068848,0.987671,-0.427246,-5.981445,-6.958008
6502,0.085937,-0.059937,1.006226,-0.976562,-6.591797,-7.507324
6512,0.072998,-0.029663,0.985718,-1.464844,-5.737305,-8.117676
6521,0.063843,-0.084106,0.958130,-1.220703,-5.249023,-8.728027
6534,0.011475,0.019287,1.047607,-1.647949,-6.225586,-9.826660
6543,0.009155,-0.026123,1.033691,-1.403809,-6.042480,-10.131836
6553,0.001709,-0.017456,0.989014,-1.464844,-6.042480,-10.009766
6563,0.026245,-0.044189,1.003540,-1.281738,-5.493164,-9.765625
6572,0.018921,-0.013672,0.983765,-1.281738,-5.432129,-9.277344
6582,0.005127,-0.043091,0.979126,-1.098633,-4.516602,-8.911133
6591,0.010254,-0.071655,0.963745,-1.159668,-4.577637,-8.361816
6604,0.021729,-0.024292,0.990479,-1.770020,-3.906250,-7.568359
6613,-0.015259,0.022095,0.923706,-2.075195,-3.784180,-7.019043
6623,-0.045410,0.008667,0.944580,-2.258301,-3.417969,-6.225586
6633,-0.038452,-0.055542,0.922852,-2.014160,-2.990723,-5.554199
6642,-0.044678,0.014526,1.006226,-2.075195,-2.441406,-4.638672
6652,-0.055054,-0.022827,0.985352,-2.441406,-2.197266,-3.662109
6662,-0.077637,0.080322,0.979370,-2.746582,-1.159668,-2.563477
6672,-0.060303,0.020020,0.948364,-2.441406,0.061035,-0.427246
6681,-0.050781,-0.002319,1.002686,-2.502441,0.305176,0.671387
6692,-0.040405,0.021851,1.010986,-2.502441,0.610352,1.708984
6701,-0.053467,-0.020752,0.980591,-2.563477,1.098633,2.807617
6712,-0.058228,-0.040405,0.994385,-2.502441,1.159668,4.089355
6722,-0.059937,-0.037231,1.019653,-2.380371,1.953125,5.249023
6732,-0.051880,0.018555,1.001953,-2.441406,2.136230,6.225586
6742,-0.067749,-0.021851,0.975464,-2.075195,2.807617,8.361816
6751,-0.067261,0.025269,1.001587,-1.831055,3.662109,9.460449
6762,-0.041626,-0.009766,1.015015,-1.953125,3.662109,10.925293
6771,-0.063965,-0.044800,0.986694,-1.892090,2.624512,11.779785
6782,-0.083496,-0.026123,0.992432,-1.647949,4.333496,13.183594
6792,-0.046753,-0.032837,0.986206,-1.525879,5.187988,14.465332
6802,-0.071533,-0.042969,0.958008,-1.525879,5.615234,15.625000
6812,-0.075684,-0.059204,1.006836,-1.831055,5.981445,17.456055
6823,-0.057251,-0.017700,0.983154,-1.464844,6.896973,18.127441
6832,-0.078979,-0.070679,0.978271,-1.647949,6.286621,18.859863
6842,-0.075195,-0.085571,1.019287,-1.708984,6.530762,19.714355
6852,-0.051514,0.033203,1.011963,-1.770020,7.263184,20.812988
6862,-0.022217,0.004028,0.962646,-1.831055,7.995605,21.850586
6872,-0.018677,-0.015503,1.011597,-1.892090,7.019043,22.827148
6882,-0.004150,-0.005859,1.021729,-1.770020,8.300781,22.949219
6891,0.012207,-0.039429,0.985229,-2.075195,7.507324,22.216797
6902,0.011597,0.014526,1.004517,-2.380371,7.141113,21.118164
6912,0.053467,-0.012573,1.002686,-2.380371,6.225586,20.141602
6921,0.044312,0.027222,1.020386,-2.197266,6.774902,19.409180
6932,0.086182,-0.019165,1.033325,-2.319336,6.042480,18.920898
6941,0.104004,-0.049438,1.007690,-2.502441,5.798340,18.127441
6954,0.137573,-0.044678,0.970337,-1.892090,5.187988,16.235352
6964,0.142212,-0.046875,0.982910,-1.892090,4.028320,14.587402
6973,0.138550,-0.007935,1.006958,-2.136230,2.624512,13.000488
6982,0.157104,-0.001465,1.015015,-2.563477,2.136230,11.962891
6992,0.145020,-0.026489,0.997070,-2.563477,2.197266,11.169434
7001,0.122192,0.001221,1.003784,-2.380371,1.892090,10.986328
7012,0.121582,-0.042725,1.010010,-2.136230,1.037598,10.192871
7022,0.092163,-0.078735,0.979858,-2.319336,-0.366211,7.995605
7033,0.122437,0.007813,1.006226,-2.380371,0.061035,6.774902
7043,0.119507,-0.034424,0.977905,-2.075195,-0.610352,5.737305
7052,0.111450,-0.030518,1.000854,-2.075195,-1.403809,4.638672
7061,0.140259,-0.042603,1.025024,-1.892090,-1.525879,3.601074
7072,0.125488,-0.061279,0.997803,-1.892090,-1.647949,2.502441
7081,0.114624,0.024170,1.043335,-2.258301,-2.075195,1.586914
7094,0.106323,-0.052734,0.983521,-1.647949,-2.746582,0.549316
7103,0.078979,-0.062622,1.026611,-1.586914,-3.479004,0.061035
7113,0.057007,-0.070190,1.010376,-1.892090,-3.723145,-0.976562
7123,0.026733,-0.030029,0.996704,-1.953125,-3.173828,-1.647949
7132,0.105103,-0.031128,0.999634,-2.075195,-3.723145,-2.136230
7142,-0.010132,-0.046875,0.962402,-2.136230,-3.356934,-2.502441
7152,0.031860,-0.009277,0.982666,-1.892090,-3.723145,-2.990723
7161,0.003784,-0.044189,0.980713,-1.464844,-2.685547,-2.746582
7173,0.033081,-0.006348,0.946533,-2.380371,-2.014160,-1.831055
7183,0.067505,-0.004639,0.982422,-2.075195,-1.525879,-1.586914
7192,0.010132,0.021851,0.984741,-1.831055,-2.563477,-1.403809
7202,0.068970,-0.047852,0.984985,-1.403809,-1.708984,-1.281738
7212,0.020020,-0.050903,1.056519,-1.525879,-2.441406,-1.281738
7223,0.039551,-0.025757,1.003174,-1.892090,-1.647949,-1.159668
7233,0.006470,-0.029175,0.979980,-2.014160,-3.356934,-0.793457
7242,-0.004761,-0.078491,1.001465,-1.342773,-0.488281,-0.732422
7252,0.016602,-0.029541,1.024902,-2.197266,-4.943848,-0.854492
7262,0.026123,-0.060669,1.008423,-1.220703,-0.793457,-1.586914
7272,0.000000,-0.018677,1.020386,-2.075195,-2.624512,-1.159668
7282,0.020996,-0.017944,0.939087,-1.953125,-3.540039,-1.831055
7292,0.008301,0.089111,0.999268,-1.098633,0.427246,-1.770020
7303,0.004639,-0.052979,1.023804,-0.854492,1.098633,-0.976562
7313,0.017944,0.005615,1.064453,-1.403809,0.061035,-0.183105
7322,0.006958,0.087524,0.999023,-1.831055,0.061035,0.122070
7331,0.005859,0.043335,0.935669,-2.197266,-1.403809,0.854492
7342,0.034180,-0.010864,0.992065,-1.464844,1.159668,1.220703
7352,0.037109,-0.004883,1.072998,-1.586914,1.159668,1.770020
7362,0.029785,-0.024902,1.053833,-1.770020,1.159668,1.953125
7373,0.073730,-0.032837,0.995728,-2.136230,-2.990723,1.647949
7383,0.087524,0.043823,0.992310,-2.502441,-1.159668,1.098633
7392,0.077759,-0.049072,0.953125,-1.464844,0.488281,0.244141
7402,0.070068,-0.093506,0.988281,-1.098633,0.061035,-0.183105
7412,0.098145,-0.067383,0.989136,-1.220703,-0.366211,-0.976562
7422,0.067627,-0.023437,0.997192,-1.220703,-0.122070,-1.403809
7432,0.080933,-0.062500,0.960571,-1.098633,-0.427246,-2.258301
7442,0.052856,-0.027832,0.959595,-1.159668,-0.854492,-3.601074
7453,0.047241,0.047485,0.961670,-0.793457,-0.671387,-4.455566
7463,0.087524,-0.006836,0.967773,-0.793457,-1.281738,-5.310059
7472,0.060913,-0.049805,0.983398,-0.671387,-1.708984,-6.042480
7481,0.080933,-0.007446,1.000977,-1.037598,-1.159668,-6.469727
7492,0.036255,0.023682,0.979614,-1.403809,-1.464844,-6.835937
7502,0.043091,0.073975,0.983765,-1.464844,-1.159668,-7.385254
7513,0.008911,0.043823,1.013306,-1.342773,-0.793457,-7.629395
7523,0.017456,-0.014038,0.980713,-1.220703,-1.159668,-7.751465
7532,0.028198,0.009033,1.040771,-1.525879,-0.793457,-7.812500
7542,0.072266,-0.072632,1.023438,-1.586914,-0.915527,-7.751465
7552,0.061279,-0.022705,1.079102,-1.708984,-0.915527,-7.446289
7562,0.070923,-0.034424,1.080688,-1.892090,-0.976562,-7.324219
7573,0.109619,-0.014282,0.966431,-1.464844,-0.732422,-6.347656
7583,0.171509,-0.142334,0.998901,-0.915527,-1.281738,-6.164551
7593,0.096191,-0.118896,1.105835,-1.281738,-1.220703,-6.103516
7602,0.044189,-0.031372,0.990967,-1.708984,-2.258301,-6.286621
7612,-0.005371,0.023682,0.947632,-1.586914,-3.051758,-6.713867
7622,0.046265,0.001221,1.003906,-1.159668,-2.563477,-7.141113
7632,0.050781,-0.089966,0.996826,-0.671387,-2.685547,-7.080078
7644,0.010864,-0.027710,1.053955,-1.342773,-1.708984,-6.958008
7653,-0.039429,-0.002563,0.931152,-1.525879,-1.342773,-6.958008
7663,0.021973,-0.011841,1.005249,-1.464844,-1.159668,-7.385254
7673,0.039185,-0.086670,1.005493,-1.647949,-1.342773,-7.263184
7682,-0.025146,-0.010864,1.005615,-1.892090,-0.854492,-7.080078
7692,-0.015625,0.001099,0.967407,-1.892090,0.061035,-7.202148
7703,-0.063110,-0.035400,0.921997,-1.403809,-0.122070,-7.263184
7712,-0.047607,-0.056763,0.952271,-1.159668,0.000000,-7.263184
7722,-0.052856,-0.051392,0.990845,-1.159668,1.281738,-6.774902
7733,-0.026123,-0.036255,1.004150,-1.342773,1.525879,-6.896973
7743,-0.042969,-0.035278,0.963013,-1.281738,1.953125,-6.652832
7752,0.006104,-0.032593,0.980225,-1.220703,2.075195,-6.408691
7762,0.046753,-0.028809,0.993408,-1.159668,2.441406,-6.103516
7772,0.031128,-0.045532,0.996216,-1.098633,2.563477,-6.164551
7784,0.097900,-0.061035,1.004883,-1.647949,2.075195,-6.042480
7793,0.046265,-0.014160,0.999878,-1.525879,2.197266,-6.103516
7803,0.050293,-0.035156,0.965454,-1.281738,3.112793,-5.676270
7812,-0.012329,-0.043579,1.017090,-1.403809,3.295898,-5.615234
7822,0.003174,-0.046509,1.039551,-1.403809,2.441406,-5.920410
7832,-0.019897,-0.089966,1.025513,-1.159668,2.685547,-6.164551
7842,-0.069946,-0.055176,1.049194,-1.403809,2.929688,-6.530762
7854,-0.005371,-0.031250,1.005249,-1.159668,3.723145,-6.347656
7863,-0.059204,-0.016479,1.018677,-1.342773,4.089355,-5.981445
7873,0.020020,-0.021851,0.978394,-1.281738,4.272461,-5.187988
7883,-0.013428,-0.013550,0.973511,-1.342773,5.249023,-4.455566
7892,0.001221,-0.020264,1.008057,-1.708984,4.821777,-4.455566
7902,0.071655,-0.049438,1.036011,-1.708984,4.943848,-4.272461
7912,0.043701,-0.007446,1.051758,-2.136230,4.943848,-3.784180
7923,0.051514,0.029907,1.031250,-2.441406,5.249023,-3.417969
7933,0.058105,0.060547,1.026733,-2.502441,4.638672,-2.929688
7943,0.073608,0.062134,0.997803,-2.319336,3.906250,-2.929688
7953,0.074097,0.081665,1.026978,-2.197266,4.272461,-2.197266
7962,0.041382,0.122314,1.022339,-2.197266,4.638672,-1.647949
7972,0.053345,0.091187,0.964722,-2.258301,5.371094,-1.281738
7982,0.068359,0.084839,0.964233,-2.319336,5.371094,-0.549316
7992,-0.009277,0.131958,1.025757,-2.746582,5.310059,-0.061035
8004,0.247803,0.080200,0.906494,-2.807617,5.493164,0.366211
8015,0.065796,0.019775,0.989868,-3.173828,4.272461,0.061035
8024,0.152710,0.089722,1.036377,-3.479004,1.647949,-1.037598
8034,0.280640,0.009766,0.974365,-2.685547,2.197266,-1.159668
8043,0.288696,-0.023071,0.924438,-2.319336,1.647949,-0.854492
8053,0.280151,-0.036255,1.028809,-2.197266,1.831055,-0.366211
8062,0.169312,0.014404,1.097534,-2.502441,1.403809,0.122070
8074,0.085815,-0.017212,0.919922,-2.075195,1.037598,0.183105
8083,0.081909,0.020508,0.927979,-2.380371,0.549316,0.732422
8093,0.073730,0.041626,1.007446,-2.197266,1.342773,0.854492
8103,0.024292,0.028442,1.003784,-2.197266,0.610352,0.183105
8112,-0.028320,-0.022095,0.983032,-1.770020,0.366211,-0.061035
8123,-0.032227,-0.022949,0.976562,-2.014160,1.220703,0.061035
8133,-0.036743,0.057739,1.004761,-2.441406,2.258301,1.342773
8142,-0.043579,0.120728,1.037598,-1.831055,2.807617,2.502441
8153,-0.011230,0.012939,0.937134,-1.342773,2.624512,3.601074
8162,0.015869,0.011719,0.961670,-0.915527,3.173828,4.394531
8172,0.068237,0.041504,1.006104,-1.220703,3.662109,5.004883
8183,0.083130,0.089844,1.037476,-1.586914,3.112793,5.737305
8192,0.078369,0.079468,1.031006,-1.464844,4.089355,6.042480
8204,0.119629,0.034912,1.004272,-1.464844,3.356934,7.141113
8213,0.146851,0.045532,0.979004,-1.770020,3.173828,7.385254
8223,0.128540,0.039795,0.988403,-1.831055,2.624512,7.263184
8232,0.135376,0.064819,1.030518,-2.075195,2.197266,6.896973
8243,0.151367,0.058350,1.043457,-1.770020,2.136230,6.286621
8252,0.151855,0.037354,1.036011,-1.342773,1.770020,5.310059
8262,0.157593,0.024658,1.035156,-1.098633,1.403809,4.333496
8275,0.115723,-0.002808,0.978882,-1.098633,-0.183105,2.319336
8285,0.098389,-0.001831,0.968384,-1.098633,0.366211,1.403809
8294,0.099365,0.019165,0.997192,-1.586914,-0.061035,0.793457
8304,0.094849,0.014282,1.009644,-1.708984,0.122070,0.183105
8313,0.091553,-0.006836,0.995850,-1.647949,-0.244141,0.061035
8323,0.102051,-0.000854,1.008301,-1.831055,-0.488281,-0.244141
8333,0.100952,0.008789,1.020996,-1.953125,-0.732422,-0.244141
8342,0.088623,0.011719,1.004883,-1.953125,-0.732422,15.380859
8354,0.084717,-0.007202,0.987915,-2.075195,-0.976562,0.671387
8363,0.095215,-0.011597,1.017944,-1.892090,-0.244141,1.403809
8373,0.109497,-0.023193,1.036377,-1.708984,-0.244141,2.014160
8382,0.106079,-0.044067,1.016968,-1.586914,-0.427246,2.075195
8393,0.074097,-0.051392,0.998291,-1.464844,-0.732422,2.197266
8402,0.053833,-0.039307,1.002197,-1.525879,-0.427246,2.502441
8412,0.067261,-0.036987,1.001831,-1.647949,-1.220703,2.624512
8424,0.081543,-0.057495,0.978271,-1.098633,-2.136230,2.441406
8433,0.088135,-0.048096,0.990723,-1.342773,-2.258301,2.502441
8443,0.089600,-0.036499,1.005981,-1.464844,-2.258301,2.441406
8452,0.088623,-0.030029,1.022339,-1.037598,-2.075195,2.563477
8463,0.082520,-0.031982,1.019775,-0.854492,-2.075195,2.624512
8472,0.088867,-0.028076,1.011230,-0.854492,-1.953125,2.624512
8485,0.070679,-0.014648,0.984741,-0.854492,-2.075195,2.380371
8494,0.053101,-0.014038,0.972656,-0.671387,-2.075195,1.708984
8504,0.069458,-0.014160,0.974731,-0.915527,-2.441406,1.831055
8513,0.089478,-0.010986,0.994263,-1.037598,-2.502441,1.647949
8522,0.103760,-0.009277,1.007202,-1.098633,-2.990723,1.770020
8533,0.118896,-0.011719,1.017090,-0.854492,-3.356934,2.197266
8542,0.133057,-0.013672,1.024170,-0.854492,-3.173828,2.990723
8554,0.142456,-0.026367,1.028320,-0.244141,-2.441406,4.028320
8563,0.112427,-0.071777,1.021484,-0.061035,-2.990723,4.516602
8573,0.104126,-0.086670,1.013306,0.061035,-3.479004,4.516602
8583,0.095215,-0.104004,0.997925,0.183105,-3.784180,4.333496
8592,0.088745,-0.123169,0.968140,0.000000,-4.760742,3.784180
8603,0.093140,-0.137085,0.950195,0.244141,-4.394531,3.784180
8612,0.088745,-0.168457,0.950073,0.427246,-5.249023,3.845215
8625,0.051514,-0.197266,0.948120,0.732422,-4.455566,3.234863
8635,0.097656,-0.216553,0.966675,0.427246,-4.028320,3.356934
8644,0.046509,-0.173218,0.989502,0.122070,-4.394531,2.624512
8653,0.018188,-0.200928,1.020874,0.061035,-4.150391,2.807617
8663,0.002563,-0.231445,1.002686,0.122070,-3.784180,3.295898
8673,0.002930,-0.267578,1.003906,-0.061035,-3.540039,4.333496
8683,-0.020508,-0.193726,1.059326,-0.488281,-3.662109,5.371094
8692,-0.041748,-0.158203,0.986694,-0.732422,-3.540039,5.737305
8704,0.013550,-0.187134,0.927734,-0.610352,-3.967285,7.019043
8714,0.035278,-0.222168,0.921631,-0.427246,-3.479004,7.324219
8723,0.063110,-0.218018,0.953613,-0.610352,-3.051758,7.934570
8733,0.080200,-0.177734,1.010986,-0.854492,-2.685547,8.728027
8742,0.088989,-0.166626,1.029419,-0.915527,-2.197266,10.192871
8753,0.105835,-0.151978,1.020020,-0.976562,-1.708984,12.695313
8763,0.113281,-0.171387,0.998535,-0.549316,-2.380371,15.625000
8772,0.050049,-0.225098,0.968628,-0.732422,-2.502441,15.991211
8783,0.041382,-0.245972,0.967041,-0.976562,-2.563477,15.563965
8792,0.038696,-0.230347,0.976929,-1.220703,-2.319336,14.892578
8803,0.009644,-0.219238,0.969604,-0.976562,-2.990723,13.305664
8812,0.016602,-0.257202,0.965088,-0.671387,-2.685547,11.169434
8823,0.004761,-0.259644,0.966797,-0.671387,-2.929688,8.728027
8833,-0.041748,-0.236206,1.012939,-0.549316,-2.319336,4.882812
8842,-0.043945,-0.223633,1.044556,-0.549316,-2.014160,2.746582
8853,-0.023560,-0.186035,0.985229,-0.366211,-2.136230,0.671387
8863,-0.009399,-0.235840,0.920898,0.061035,-2.075195,-1.037598
8873,0.052246,-0.279419,0.904907,-0.183105,-1.953125,-2.441406
8882,0.095459,-0.298706,0.913208,-0.610352,-2.380371,-3.662109
8893,0.101685,-0.273560,0.964478,-1.220703,-2.563477,-3.723145
8903,0.090454,-0.235474,1.006104,-1.159668,-2.624512,-3.112793
8914,0.053589,-0.278564,0.989014,-0.976562,-2.380371,-2.624512
8924,0.027832,-0.306885,0.975464,-0.366211,-2.624512,-2.441406
8934,-0.000732,-0.301392,0.987183,-0.183105,-2.624512,-2.197266
8943,-0.023071,-0.233032,1.032959,-0.549316,-2.624512,-1.464844
8953,-0.058960,-0.211548,1.031250,-0.244141,-2.014160,0.000000
8962,-0.083862,-0.239624,0.999146,0.000000,-1.770020,1.403809
8972,-0.111450,-0.274536,0.933472,0.183105,-0.793457,3.906250
8984,-0.094360,-0.234863,0.940308,-0.610352,0.427246,4.882812
8993,-0.124146,-0.235107,0.989258,-1.098633,0.610352,5.126953
9003,-0.117920,-0.208740,1.014648,-1.220703,0.915527,4.882812
9012,-0.075806,-0.211548,1.011475,-0.854492,1.159668,4.882812
9023,-0.043457,-0.211304,1.013062,-0.793457,2.014160,5.126953
9033,-0.009521,-0.237427,0.996826,-0.671387,2.197266,5.554199
9043,0.010742,-0.250488,0.982056,-1.037598,2.075195,5.920410
9054,0.052734,-0.236328,0.976562,-1.098633,2.319336,5.676270
9063,0.094116,-0.268677,0.988037,-1.098633,2.746582,5.920410
9073,0.107056,-0.265869,0.989868,-1.281738,2.380371,6.286621
9083,0.109741,-0.237061,0.994263,-1.464844,2.197266,6.591797
9093,0.119629,-0.204224,0.999512,-1.525879,1.953125,6.896973
9103,0.123169,-0.226440,0.993774,-1.464844,1.892090,7.629395
9113,0.083130,-0.259277,0.947266,-1.281738,1.464844,7.751465
9124,0.053467,-0.252686,0.999512,-1.525879,1.342773,7.629395
9134,0.045288,-0.282837,0.966919,-1.770020,1.708984,8.361816
9143,0.010620,-0.256348,0.951904,-1.892090,1.525879,8.178711
9153,0.004272,-0.228638,0.958984,-1.953125,1.464844,7.873535
9163,-0.010498,-0.280396,0.957397,-1.892090,1.892090,7.934570
9174,-0.014038,-0.321411,0.992310,-2.075195,1.037598,5.676270
9184,0.046021,-0.261353,1.008057,-2.075195,1.220703,4.943848
9193,0.065063,-0.262573,0.982788,-1.892090,0.793457,4.272461
9203,0.100098,-0.253540,0.968872,-1.708984,0.671387,3.845215
9213,0.100952,-0.266479,0.976807,-1.708984,0.732422,4.150391
9223,0.081177,-0.285522,0.996704,-1.770020,0.427246,3.967285
9233,0.102905,-0.253418,0.995117,-1.647949,0.488281,3.723145
9242,0.121216,-0.268066,0.983643,-1.464844,0.183105,3.662109
9254,0.140259,-0.302002,0.953369,-1.708984,-0.122070,3.173828
9264,0.122437,-0.290771,0.962036,-1.831055,-1.098633,2.014160
9273,0.102051,-0.262207,0.960449,-2.075195,-1.831055,1.708984
9283,0.083252,-0.271240,0.957764,-1.464844,-1.464844,1.953125
9293,0.057007,-0.303589,0.979736,-1.831055,-1.281738,2.319336
9303,0.066040,-0.287354,1.003784,-1.953125,-1.098633,2.319336
9313,0.038696,-0.202881,1.007813,-2.319336,-1.342773,1.708984
9323,0.015137,-0.195312,0.976685,-2.136230,-2.197266,-0.183105
9334,-0.000366,-0.234741,0.991455,-2.075195,-2.014160,-0.610352
9344,-0.007080,-0.194214,0.995117,-2.380371,-2.075195,-0.854492
9353,-0.034668,-0.212158,0.990356,-2.258301,-1.831055,-0.366211
9363,-0.033325,-0.262085,0.965210,-2.258301,-1.647949,0.427246
9373,0.006470,-0.260010,0.949951,-2.502441,-1.159668,1.647949
9383,0.055054,-0.224609,0.978882,-2.685547,-0.671387,2.685547
9393,0.055054,-0.237305,0.991211,-2.014160,-0.915527,2.807617
9403,0.047485,-0.318115,1.001587,-2.197266,-1.159668,1.953125
9413,0.038940,-0.269775,1.001099,-2.258301,-0.915527,0.671387
9423,0.026855,-0.306763,0.955200,-2.075195,-1.098633,-1.159668
9433,0.035889,-0.334106,0.942749,-2.136230,-1.037598,-3.295898
9443,0.036743,-0.327148,0.963867,-2.441406,-1.403809,-5.432129
9453,0.062256,-0.270020,0.971558,-2.807617,-1.953125,-7.202148
9463,0.047974,-0.292969,1.024292,-2.746582,-2.868652,-10.437012
9474,0.111938,-0.246216,1.033081,-2.502441,-3.356934,-10.864258
9484,0.131836,-0.327881,0.963867,-2.380371,-3.417969,-10.864258
9494,0.101929,-0.257324,1.000610,-2.197266,-3.723145,-10.498047
9503,0.112427,-0.230957,0.974365,-2.319336,-3.051758,-9.826660
9513,0.101929,-0.201538,0.954346,-2.380371,-3.234863,-9.277344
9523,0.129517,-0.264160,0.992798,-2.258301,-3.356934,-8.911133
9533,0.138916,-0.343628,0.979614,-2.197266,-3.173828,-8.178711
9544,0.183228,-0.313721,0.979370,-1.892090,-3.662109,-8.239746
9554,0.119629,-0.318848,0.936401,-2.014160,-4.699707,-8.728027
9564,0.001709,-0.186768,0.997314,-2.014160,-5.554199,-9.277344
9573,-0.013062,-0.162964,0.973022,-1.892090,-5.004883,-8.972168
9583,0.012817,-0.090698,0.982788,-1.647949,-4.089355,-7.873535
9594,0.038696,-0.049194,0.940918,-1.342773,-2.746582,-5.676270
9604,-0.058838,-0.015991,0.964966,-1.586914,-3.051758,-4.699707
9614,-0.029541,0.050537,0.976196,-2.014160,-2.685547,-3.479004
9623,-0.004395,-0.037109,0.981934,-1.953125,-1.892090,-2.319336
9633,0.033936,-0.024780,1.021118,-1.831055,-0.854492,-1.281738
9643,0.028320,-0.013916,1.038452,-1.831055,-0.366211,-0.610352
9653,-0.011475,-0.137573,1.004639,-1.464844,-0.549316,-0.427246
9663,-0.022705,-0.114990,1.042480,-1.159668,-0.427246,-0.305176
9673,-0.033936,-0.058350,1.042480,-1.647949,0.305176,0.061035
9684,-0.068481,-0.057617,1.004272,-1.586914,0.305176,-0.488281
9693,-0.150146,-0.042725,0.986206,-1.770020,-0.122070,-0.854492
9703,-0.167358,-0.085083,1.010986,-1.831055,0.793457,-1.403809
9713,-0.088257,-0.053101,1.021362,-2.014160,1.281738,-0.915527
9723,-0.026855,-0.011841,0.977661,-2.258301,1.770020,0.061035
9733,0.021606,-0.052246,0.940918,-2.258301,2.075195,1.525879
9744,0.043335,-0.093384,0.975342,-1.892090,1.892090,5.371094
9754,0.046631,-0.058960,1.023560,-2.075195,3.173828,7.690430
9763,0.055176,-0.086670,1.063843,-1.892090,3.967285,9.460449
9773,0.072266,-0.051270,1.046997,-1.647949,4.211426,10.437012
9783,0.060181,-0.062622,1.045166,-1.525879,3.173828,10.620117
9793,0.070679,-0.105835,1.014648,-1.037598,2.929688,10.009766
9803,0.010986,-0.068359,1.000366,-1.586914,1.953125,9.948730
9813,-0.008057,-0.055298,0.971069,-1.159668,2.807617,11.047363
9824,0.013428,-0.105713,0.972534,-0.976562,4.089355,12.390137
9834,0.008057,-0.123901,0.946655,-1.342773,4.272461,13.305664
9843,0.023437,-0.173950,0.970215,-1.464844,3.112793,13.488770
9854,0.013306,-0.090454,1.011108,-1.586914,2.685547,14.099121
9863,0.062866,-0.070679,1.031128,-1.647949,2.685547,15.075684
9873,0.096680,-0.127930,1.019043,-1.281738,2.746582,16.540527
9884,0.136719,-0.128174,1.017822,-1.342773,1.953125,20.141602
9894,0.050903,-0.129883,1.021240,-1.037598,2.502441,21.972656
9903,-0.033569,-0.079468,0.966797,-1.464844,3.051758,23.193359
9913,-0.084229,-0.078247,0.936157,-1.708984,4.028320,24.353027
9924,-0.135132,-0.065308,0.968384,-1.525879,4.821777,24.780273
9933,-0.135010,-0.080322,0.950439,-1.342773,4.272461,24.780273
9945,-0.137451,-0.044312,0.918335,-1.281738,4.333496,25.085449
9955,0.011353,-0.079468,0.866211,-1.586914,4.760742,25.634766
9964,-0.150146,-0.102417,0.910645,-1.464844,5.615234,26.062012
9973,0.080200,-0.230225,0.980835,-0.854492,5.981445,26.977539
9983,0.028931,-0.204712,1.049316,-1.342773,6.347656,27.343750
9993,0.077515,-0.107178,1.069702,-1.831055,6.164551,27.832031
10003,0.050903,-0.058960,0.882202,-1.831055,5.187988,28.015137
10013,-0.016724,-0.102905,1.093140,-1.647949,4.943848,27.832031
10023,0.134766,-0.048462,1.010620,-1.647949,5.859375,28.930664
10033,0.266602,-0.244873,0.863403,-1.159668,6.591797,28.808594
10043,0.039429,-0.051147,1.058228,-1.281738,4.943848,28.381348
10054,-0.028931,-0.156250,1.074341,-1.342773,1.953125,27.038574
10063,-0.071411,-0.120483,0.980469,-1.342773,-0.122070,25.817871
10073,-0.030518,0.013062,0.940063,-1.403809,0.061035,26.000977
10085,0.136230,-0.136597,1.011230,-0.854492,3.540039,30.578613
10094,0.163940,-0.201294,1.068237,-0.732422,3.845215,32.104492
10103,0.067993,-0.199829,1.007568,-0.793457,2.929688,33.020020
10113,0.144653,-0.185059,1.026733,-1.098633,2.136230,33.203125
10123,0.052246,-0.100708,1.026367,-0.854492,2.319336,32.348633
10133,0.053589,-0.244873,0.996460,-0.732422,1.159668,30.700684
10143,-0.022705,-0.189941,0.973145,-0.793457,0.061035,29.113770
10155,-0.003174,-0.133545,0.987183,-0.488281,-0.915527,26.916504
10164,0.070435,-0.137939,0.979614,-0.549316,-0.732422,26.367187
10174,0.099121,-0.163818,1.046875,-0.305176,-0.915527,26.428223
10184,0.134155,-0.184692,1.003784,0.000000,-0.732422,25.695801
10193,0.088135,-0.185913,0.996704,-0.305176,-2.319336,24.230957
10204,0.072510,-0.190186,0.974243,-0.122070,-2.868652,22.460937
10213,0.121460,-0.187622,0.975952,-0.122070,-3.417969,20.446777
10223,0.120117,-0.135620,0.932617,-0.183105,-3.601074,18.981934
10233,0.165649,-0.193604,1.007690,0.183105,-5.432129,16.906738
10244,0.209717,-0.049927,1.018311,0.244141,-6.164551,17.150879
10253,0.215088,-0.091797,1.035889,0.854492,-6.835937,17.822266
10264,0.161133,-0.145508,0.990112,1.281738,-7.446289,18.554687
10273,0.099854,-0.174316,0.940918,1.464844,-7.568359,18.493652
10284,0.082275,-0.265503,0.925903,1.403809,-7.873535,17.700195
10293,0.026611,-0.215698,0.988525,1.037598,-8.300781,15.441895
10305,0.014038,-0.228394,1.010498,0.549316,-9.521484,8.544922
10314,0.045776,-0.215454,1.034790,0.549316,-10.253906,5.004883
10324,0.105591,-0.243530,1.065796,0.915527,-11.108398,2.014160
10333,0.107666,-0.275879,1.013428,1.037598,-11.474609,-0.549316
10344,0.134766,-0.266602,0.983887,0.793457,-11.962891,-3.051758
10354,0.166138,-0.290039,0.981323,0.732422,-12.268066,-5.126953
10363,0.160767,-0.265381,0.974854,0.549316,-12.817383,-7.385254
10375,0.138062,-0.294434,0.908325,0.305176,-14.587402,-12.573242
10384,0.095825,-0.218750,0.974731,-0.305176,-14.953613,-15.075684
10394,0.097900,-0.269775,1.013550,-0.549316,-15.136719,-17.211914
10403,0.090332,-0.223877,1.029663,-1.037598,-15.319824,-18.920898
10413,0.067383,-0.275024,0.972778,-1.098633,-14.892578,-20.263672
10424,0.058594,-0.259888,0.934082,-0.976562,-15.014648,-21.301270
10433,0.051270,-0.206421,0.922607,-0.915527,-15.075684,-22.888184
10445,0.002075,-0.228516,0.986084,-1.037598,-14.587402,-23.681641
10455,-0.016357,-0.257446,1.017578,-1.647949,-14.526367,-24.108887
10465,-0.045776,-0.297241,1.015869,-2.014160,-13.610840,-23.803711
10475,-0.050537,-0.282349,0.968262,-2.197266,-12.878418,-23.315430
10485,-0.036865,-0.201050,0.963989,-1.892090,-12.145996,-22.399902
10494,-0.009033,-0.249756,0.970703,-1.525879,-10.986328,-21.179199
10504,-0.062012,-0.326172,0.940186,-1.464844,-10.009766,-18.981934
10514,-0.063965,-0.305786,1.014282,-1.831055,-8.911133,-17.822266
10524,0.000122,-0.266602,0.979248,-1.953125,-8.361816,-16.662598
10534,-0.009399,-0.268066,0.975342,-1.892090,-8.117676,-15.502930
10544,-0.018066,-0.249268,0.986206,-1.647949,-7.568359,-14.221191
10553,-0.034058,-0.329956,0.969238,-1.525879,-7.019043,-13.183594
10563,-0.057373,-0.337646,0.952271,-1.342773,-6.469727,-12.084961
10575,-0.037720,-0.288452,1.005493,-1.831055,-5.249023,-10.009766
10584,-0.012329,-0.230835,1.029297,-1.647949,-5.371094,-9.155273
10594,-0.018066,-0.195312,1.025391,-1.037598,-5.187988,-8.178711
10603,-0.015015,-0.285156,0.951904,-0.549316,-5.249023,-7.202148
10614,0.005249,-0.223877,0.987305,-0.366211,-4.577637,-5.798340
10624,-0.021362,-0.239136,0.971436,-0.488281,-3.601074,-4.150391
10633,-0.035278,-0.202271,0.983032,-0.549316,-2.990723,-2.563477
10646,-0.032227,-0.180420,1.005371,0.061035,-2.136230,-0.183105
10656,-0.047607,-0.208862,1.028931,0.305176,-2.136230,0.610352
10665,-0.049438,-0.225952,0.971436,0.427246,-1.770020,0.732422
10675,-0.068848,-0.209473,0.970215,0.183105,-1.892090,0.976562
10684,-0.059814,-0.151978,0.982666,0.061035,-1.525879,1.098633
10693,-0.067505,-0.184570,0.961182,0.061035,-1.098633,1.525879
10704,-0.079346,-0.167603,1.020020,0.122070,-1.037598,2.075195
10713,-0.071289,-0.196899,0.982544,-0.061035,-0.671387,2.441406
10725,-0.083984,-0.165283,1.012207,-0.732422,0.183105,4.211426
10734,-0.085205,-0.120972,0.985352,-0.854492,0.732422,4.882812
10743,-0.047241,-0.130249,0.967285,-0.610352,1.098633,6.103516
10754,-0.042847,-0.145264,0.949829,-0.610352,1.037598,6.774902
10764,-0.042847,-0.100220,0.963989,-0.854492,0.976562,7.202148
10774,-0.069946,-0.109009,1.019897,-1.037598,0.671387,7.751465
10786,-0.119995,-0.096313,0.953003,-1.037598,2.380371,8.056641
10796,-0.128906,-0.161377,0.924072,-1.220703,2.807617,7.934570
10805,-0.130859,-0.123779,0.962036,-1.464844,2.746582,7.629395
10814,-0.096191,-0.121094,1.021484,-1.342773,3.417969,6.835937
10824,-0.091797,-0.111450,1.037964,-1.342773,2.807617,5.859375
10834,-0.039795,-0.073608,1.040649,-0.854492,2.563477,4.577637
10843,-0.028931,-0.122314,0.984863,-0.610352,2.380371,3.356934
10856,0.051514,-0.134155,0.965576,-0.122070,2.014160,1.525879
10865,0.096558,-0.112671,0.977783,0.000000,1.770020,1.098633
10875,0.096558,-0.114502,1.031860,-0.061035,1.281738,0.488281
10884,0.117432,-0.178101,0.985229,-0.305176,0.427246,-0.427246
10893,0.107544,-0.137695,1.026855,-0.061035,0.549316,-1.708984
10904,0.138428,-0.175781,1.001343,-0.427246,-0.671387,-3.173828
10914,0.145508,-0.156006,0.996948,-0.366211,-1.220703,-4.943848
10924,0.170776,-0.151489,1.011475,-0.244141,-2.868652,-7.324219
10934,0.140747,-0.205933,1.014893,-0.366211,-3.479004,-8.300781
10943,0.044556,-0.227661,0.994019,-0.183105,-4.272461,-9.704590
10954,0.070923,-0.262451,0.960937,-0.122070,-5.065918,-11.962891
10964,0.073364,-0.249146,0.969482,-0.183105,-4.272461,-14.160156
10974,0.032471,-0.252319,0.965332,-0.366211,-3.906250,-16.357422
10984,0.050537,-0.155273,1.004761,-0.549316,-4.089355,-18.676758
10993,-0.004395,-0.163818,1.032471,-0.671387,-5.310059,-24.169922
11005,0.024780,-0.161011,1.011475,-0.854492,-5.981445,-26.245117
11014,0.098022,-0.153809,0.954712,-1.037598,-5.554199,-27.648926
11024,0.117798,-0.061035,1.015137,-1.159668,-5.981445,-28.869629
11033,0.168091,-0.067993,0.995239,-0.854492,-5.676270,-29.296875
11044,0.161865,-0.165283,0.915405,-0.305176,-6.408691,-29.724121
11054,0.162964,-0.175415,0.946533,-1.159668,-6.408691,-29.846191
11064,0.151367,-0.153687,0.949951,-1.708984,-6.347656,-29.724121
11073,0.058472,-0.084229,1.014404,-1.586914,-6.286621,-29.113770
11084,-0.016235,-0.168579,0.949707,-1.586914,-5.126953,-28.137207
11094,-0.030396,-0.022095,0.982910,-2.014160,-4.150391,-27.221680
11104,-0.061401,-0.012451,0.980469,-2.563477,-4.028320,-25.695801
11114,-0.082642,-0.110962,0.948242,-2.685547,-2.990723,-23.498535
11124,-0.116211,-0.077637,0.976929,-2.502441,-2.258301,-20.935059
11133,-0.148437,-0.101563,1.020630,-2.807617,-1.037598,-17.028809
11145,-0.169189,-0.042236,1.014526,-2.624512,1.586914,-15.380859
11155,-0.149536,-0.102783,1.016724,-2.197266,2.624512,-13.854980
11164,-0.155273,-0.209106,0.911255,-1.586914,3.479004,-12.695313
11173,-0.167236,-0.169556,0.949463,-1.831055,4.394531,-11.535645
11184,-0.188965,-0.160400,0.978638,-2.075195,4.272461,-10.314941
11194,-0.135376,-0.102295,0.984741,-1.953125,5.432129,-8.728027
11203,-0.095703,-0.191040,0.962402,-1.586914,7.202148,-6.225586
11215,-0.090088,-0.243042,0.937134,-1.647949,7.812500,-5.554199
11225,-0.081909,-0.277466,0.978149,-1.770020,8.117676,-5.187988
11234,-0.077271,-0.276001,0.996948,-1.831055,8.666992,-4.638672
11243,-0.052368,-0.243896,1.003052,-1.831055,8.666992,-4.272461
11254,-0.028442,-0.245117,1.016357,-1.892090,9.216309,-3.967285
11264,-0.032227,-0.270386,0.971069,-1.586914,9.277344,-3.540039
11276,-0.004639,-0.224854,1.040649,-0.732422,9.521484,-3.173828
11286,-0.007446,-0.269775,1.000610,-0.427246,9.521484,-2.990723
11295,0.017090,-0.219849,0.985229,-0.610352,9.338379,-2.868652
11305,0.038208,-0.178833,0.999634,-0.610352,9.765625,-2.380371
11314,0.040527,-0.205200,0.978882,-0.488281,10.009766,-1.708984
11323,0.007813,-0.263428,0.970825,-0.427246,9.155273,-1.159668
11334,-0.003906,-0.228760,0.967407,-0.610352,9.521484,-0.488281
11343,0.020264,-0.152588,0.954346,-0.549316,9.826660,1.220703
11355,0.033936,-0.230469,0.912842,-0.976562,9.521484,2.563477
11364,0.000488,-0.277832,0.864136,-1.403809,9.582520,4.028320
11373,-0.027588,-0.221069,0.955078,-2.014160,10.253906,5.676270
11384,-0.051758,-0.114380,0.997314,-2.319336,10.437012,6.835937
11394,-0.042236,-0.094727,0.990479,-2.441406,10.498047,8.300781
11404,-0.042603,-0.104004,1.006226,-2.441406,11.230469,9.887695
11414,-0.020996,-0.188477,0.943848,-2.136230,11.108398,11.840820
11423,-0.029175,-0.262573,0.990234,-2.136230,10.864258,12.512207
11434,-0.068237,-0.143311,1.020996,-2.197266,10.803223,13.610840
11444,-0.078247,-0.156006,1.042236,-2.075195,10.864258,15.075684
11454,-0.050903,-0.192627,0.979370,-1.586914,12.023926,16.296387
11464,-0.034058,-0.301025,0.976074,-1.586914,12.023926,17.456055
11474,-0.054443,-0.321777,0.923218,-1.525879,11.596680,18.249512
11484,-0.051758,-0.242187,0.969849,-1.831055,10.742188,18.127441
11495,0.011353,-0.227905,0.913696,-2.319336,10.131836,17.578125
11504,0.012939,-0.229614,0.950073,-2.380371,9.765625,16.906738
11514,0.008423,-0.209717,0.990234,-2.197266,9.033203,16.296387
11524,0.056885,-0.131714,0.982300,-1.708984,8.850098,15.747070
11534,0.072754,-0.113647,0.972656,-1.464844,9.033203,15.625000
11544,0.078491,-0.171265,0.938232,-1.159668,8.300781,15.808105
11554,0.085815,-0.120483,1.034302,-1.159668,7.751465,15.380859
11565,0.060791,-0.109253,1.045288,-1.464844,6.774902,15.014648
11574,0.069702,-0.082275,1.067749,-1.281738,6.774902,14.282227
11584,0.017944,-0.080078,1.061035,-0.854492,6.042480,13.366699
11594,0.066528,-0.127563,1.043213,-0.915527,5.004883,11.962891
11604,0.050293,-0.077271,1.001221,-1.220703,4.455566,10.864258
11614,0.117554,-0.033203,1.063110,-1.159668,4.211426,9.887695
11626,0.147949,-0.054077,1.045532,-0.549316,3.662109,9.826660
11636,0.145020,-0.113159,1.086548,-0.732422,2.990723,10.009766
11645,0.137817,-0.118530,1.070557,-0.610352,2.502441,10.620117
11655,0.069092,-0.113647,1.051514,-0.732422,2.441406,10.864258
11664,0.057983,-0.070679,1.053101,-0.671387,2.685547,11.108398
11673,0.014038,-0.120850,1.071289,-0.183105,2.441406,11.352539
11684,-0.003296,-0.163208,1.039185,0.122070,2.563477,11.291504
11694,-0.021240,-0.205688,0.990479,-0.732422,1.953125,11.779785
11705,-0.064331,-0.130737,1.000244,-1.220703,1.770020,12.329102
11715,-0.048950,-0.157104,0.902100,-1.159668,2.258301,13.305664
11724,-0.045288,-0.233765,0.864502,-1.281738,3.173828,14.465332
11734,-0.043823,-0.246216,0.866699,-1.770020,3.173828,14.953613
11745,-0.026855,-0.116577,0.988525,-2.441406,2.807617,15.563965
11754,-0.014038,-0.029663,1.035645,-2.197266,3.540039,16.845703
11765,-0.006470,-0.126831,0.995361,-1.770020,3.356934,19.470215
11775,-0.025269,-0.112427,1.042969,-0.671387,4.150391,21.179199
11784,0.007324,-0.118164,0.974487,-0.549316,4.394531,22.644043
11794,0.030762,-0.171875,1.014038,-0.366211,3.784180,23.864746
11804,0.044434,-0.012573,0.990234,-0.610352,3.234863,24.963379
11814,0.005371,-0.107056,0.965088,-0.183105,2.990723,25.817871
11824,0.028687,-0.079224,0.980835,-0.305176,2.685547,26.916504
11836,-0.000488,-0.028687,0.994629,-0.366211,3.112793,29.113770
11846,-0.019165,-0.133545,0.956543,-0.366211,3.479004,29.602051
11855,-0.041992,-0.120239,0.979492,-0.488281,2.746582,29.846191
11864,-0.022217,-0.038574,1.016113,-0.488281,2.319336,29.357910
11874,-0.042236,-0.127808,1.040405,-0.427246,1.770020,28.503418
11884,-0.005981,-0.056763,1.104004,-0.122070,1.037598,27.709961
11894,0.007080,-0.070557,1.059692,0.671387,0.671387,26.855469
11906,0.055908,-0.219482,0.998535,1.342773,0.000000,25.390625
11915,0.049927,-0.137817,0.982056,1.647949,-0.732422,24.475098
11925,0.039673,-0.229248,0.966309,1.831055,-1.464844,23.498535
11934,0.055542,-0.269043,0.947021,2.136230,-2.197266,22.033691
11945,0.037354,-0.268921,0.984619,2.197266,-2.075195,20.935059
11954,0.038086,-0.284790,1.045166,1.892090,-2.868652,19.470215
11964,0.032837,-0.257568,0.978149,1.525879,-3.417969,17.517090
11976,0.049683,-0.293945,0.988037,1.464844,-4.516602,14.343262
11985,0.112061,-0.293701,0.991333,1.098633,-5.371094,12.268066
11994,0.090820,-0.150757,1.046753,0.671387,-6.408691,10.986328
12005,0.117554,-0.212769,1.001343,0.793457,-6.896973,9.460449
12014,0.110962,-0.244263,0.983398,0.976562,-6.652832,8.300781
12024,0.102661,-0.190063,0.984497,0.976562,-7.324219,7.385254
12036,0.087036,-0.222412,0.945679,0.244141,-7.507324,5.371094
12045,0.079590,-0.128418,1.009033,0.122070,-8.361816,3.906250
12055,0.055542,-0.213867,0.973145,0.061035,-8.544922,2.746582
12065,0.091309,-0.216309,1.052124,-0.366211,-9.338379,1.525879
12074,0.094238,-0.119751,1.046631,-0.610352,-9.094238,0.427246
12085,0.105469,-0.141235,0.980225,-0.793457,-9.338379,0.122070
12094,0.089111,-0.185669,0.891113,-0.549316,-9.399414,-0.244141
12104,0.053223,-0.401733,0.616577,-0.305176,-9.704590,-0.183105
12114,0.020020,-0.460937,0.457397,-4.272461,-8.850098,-0.488281
12125,-0.033447,-0.122192,0.974854,-5.615234,-7.812500,-0.244141
12135,-0.067505,0.031616,1.177856,-5.554199,-7.934570,-0.183105
12144,-0.053833,0.106201,1.429443,-4.516602,-7.812500,-1.037598
12154,-0.063965,-0.059570,1.189697,-2.441406,-7.934570,-1.831055
12164,-0.052002,-0.295654,0.935181,-0.793457,-7.751465,-2.197266
12174,-0.095215,-0.213989,0.856201,-0.610352,-6.652832,-2.380371
12185,-0.168457,-0.147583,0.977783,-1.342773,-6.591797,-2.563477
12195,-0.101929,-0.089233,1.015381,-1.708984,-4.272461,-0.610352
12205,-0.080933,-0.136230,0.977905,-1.770020,-2.929688,0.610352
12214,-0.078735,-0.104614,1.034058,-2.258301,-2.197266,1.953125
12225,-0.062622,-0.147461,1.010986,-2.319336,-1.953125,2.685547
12234,-0.055664,-0.069214,1.012207,-2.624512,-1.953125,2.624512
12246,-0.060913,-0.037231,1.005249,-2.319336,-1.525879,2.746582
12255,-0.072144,-0.082764,1.068726,-2.136230,-0.854492,2.624512
12265,-0.058960,-0.065552,1.021851,-2.502441,-0.122070,2.258301
12274,-0.051270,-0.034668,1.021240,-2.746582,-0.061035,1.953125
12284,-0.001221,-0.011719,1.024292,-2.990723,0.122070,1.342773
12295,0.019287,-0.014038,1.010986,-2.929688,0.122070,0.671387
12304,0.044678,-0.007690,1.074341,-2.929688,-0.305176,-0.183105
12315,0.075806,-0.011230,1.062256,-2.929688,-0.488281,-1.281738
12325,0.104248,-0.013672,1.031982,-2.685547,-0.610352,-1.708984
12335,0.147461,-0.091187,0.941040,-2.502441,-0.671387,-1.770020
12345,0.091919,-0.114624,0.980469,-2.319336,-0.793457,-2.014160
12354,0.073364,-0.129028,1.004395,-2.075195,-0.915527,-2.563477
12364,0.028076,-0.188965,1.032349,-2.075195,-1.220703,-3.601074
12374,0.053223,-0.183838,1.059448,-1.770020,-1.281738,-4.943848
12384,0.010742,-0.183105,1.016724,-1.098633,-2.197266,-6.530762
12395,-0.014893,-0.236084,0.988281,-0.793457,-2.136230,-8.544922
12405,0.029907,-0.229248,0.922852,-0.610352,-1.281738,-9.460449
12414,0.031616,-0.203491,0.926147,-0.732422,-0.610352,-10.375977
12424,0.074951,-0.138428,0.921875,-0.671387,-0.854492,-11.047363
12434,0.035156,-0.239990,0.920776,-0.488281,-1.037598,-11.169434
12445,0.081299,-0.087524,0.994263,-0.915527,-1.037598,-10.375977
12454,0.045044,-0.116211,1.028076,-1.220703,-0.427246,-9.521484
12466,-0.083252,0.111206,1.131592,-0.427246,1.159668,-7.934570
12475,-0.149170,-0.206909,1.035278,2.075195,2.441406,-8.056641
12485,-0.059082,-0.299072,1.022095,3.051758,2.563477,-7.873535
12494,-0.018311,-0.225708,0.897217,2.868652,2.380371,-7.812500
12505,0.008789,0.078857,0.886108,2.929688,2.685547,-6.958008
12515,-0.050781,-0.269165,0.979980,3.845215,3.356934,-4.882812
12524,0.080078,-0.330566,0.949951,2.502441,4.882812,-1.953125
12536,0.085327,-0.008911,0.893677,0.488281,5.676270,2.624512
12545,0.045288,-0.093750,0.968750,0.732422,5.798340,4.882812
12554,0.015747,-0.231567,0.978394,1.037598,5.859375,6.408691
12564,-0.023560,-0.269531,1.004150,0.244141,5.371094,6.774902
12575,-0.026001,-0.067017,0.996826,-0.183105,5.432129,6.835937
12584,-0.087891,-0.074707,0.977417,-0.122070,6.042480,7.019043
12596,-0.102783,-0.111816,1.032959,0.793457,7.202148,7.995605
12605,-0.037476,-0.166016,0.876709,0.793457,7.934570,8.911133
12615,-0.085083,-0.174316,0.920654,0.122070,7.873535,10.131836
12625,-0.063843,-0.143311,1.009277,-0.366211,8.361816,11.352539
12634,0.018799,-0.098389,1.018921,-0.488281,8.911133,12.695313
12644,0.032471,-0.157471,0.927002,-0.488281,9.033203,13.732910
12655,0.069092,-0.153809,0.926880,-0.366211,9.582520,14.404297
12664,0.042480,-0.242676,0.963989,-0.427246,9.338379,14.343262
12675,-0.014282,-0.171875,1.003784,-0.732422,7.995605,11.779785
12685,0.029907,-0.134888,1.029785,-1.220703,6.774902,10.803223
12694,-0.012817,-0.244507,1.004517,-0.976562,6.835937,10.131836
12705,0.033569,-0.255493,1.084717,-1.037598,6.713867,9.582520
12714,0.017456,-0.211914,1.021240,-1.281738,6.713867,9.460449
12724,0.032837,-0.227173,0.928589,-1.770020,6.469727,9.216309
12736,0.070679,-0.111816,0.978760,-2.502441,7.202148,11.352539
12745,0.091431,-0.135498,0.926270,-2.868652,6.652832,13.122559
12755,0.066162,-0.160889,0.907593,-3.295898,6.164551,14.526367
12765,0.083740,-0.077148,0.999146,-3.234863,6.530762,15.930176
12775,0.040771,-0.180176,0.959595,-3.173828,6.530762,16.906738
12784,0.074463,-0.151489,1.004761,-3.417969,5.920410,17.272949
12794,0.086304,-0.145142,0.985718,-3.356934,5.432129,17.150879
12806,0.106689,-0.179443,0.917969,-3.173828,3.723145,17.211914
12815,0.090210,-0.258545,0.976929,-3.662109,3.601074,17.944336
12825,0.094238,-0.132080,0.963013,-4.211426,3.051758,18.676758
12834,0.081177,-0.103760,0.987061,-4.577637,2.746582,19.714355
12845,0.090088,0.012939,1.108398,-4.760742,2.929688,21.057129
12855,0.092651,-0.105835,1.067261,-4.272461,2.990723,22.338867
12864,0.041870,-0.041992,1.006958,-4.150391,2.502441,23.010254
12876,0.047363,-0.016357,1.099731,-3.540039,1.037598,23.437500
12885,-0.015991,-0.046509,1.010742,-3.051758,1.220703,23.681641
12895,-0.037109,0.015259,1.043213,-2.685547,1.037598,23.620605
12905,-0.021240,-0.050293,0.994385,-2.075195,0.427246,23.193359
12915,-0.033813,-0.028076,0.954346,-1.159668,0.915527,23.010254
12924,-0.032837,-0.144043,0.971802,-1.281738,0.488281,22.766113
12935,-0.028809,-0.092896,1.034302,-1.647949,-0.305176,22.155762
12945,-0.027588,-0.051514,1.057495,-1.892090,0.427246,21.179199
12956,0.005737,-0.172607,0.934326,-1.403809,0.427246,21.179199
12966,0.024414,-0.130737,1.006348,-1.342773,0.122070,21.118164
12975,0.052246,-0.200195,0.990112,-1.342773,-0.122070,21.118164
12984,0.048218,-0.118774,0.972046,-1.647949,-0.427246,21.118164
12995,0.084229,-0.170410,1.006226,-1.464844,-0.976562,21.118164
13005,0.119873,-0.134155,1.061646,-0.915527,-1.892090,20.935059
13017,0.120483,-0.112305,0.916504,-0.366211,-2.624512,21.606445
13026,0.157593,-0.231079,0.965698,-0.061035,-3.173828,21.850586
13040,0.123779,-0.086792,1.024292,-0.915527,-4.150391,22.399902
13050,0.126343,-0.077881,0.997925,-1.831055,-5.432129,22.644043
13059,0.118652,0.079102,1.111206,-1.159668,-6.225586,22.644043
13069,-0.031372,-0.051636,0.972290,-0.854492,-6.591797,22.583008
13077,-0.031372,-0.051636,0.972290,-0.915527,-6.835937,21.850586
13087,-0.015137,0.026978,1.117920,-1.281738,-7.019043,20.690918
13096,0.008667,-0.096924,1.004272,-1.098633,-7.629395,19.104004
13105,-0.032593,-0.107910,1.013184,-0.427246,-8.178711,17.883301
13114,0.047485,-0.228394,0.952881,0.427246,-8.850098,15.380859
13125,0.085449,-0.183350,0.983398,0.305176,-9.521484,12.878418
13135,0.142090,-0.244141,0.910522,0.549316,-10.375977,10.437012
13145,0.115601,-0.189087,0.998779,0.366211,-10.681152,7.812500
13154,0.188599,-0.244751,1.000610,0.610352,-11.291504,5.798340
13166,0.178101,-0.217041,0.969849,0.915527,-12.756348,1.708984
13175,0.192383,-0.264038,0.956543,0.793457,-13.183594,-0.244141
13184,0.230347,-0.298340,0.942993,0.549316,-13.977051,-2.319336
13195,0.169189,-0.206299,1.013428,0.061035,-14.892578,-4.394531
13204,0.140015,-0.186279,0.939941,-0.183105,-16.052246,-6.225586
13215,0.145752,-0.162720,0.960205,-0.183105,-16.540527,-7.812500
13225,0.135620,-0.229492,0.914185,-0.732422,-16.906738,-10.925293
13236,0.169800,-0.155640,0.945190,-1.892090,-16.601562,-11.779785
13246,0.140137,-0.071777,1.011963,-2.075195,-16.296387,-12.695313
13255,0.084351,-0.081543,1.032593,-2.258301,-16.479492,-13.610840
13264,0.117310,-0.190796,1.034668,-1.953125,-16.601562,-14.282227
13275,0.046265,-0.165161,1.074097,-1.831055,-17.089844,-15.197754
13285,0.042480,-0.220093,0.954224,-1.586914,-16.906738,-16.357422
13297,-0.012451,-0.223999,0.880371,-2.380371,-15.747070,-17.700195
13307,-0.034546,-0.180786,0.937378,-2.502441,-15.197754,-18.310547
13316,-0.034058,-0.261597,0.881104,-2.502441,-14.160156,-18.554687
13326,-0.043091,-0.162231,0.985718,-2.502441,-12.573242,-18.798828
13335,-0.052612,-0.182983,0.924316,-2.624512,-11.901855,-18.920898
13345,-0.005249,-0.061768,0.986206,-2.746582,-10.925293,-18.493652
13355,-0.043579,-0.166748,0.993774,-2.502441,-10.437012,-17.761230
13367,-0.063843,-0.126221,1.038940,-1.770020,-9.216309,-15.136719
13377,-0.096558,-0.222656,0.868286,-1.464844,-7.751465,-13.366699
13387,-0.140747,-0.077271,0.924561,-1.831055,-6.347656,-11.535645
13396,-0.162598,-0.285034,0.864868,-2.136230,-4.882812,-9.826660
13406,-0.147827,-0.049438,0.983032,-2.441406,-4.211426,-8.789063
13415,-0.094482,-0.057861,1.051880,-2.929688,-2.990723,-7.934570
13425,-0.098389,-0.114136,0.951782,-2.624512,-2.380371,-7.263184
13435,-0.047729,0.096313,1.139771,-2.441406,-1.281738,-5.798340
13446,-0.104370,0.013794,1.011597,-2.075195,-0.183105,-5.187988
13456,-0.074829,0.017944,1.049927,-2.075195,0.488281,-5.065918
13465,-0.103638,-0.087524,1.034912,-1.708984,1.159668,-5.310059
13476,-0.039429,0.033569,1.081299,-1.220703,1.098633,-5.981445
13485,-0.034546,-0.072266,0.993042,-0.793457,1.159668,-6.591797
13495,-0.009766,-0.018677,1.039307,-0.915527,0.915527,-7.019043
13507,0.013794,-0.068970,1.024658,-0.732422,0.915527,-7.324219
13517,0.041992,0.028931,1.032104,-0.549316,1.525879,-6.958008
13526,0.095703,-0.079102,0.945190,-0.366211,1.586914,-6.469727
13536,0.060669,-0.069458,1.031982,-0.061035,2.685547,-5.676270
13545,0.052612,-0.240234,0.997803,0.183105,2.502441,-4.943848
13555,0.006226,-0.164551,1.042480,-0.061035,2.319336,-5.187988
13565,-0.001709,-0.179810,1.018799,0.061035,1.892090,-5.126953
13577,0.033936,-0.185791,0.992920,0.610352,2.502441,-4.760742
13587,0.007568,-0.267456,0.863525,0.488281,2.929688,-4.638672
13596,0.052979,-0.194458,0.914551,0.427246,3.051758,-4.577637
13605,-0.027832,-0.290161,0.818970,0.122070,2.807617,-4.516602
13616,0.022461,-0.063232,0.930298,-0.427246,2.807617,-4.028320
13625,0.008423,-0.073364,1.001099,-0.366211,2.807617,-4.089355
13635,-0.061646,-0.104492,0.991089,-0.122070,3.540039,-4.028320
13645,-0.082031,-0.000122,1.175781,0.549316,5.065918,-4.089355
13656,-0.176147,-0.122070,1.030273,1.464844,5.493164,-4.760742
13666,-0.140503,0.082764,1.079590,1.586914,6.286621,-4.394531
13675,-0.125977,-0.206909,0.932495,2.136230,7.080078,-3.356934
13685,-0.097046,-0.004395,1.051270,2.197266,7.507324,-1.953125
13696,-0.010498,-0.060791,1.053955,2.258301,8.422852,0.305176
13705,0.026245,-0.264038,0.866455,2.380371,9.399414,3.051758
13717,0.052246,-0.184204,0.918457,2.197266,9.399414,7.934570
13726,0.058472,-0.197266,0.859985,1.281738,9.155273,9.521484
13735,0.087891,-0.172119,0.914307,1.098633,8.911133,11.108398
13746,0.030396,-0.258789,0.892090,0.854492,8.605957,12.756348
13755,-0.043945,-0.251587,0.882568,-0.061035,8.300781,13.854980
13765,-0.051147,-0.180664,0.830933,-0.915527,8.422852,14.953613
13775,-0.044434,-0.008911,0.999878,-1.892090,8.483887,15.991211
13787,-0.184937,-0.153687,1.014893,-1.708984,9.094238,17.639160
13797,-0.129883,-0.031860,1.082764,-1.953125,9.643555,17.944336
13806,-0.122559,-0.313721,0.960937,-1.770020,10.498047,18.005371
13816,-0.125000,-0.182617,1.000854,-2.014160,9.948730,17.578125
13825,-0.111084,-0.127319,1.024902,-2.502441,9.521484,17.089844
13836,-0.061401,-0.284912,0.856445,-2.929688,9.582520,16.418457
13845,0.005371,-0.097168,1.008545,-3.540039,9.948730,15.808105
13856,0.012573,-0.171143,1.065796,-3.784180,9.338379,15.258789
13866,0.050415,-0.146362,1.046143,-3.967285,7.873535,13.854980
13875,0.058594,-0.257324,0.961792,-3.662109,7.568359,13.000488
13886,0.041870,-0.076660,1.022949,-3.784180,6.774902,11.779785
13895,0.083618,-0.225586,0.984009,-3.295898,6.408691,10.559082
13906,0.118774,-0.223999,0.921021,-3.662109,6.164551,10.009766
13915,0.165527,-0.034302,1.101196,-3.662109,5.371094,9.155273
13925,0.151611,-0.284912,1.021851,-2.807617,3.479004,7.629395
13936,0.180176,0.009644,1.036011,-2.624512,2.868652,6.774902
13946,0.175903,-0.212646,1.016602,-2.502441,2.624512,6.652832
13955,0.157227,-0.254150,0.956543,-2.746582,2.014160,6.530762
13965,0.192139,0.026855,1.034302,-3.295898,1.525879,6.103516
13976,0.200806,-0.116455,0.983276,-3.234863,1.037598,6.408691
13985,0.144043,-0.177124,0.959717,-3.173828,0.915527,7.019043
13997,0.096313,-0.124634,0.987183,-3.540039,-0.488281,8.361816
14006,0.077271,0.031738,1.084717,-3.723145,-0.488281,9.216309
14016,-0.001953,0.182983,1.179565,-3.479004,-0.305176,9.704590
14025,-0.085327,0.022095,1.090942,-2.563477,-0.366211,10.253906
14035,-0.131958,-0.110718,0.940674,-1.464844,-0.305176,10.498047
14046,-0.113525,0.029541,1.014282,-0.610352,0.610352,10.375977
14055,-0.119141,-0.131958,0.995850,-0.244141,0.671387,10.375977
14067,-0.068115,0.017212,0.945557,-0.366211,0.671387,10.314941
14076,-0.026733,-0.212769,0.847290,0.122070,1.159668,10.375977
14086,0.036865,-0.153198,0.885742,0.061035,1.525879,10.375977
14095,0.149170,-0.142700,1.011597,0.183105,1.953125,10.070801
14106,0.094604,-0.366577,0.953857,0.000000,0.854492,9.521484
14115,0.167603,-0.146729,1.047485,-0.854492,0.488281,8.911133
14127,0.190063,0.020020,1.169922,-0.061035,-1.647949,8.361816
14136,0.144287,-0.167236,0.963989,0.488281,-2.014160,8.056641
14146,0.166260,-0.014282,1.085693,0.976562,-2.380371,8.544922
14155,0.152344,-0.298828,0.955444,1.159668,-3.356934,8.972168
14166,0.132080,-0.202637,0.860107,1.159668,-3.112793,9.704590
14175,0.103516,0.052368,0.986206,1.037598,-3.662109,10.192871
14186,0.074707,-0.135010,0.942871,0.793457,-3.417969,11.108398
14195,-0.029419,-0.185547,0.896118,0.183105,-3.112793,11.535645
14207,-0.065063,0.048340,1.153687,-0.427246,-3.479004,10.742188
14216,-0.048584,-0.124146,1.069214,-0.305176,-3.479004,10.070801
14226,-0.044434,-0.035522,1.123657,0.183105,-3.295898,9.826660
14236,-0.037598,0.048828,1.102173,1.037598,-3.601074,9.643555
14245,-0.064453,-0.259766,0.942749,1.831055,-3.112793,9.338379
14256,-0.014893,-0.234009,0.983032,1.647949,-2.990723,8.911133
14265,0.018433,0.006958,1.041260,1.281738,-2.868652,8.483887
14277,0.007202,-0.268311,0.949219,1.159668,-2.990723,8.850098
14286,0.029785,-0.116455,1.012939,1.098633,-2.563477,9.338379
14296,0.024292,-0.328369,0.919556,0.854492,-2.929688,9.887695
14305,0.016968,-0.366211,0.798340,0.122070,-2.624512,10.681152
14316,0.076782,-0.084595,0.974976,-0.793457,-3.356934,11.169434
14326,0.050293,-0.205322,0.931274,-1.464844,-3.784180,11.779785
14336,0.008057,-0.267334,0.827271,-2.014160,-3.417969,14.038086
14345,0.021240,-0.065430,1.018555,-2.075195,-2.929688,15.319824
14356,-0.028687,-0.259155,0.972168,-2.258301,-2.502441,16.235352
14366,-0.053467,-0.046387,1.062378,-2.075195,-2.441406,16.967773
14376,-0.051270,-0.150146,1.013062,-1.220703,-3.051758,17.517090
14386,-0.084961,-0.304443,0.885864,-0.732422,-2.929688,17.578125
14396,-0.095825,-0.144043,1.009521,-1.037598,-3.417969,16.723633
14408,-0.121582,-0.251587,0.981201,-1.037598,-2.563477,14.648438
14418,-0.114990,-0.214966,0.984741,-0.671387,-2.441406,13.916016
14428,-0.118896,-0.015747,1.016968,-0.549316,-2.929688,12.878418
14438,-0.073730,-0.100952,1.069458,-0.549316,-3.295898,11.962891
14447,0.021729,-0.330078,1.062988,-0.549316,-2.441406,11.352539
14457,0.004761,-0.220947,1.040405,-0.427246,-2.502441,10.437012
14466,0.023560,-0.038574,1.052002,-0.549316,-3.173828,9.338379
14476,-0.007813,0.005615,1.077515,-0.305176,-3.112793,6.958008
14487,0.008301,-0.153809,1.042114,0.061035,-3.479004,5.676270
14497,0.006470,-0.098511,0.997192,0.183105,-3.662109,4.394531
14506,0.020508,-0.075073,1.025146,0.061035,-4.455566,3.051758
14516,0.018188,-0.195679,0.877808,0.000000,-4.333496,1.281738
14526,0.052368,-0.074585,0.844482,-1.037598,-4.760742,-0.061035
14536,0.097290,-0.100586,0.924072,-1.953125,-5.249023,-0.976562
14546,0.089722,-0.262207,0.859253,-3.112793,-5.554199,-2.868652
14557,0.110596,0.170654,1.067261,-4.516602,-5.737305,-3.417969
14567,0.108276,-0.066040,1.035522,-4.455566,-5.126953,-4.150391
14577,0.056274,-0.067871,1.046387,-4.455566,-5.249023,-5.004883
14586,0.068115,0.065552,1.110840,-4.089355,-5.126953,-6.164551
14596,0.020874,-0.107178,1.013428,-3.295898,-4.821777,-7.324219
14607,-0.011108,-0.116455,0.941528,-2.746582,-5.004883,-8.361816
14616,0.014526,-0.064331,1.013062,-1.464844,-4.821777,-9.460449
14626,0.020630,-0.251343,0.846680,-1.342773,-4.943848,-10.192871
14636,0.030396,-0.055176,0.988403,-1.464844,-4.882812,-10.314941
14646,0.039429,-0.079712,1.012939,-1.159668,-4.455566,-10.070801
14657,0.075562,-0.272461,0.939331,-0.610352,-3.479004,-10.009766
14666,0.058716,-0.245117,0.922485,-0.061035,-2.807617,-10.253906
14676,0.072021,-0.154663,1.023560,-0.061035,-3.173828,-10.803223
14686,0.116699,-0.200684,1.018555,-0.610352,-3.417969,-11.718750
14697,0.047852,-0.013794,0.973022,-0.793457,-2.990723,-11.169434
14707,0.026978,-0.105225,0.999634,-0.732422,-2.624512,-10.437012
14716,0.014404,-0.195679,0.927124,-0.793457,-1.831055,-10.070801
14726,-0.017822,-0.083008,0.998901,-1.037598,-0.976562,-8.789063
14736,-0.065186,0.109131,1.096558,-1.159668,-0.732422,-7.812500
14746,0.000244,-0.188232,1.040405,-0.793457,0.671387,-6.652832
14758,0.013550,-0.106323,0.935059,-0.915527,0.976562,-4.272461
14767,0.016846,0.040283,1.052002,-1.953125,2.319336,-2.929688
14777,-0.028564,-0.086182,0.989624,-2.807617,1.403809,-1.708984
14787,-0.057983,-0.141235,0.967407,-2.624512,4.638672,-0.305176
14796,-0.044434,-0.010742,1.047974,-2.624512,4.028320,0.305176
14807,-0.090576,-0.137573,1.094482,-2.502441,3.784180,1.159668
14816,-0.069824,-0.217163,0.969116,-2.502441,5.981445,1.525879
14828,-0.011597,-0.098511,1.026001,-2.258301,4.211426,2.990723
14837,-0.043457,-0.248169,0.839600,-1.525879,4.760742,4.333496
14847,0.010742,-0.192993,0.874390,-1.647949,5.493164,6.103516
14856,0.020996,-0.095459,0.938965,-2.075195,5.676270,7.507324
14867,-0.034180,-0.267334,0.902588,-1.953125,6.408691,8.911133
14876,-0.058472,-0.230713,0.899658,-1.953125,7.019043,10.009766
14888,-0.058594,-0.058105,0.980347,-2.197266,7.019043,11.657715
14897,-0.051147,-0.238159,0.999023,-1.892090,6.896973,12.451172
14907,-0.016235,-0.346680,0.904175,-1.770020,7.202148,13.000488
14916,0.018433,-0.169922,0.900513,-1.831055,6.774902,13.244629
14926,0.046875,-0.096069,1.041992,-1.831055,6.164551,13.854980
14937,0.010254,-0.104736,1.022095,-1.953125,5.676270,13.793945
14946,0.068848,-0.196411,1.003296,-1.892090,5.371094,13.488770
14956,0.044800,-0.230103,0.989990,-1.281738,5.126953,14.038086
14968,0.050903,-0.098633,0.964233,-1.098633,4.394531,14.038086
14977,0.103394,-0.127930,0.985229,-1.770020,3.906250,14.038086
14987,0.104980,-0.148926,1.054077,-1.953125,3.417969,13.977051
14996,0.087158,-0.148315,1.043091,-1.708984,2.441406,13.977051
15006,0.033081,-0.089233,1.028564,-1.525879,2.258301,13.549805
15017,0.063843,-0.114502,1.072388,-1.647949,1.220703,12.817383
15026,0.067505,-0.147705,1.079834,-1.586914,1.098633,12.268066
15038,0.046387,0.114624,1.068115,-1.525879,-0.122070,10.864258
15047,0.054443,0.038208,1.088501,-0.915527,-0.183105,10.620117
15057,0.067505,-0.017212,1.048340,-0.793457,-0.732422,9.887695
15066,0.005615,-0.131470,0.914673,-1.159668,-0.854492,9.338379
15077,0.005005,-0.072876,0.908936,-1.708984,-0.976562,8.911133
15086,0.010132,0.137695,1.059814,-2.563477,-0.793457,8.605957
15098,-0.007446,0.152588,1.093994,-2.075195,-0.488281,7.873535
15107,-0.033569,-0.191040,0.952759,-1.037598,0.122070,7.446289
15117,0.014038,-0.105225,0.961182,-0.915527,-0.610352,7.019043
15126,0.072754,-0.156494,0.934814,-0.793457,-1.098633,6.774902
15137,0.128540,-0.287720,0.873169,-0.976562,-1.342773,6.958008
15146,0.108032,-0.155396,0.952271,-1.098633,-1.831055,6.835937
15157,0.118774,-0.086060,1.042236,-0.854492,-1.342773,7.507324
15166,0.069824,-0.163330,1.024048,-0.427246,-1.281738,8.422852
15178,0.026367,-0.307861,0.980469,0.000000,-2.075195,7.751465
15187,0.045166,-0.036377,0.958252,-0.427246,-2.563477,7.751465
15197,0.089111,0.014893,0.991699,-0.366211,-3.234863,7.995605
15206,0.098267,-0.182861,0.902100,0.183105,-3.234863,8.911133
15217,0.146851,-0.240601,0.906860,0.122070,-3.417969,9.643555
15227,0.112427,-0.123291,0.985474,-0.427246,-3.906250,10.375977
15236,0.084351,0.063843,1.038452,-0.610352,-3.601074,10.742188
15248,0.028931,-0.015991,1.159790,-0.183105,-4.333496,10.375977
15257,-0.020142,-0.198242,1.029785,0.793457,-4.943848,9.887695
15267,-0.021606,-0.214722,0.976929,1.586914,-5.676270,9.277344
15276,-0.031250,-0.002686,1.038452,1.525879,-5.798340,8.666992
15287,-0.013062,0.004639,1.050659,1.159668,-6.042480,8.178711
15297,0.002930,-0.100952,0.991333,0.915527,-5.920410,7.690430
15306,0.014648,-0.284180,0.893799,0.793457,-5.615234,7.568359
15318,-0.014893,-0.180420,0.992676,0.427246,-5.004883,6.652832
15327,-0.007813,-0.159302,1.013550,-0.366211,-4.943848,5.493164
15337,-0.050049,-0.148315,1.010864,-0.854492,-5.737305,4.455566
15347,0.021851,-0.133179,0.989990,-0.366211,-5.615234,3.601074
15356,0.016846,-0.130737,0.972168,0.061035,-5.798340,2.990723
15367,0.017334,-0.244873,0.940796,-0.122070,-6.103516,2.624512
15376,0.038452,-0.374390,0.850952,-0.854492,-6.225586,2.563477
15388,0.010864,-0.034668,0.942383,-1.953125,-4.943848,3.173828
15398,0.031982,-0.025391,1.057861,-2.380371,-5.310059,3.540039
15408,-0.018921,-0.066895,1.067383,-2.319336,-5.371094,3.784180
15417,-0.093872,-0.139038,1.040039,-1.708984,-5.432129,3.784180
15427,-0.069824,-0.204834,1.086304,-0.671387,-4.943848,3.784180
15437,-0.033081,-0.150269,1.129517,0.122070,-4.943848,3.967285
15446,-0.028687,-0.102295,1.123291,0.732422,-4.699707,4.089355
15458,-0.038574,-0.148560,1.044678,1.770020,-4.150391,4.333496
15468,-0.074341,-0.122437,0.952026,2.014160,-3.723145,3.662109
15477,-0.082153,-0.256592,0.894165,2.136230,-3.356934,3.173828
15486,-0.022705,-0.230713,0.914429,1.464844,-3.051758,2.136230
15497,0.000977,-0.131592,0.866333,0.427246,-2.929688,1.281738
15506,-0.006104,-0.251587,0.751221,-0.183105,-3.723145,0.488281
15518,0.030640,-0.256592,0.802246,-2.441406,-3.845215,-1.953125
15527,0.032227,0.146973,1.069702,-3.417969,-4.638672,-3.356934
15537,0.095581,0.040771,1.080688,-3.479004,-4.821777,-4.028320
15546,0.071289,-0.138184,1.045532,-2.807617,-4.516602,-4.516602
15556,0.078979,-0.163330,1.030762,-2.746582,-4.638672,-5.004883
15567,0.026733,-0.090210,1.028931,-2.563477,-4.089355,-5.371094
15576,0.034668,-0.020386,1.002319,-2.197266,-4.211426,-5.737305
15589,-0.027100,-0.202759,0.845581,-1.708984,-3.723145,-6.835937
15599,-0.047852,-0.082153,0.855835,-2.319336,-3.356934,-6.896973
15609,-0.007080,0.109131,0.987061,-3.112793,-3.173828,-7.019043
15618,-0.004272,0.023926,1.013916,-2.990723,-2.197266,-6.469727
15628,-0.034912,-0.092407,0.922485,-2.807617,-1.953125,-5.981445
15638,-0.004150,-0.103394,0.996460,-2.685547,-1.281738,-5.493164
15648,-0.009521,-0.032227,1.093994,-2.441406,-0.976562,-4.882812
15658,-0.029175,0.031982,1.132202,-1.586914,-0.732422,-4.150391
15667,0.000244,-0.200195,0.976318,-1.037598,0.305176,-3.234863
15677,-0.042969,-0.260864,0.973999,-0.915527,0.305176,-2.502441
15686,0.000244,-0.161011,0.998657,-1.098633,0.793457,-1.525879
15697,0.018188,-0.032715,0.975708,-1.220703,1.037598,-0.061035
15706,-0.004639,-0.070190,0.989014,-1.525879,1.770020,1.220703
15717,-0.031006,-0.234253,0.925537,-2.136230,2.014160,2.014160
15729,-0.011353,-0.095581,0.994263,-3.845215,2.807617,2.868652
15739,-0.052856,-0.074341,1.038330,-4.882812,2.014160,2.502441
15748,-0.065674,-0.057861,1.042847,-5.371094,1.953125,2.441406
15758,-0.109375,-0.085083,1.061035,-4.821777,2.441406,2.441406
15767,-0.102051,0.080933,1.102539,-4.394531,2.441406,2.441406
15777,-0.052246,0.015259,1.109009,-3.295898,2.929688,3.112793
15787,0.030273,-0.142212,1.004883,-2.258301,3.662109,3.601074
15797,-0.017822,-0.287354,0.940796,-1.037598,3.845215,3.967285
15808,-0.065063,-0.080444,0.932617,-0.488281,3.967285,4.333496
15818,0.001221,-0.151245,0.900513,-0.488281,3.906250,3.906250
15827,-0.042847,-0.231689,0.938110,-0.671387,3.723145,3.295898
15837,-0.021729,-0.215576,1.009033,-1.220703,3.662109,2.563477
15847,0.012207,-0.127075,1.037720,-1.037598,3.601074,1.770020
15857,0.005859,-0.134766,1.001709,-0.305176,4.089355,1.159668
15869,0.085083,-0.245605,0.936646,0.183105,3.479004,0.793457
15879,0.091309,-0.257080,0.859863,-0.183105,3.112793,0.976562
15888,0.074341,-0.255493,0.885254,-0.610352,2.929688,1.770020
15898,0.073486,-0.163208,0.907349,-0.671387,3.417969,2.807617
15907,0.089233,-0.153809,0.991333,-0.854492,3.234863,3.479004
15917,0.084595,-0.132568,1.035645,-0.732422,3.540039,3.601074
15927,0.042114,-0.150513,1.074463,-0.732422,3.479004,3.662109
15939,0.061035,-0.074097,1.065552,0.000000,2.868652,2.990723
15949,0.011353,-0.117310,1.062256,0.427246,2.441406,2.929688
15958,0.010742,-0.070557,1.002930,0.366211,1.953125,2.685547
15967,0.059692,-0.150757,0.970947,0.488281,2.319336,3.479004
15977,0.039429,-0.188477,0.923218,0.000000,2.014160,4.272461
15987,0.048218,-0.166870,0.901733,-0.793457,1.953125,5.065918
15997,0.076294,-0.024658,0.920654,-1.403809,2.075195,6.347656
16007,0.071533,0.056641,0.950195,-2.197266,2.441406,7.629395
16018,-0.009888,-0.133911,0.945435,-2.685547,2.075195,7.690430
16028,-0.031372,-0.148804,0.909668,-3.112793,1.953125,7.873535
16037,-0.039429,-0.037598,0.978149,-3.417969,2.197266,7.995605
16047,-0.053101,-0.002441,1.022461,-3.540039,2.136230,8.422852
16057,-0.037964,0.032715,0.982666,-3.601074,2.502441,8.972168
16067,-0.057495,-0.029175,0.961670,-3.234863,3.173828,9.521484
16079,-0.016357,-0.052856,1.033081,-2.502441,3.234863,10.375977
16089,0.034424,0.054199,1.034424,-2.746582,2.929688,10.681152
16098,0.025391,-0.000244,1.020264,-2.502441,2.929688,10.925293
16108,0.060425,-0.159912,0.989868,-2.014160,2.197266,11.108398
16117,0.006714,-0.202393,0.972168,-1.770020,1.708984,11.352539
16127,0.041504,-0.142456,0.993896,-1.464844,1.708984,11.657715
16137,0.059814,-0.033691,1.034424,-1.525879,1.647949,12.145996
16147,0.063965,-0.040283,1.056152,-1.586914,1.708984,13.244629
16158,0.032104,-0.265137,0.951782,-1.586914,1.037598,13.061523
16168,0.075928,-0.277588,1.005493,-0.976562,0.427246,12.939453
16177,0.034058,-0.070557,1.002808,-0.793457,0.122070,12.451172
16187,0.057617,-0.030029,1.066284,-0.854492,-0.732422,11.840820
16197,0.047852,-0.089966,1.084595,-1.098633,-1.220703,11.169434
16207,0.076782,-0.110352,1.006592,-1.342773,-1.831055,10.681152
16220,0.103149,-0.154663,0.939087,-2.258301,-3.173828,10.009766
16229,0.191040,-0.053955,1.021729,-2.807617,-3.356934,10.070801
16239,0.120728,-0.084961,1.017456,-3.234863,-4.272461,10.253906
16248,0.110718,-0.102417,0.944824,-3.540039,-4.516602,10.314941
16258,0.023926,-0.108765,1.017578,-3.417969,-4.455566,10.620117
16267,0.029541,0.062012,1.082886,-3.173828,-4.089355,10.375977
16277,-0.054687,0.037109,1.122925,-2.136230,-4.455566,10.009766
16290,-0.033081,-0.262573,0.992065,-0.244141,-5.065918,9.765625
16299,-0.100098,-0.342285,0.811646,0.305176,-5.126953,9.155273
16309,-0.081055,-0.275269,0.729004,0.427246,-4.699707,8.666992
16318,-0.067871,-0.265869,0.724976,-0.183105,-4.577637,7.995605
16328,-0.024170,-0.237061,0.724609,-2.014160,-4.394531,6.042480
16338,-0.078003,-0.190308,0.793945,-3.906250,-5.554199,4.211426
16348,-0.007568,-0.083252,0.935547,-4.882812,-5.676270,1.892090
16358,0.022827,-0.070557,1.078369,-4.577637,-5.493164,0.915527
16367,0.009521,-0.123413,1.079712,-3.906250,-5.493164,0.305176
16377,-0.004639,-0.176392,1.049438,-3.295898,-4.882812,-0.183105
16388,-0.009399,-0.065674,1.025513,-2.929688,-4.760742,-0.915527
16397,-0.079956,-0.050781,1.028198,-2.319336,-4.455566,-1.098633
16407,-0.083862,0.003906,1.053833,-2.197266,-4.516602,-1.403809
16417,-0.033447,-0.103394,1.103271,-1.953125,-3.479004,-1.220703
16429,-0.030151,-0.212280,1.003418,-1.281738,-2.380371,0.488281
16439,-0.018677,-0.298218,1.003662,-0.976562,-1.403809,1.647949
16449,0.073120,-0.115845,1.021973,-1.647949,-0.793457,2.441406
16458,0.037354,-0.031982,1.110107,-2.380371,-1.098633,2.624512
16468,0.097290,-0.062622,1.130127,-2.624512,-2.380371,2.807617
16477,0.067261,-0.036865,1.057373,-2.563477,-3.112793,2.380371
16487,0.038696,-0.011719,1.025391,-2.502441,-3.601074,1.831055
16497,0.052368,-0.104004,1.050659,-2.258301,-3.417969,0.244141
16508,0.058838,-0.075439,1.008667,-1.892090,-4.028320,-0.854492
16518,0.032837,-0.105713,0.930786,-1.708984,-4.089355,-1.281738
16527,0.091919,-0.099121,0.933716,-1.708984,-4.272461,-1.708984
16537,0.011841,-0.105591,0.913574,-1.892090,-4.638672,-1.892090
16548,0.018188,-0.074951,0.902222,-2.197266,-4.577637,-1.892090
16557,0.000488,-0.118408,0.883301,-2.258301,-4.211426,-1.403809
16570,-0.067383,-0.053955,0.875610,-3.417969,-2.990723,-1.281738
16579,-0.067993,-0.021118,0.888428,-3.967285,-2.441406,-0.976562
16589,-0.101318,0.001221,0.900024,-3.967285,-2.441406,-0.854492
16598,-0.108154,-0.004761,0.940308,-3.173828,-2.014160,-0.488281
16608,-0.055420,-0.017822,0.969482,-1.953125,-1.464844,-0.244141
16618,-0.055786,-0.067261,0.948608,-0.610352,-0.915527,0.244141
16627,-0.058105,-0.130493,1.024780,0.061035,-0.305176,0.488281
16637,-0.043579,-0.254028,0.941650,0.549316,0.000000,0.305176
16648,-0.002563,-0.153198,0.892456,0.000000,-0.183105,0.183105
16658,-0.010132,-0.065308,0.958252,-0.793457,0.122070,0.305176
16667,0.015625,-0.039795,1.004517,-1.525879,0.183105,0.610352
16678,-0.009155,-0.123657,0.963867,-1.770020,0.488281,0.976562
16687,0.034180,-0.153076,1.000488,-1.586914,0.854492,1.098633
16698,-0.007202,-0.107178,1.101074,-1.647949,1.098633,1.831055
16707,0.043701,-0.051025,1.179810,-1.342773,0.854492,2.502441
16717,0.026245,-0.087280,1.036133,-0.610352,0.549316,2.807617
16727,0.028687,-0.195801,0.997925,-0.427246,0.610352,2.929688
16737,0.063843,-0.139771,0.950928,-0.793457,0.427246,2.807617
16747,0.054932,-0.096680,0.932007,-1.281738,0.549316,2.868652
16757,0.085571,-0.030029,0.963745,-2.319336,-0.366211,2.685547
16769,0.017456,0.078125,1.052979,-3.540039,-0.976562,2.197266
16778,-0.001465,-0.010010,1.090088,-3.173828,-0.122070,2.441406
16788,-0.078735,-0.045410,1.093872,-2.624512,-0.244141,2.868652
16798,-0.055298,-0.147827,1.027710,-1.770020,-0.244141,2.746582
16807,-0.011353,-0.083008,1.062622,-1.647949,0.061035,3.173828
16817,0.069702,0.015991,1.080811,-1.708984,0.061035,3.356934
16827,0.003174,0.011108,0.994507,-1.586914,0.366211,3.845215
16839,0.063599,-0.062012,0.945068,-1.403809,0.305176,5.310059
16849,-0.000366,-0.094604,0.957642,-0.793457,0.183105,5.737305
16858,-0.017212,-0.104614,0.993530,-0.061035,0.610352,6.042480
16868,0.010620,-0.119019,0.989258,0.671387,0.976562,6.347656
16878,-0.021606,-0.156860,0.949219,1.098633,0.549316,6.652832
16887,0.010742,-0.270264,0.862671,1.403809,0.671387,6.896973
16898,-0.000366,-0.322510,0.836426,0.854492,-0.427246,7.080078
16907,0.012085,-0.110352,0.930298,-0.305176,0.183105,7.080078
16917,0.035400,0.017578,0.997437,-1.037598,-1.403809,7.202148
16928,-0.079346,-0.096191,0.980103,-0.610352,-0.488281,6.774902
16938,-0.043579,-0.106689,1.021362,-0.305176,-0.549316,6.713867
16948,-0.057373,-0.094604,1.062866,0.610352,0.305176,7.019043
16957,-0.039551,-0.092163,1.067017,0.793457,-0.244141,6.652832
16967,-0.012573,-0.095825,1.042236,0.915527,-0.427246,6.530762
16979,0.033447,-0.120605,1.000000,0.427246,-0.671387,5.432129
16988,0.092651,-0.191406,0.959473,-0.366211,-0.610352,4.089355
16998,0.076294,-0.166992,1.006104,-1.098633,-1.892090,2.746582
17008,0.048218,-0.179932,1.016602,-1.037598,-1.892090,0.976562
17017,0.064697,-0.236084,0.948975,-0.854492,-2.685547,-0.671387
17028,0.085571,-0.142456,0.923096,-0.793457,-2.685547,-1.525879
17038,0.107300,-0.174927,0.924316,-1.403809,-3.112793,-2.380371
17048,0.087158,-0.230591,0.872192,-2.136230,-3.540039,-3.295898
17057,0.091064,-0.079102,0.934692,-3.601074,-4.089355,-4.638672
17068,0.038452,-0.060059,0.969727,-3.845215,-4.150391,-5.432129
17078,-0.010986,-0.125977,0.977295,-3.906250,-3.479004,-6.225586
17087,-0.028076,-0.130859,0.965942,-3.784180,-3.051758,-6.896973
17098,-0.024658,-0.100952,1.006714,-3.784180,-2.685547,-7.141113
17108,0.012695,0.010620,0.995972,-3.601074,-2.197266,-7.324219
17118,0.014282,0.027832,1.004517,-3.356934,-2.014160,-7.202148
17127,0.040894,-0.032227,0.983521,-3.723145,-1.159668,-6.835937
17139,0.064087,-0.123047,0.983521,-3.845215,-1.281738,-6.286621
17149,0.056885,-0.043701,1.035156,-4.089355,-1.403809,-5.493164
17158,0.034790,0.030396,1.048950,-3.723145,-0.366211,-4.394531
17168,0.017212,-0.008545,1.051392,-3.295898,-0.671387,-2.868652
17178,-0.004395,-0.048096,1.027100,-2.319336,0.000000,-1.464844
17187,-0.014648,-0.081421,1.012939,-1.586914,0.793457,0.061035
17197,-0.023682,-0.102539,1.020752,-1.037598,0.915527,2.807617
17208,-0.088745,-0.053711,0.936646,-1.342773,0.915527,3.845215
17218,-0.071777,-0.047974,0.948486,-1.525879,1.586914,4.333496
17227,-0.067627,-0.040039,0.941895,-1.892090,1.708984,5.065918
17237,-0.091797,-0.016357,0.973633,-2.502441,1.708984,5.554199
17248,-0.099854,-0.007080,1.023682,-2.319336,2.929688,5.981445
17257,-0.103516,-0.031860,1.048706,-2.319336,2.563477,6.408691
17269,-0.060059,-0.141479,0.976929,-2.136230,2.929688,6.774902
17279,-0.049438,-0.178223,0.983032,-2.197266,3.479004,6.835937
17288,0.034912,-0.071899,1.058594,-2.441406,3.479004,7.080078
17298,0.010498,0.054687,1.058472,-2.136230,3.173828,7.080078
17307,0.042480,0.040649,1.016113,-1.464844,2.685547,7.080078
17318,0.012207,-0.075684,0.988892,-0.549316,2.624512,6.774902
17327,0.026123,-0.176514,0.952759,-0.061035,2.929688,6.408691
17339,0.028687,-0.057861,1.006226,0.244141,1.770020,6.225586
17348,-0.042114,0.014038,1.078247,0.671387,1.892090,6.286621
17358,-0.024170,-0.086426,1.063354,1.098633,1.708984,6.164551
17368,-0.002319,-0.131592,1.087646,1.708984,2.075195,6.408691
17377,-0.054321,-0.187012,0.984253,2.319336,1.464844,6.713867
17388,0.021729,-0.294800,0.944092,2.746582,1.342773,7.385254
17397,0.022339,-0.260742,0.930298,2.380371,2.258301,8.422852
17409,0.013428,-0.052856,0.981567,1.647949,1.037598,10.314941
17418,0.028198,-0.108887,0.963257,0.976562,2.502441,10.986328
17428,0.013916,-0.091064,1.046143,0.183105,1.220703,11.230469
17438,-0.039429,-0.051392,1.042603,0.244141,1.159668,10.986328
17448,-0.008911,-0.025879,1.087524,0.610352,0.793457,10.803223
17457,-0.046265,0.029175,1.130127,0.610352,0.610352,10.375977
17469,-0.001709,-0.031006,1.090576,1.220703,0.549316,9.948730
17479,0.032227,-0.167725,0.943115,1.647949,0.427246,9.826660
17488,0.041992,-0.095459,0.978149,1.037598,0.000000,9.460449
17498,0.042603,-0.039917,1.029541,0.793457,-0.610352,9.399414
17508,0.030029,0.043823,1.092407,0.732422,-1.159668,8.728027
17518,-0.004150,0.017822,1.117188,0.854492,-1.159668,7.873535
17528,0.050537,-0.054443,1.092529,1.159668,-1.342773,6.958008
17539,-0.028687,-0.115723,1.048096,1.770020,-2.136230,4.882812
17549,0.014282,-0.240479,0.976440,2.075195,-2.746582,3.967285
17558,0.050659,-0.191162,0.952026,2.441406,-2.563477,3.295898
17568,0.052124,-0.072876,1.064453,2.502441,-2.929688,2.502441
17577,0.070068,-0.056396,1.037109,2.563477,-2.929688,1.281738
17588,0.036011,-0.118530,0.973511,2.380371,-3.173828,0.000000
17597,0.042603,-0.317505,0.801636,2.136230,-3.234863,-1.281738
17609,0.059570,-0.209106,0.791016,-1.220703,-4.211426,-2.990723
17619,0.056152,0.279785,1.212402,-2.136230,-3.967285,-3.356934
17628,0.011353,0.060669,1.057739,-1.037598,-3.051758,-3.540039
17638,-0.021606,-0.342285,0.696899,0.549316,-3.112793,-3.906250
17648,0.007935,-0.299561,0.660645,0.183105,-3.417969,-4.577637
17657,0.138184,-0.318848,0.473389,-2.380371,-3.051758,-4.882812
17668,0.149658,-0.251709,0.422363,-5.187988,-3.601074,-4.394531
17678,0.133911,0.141479,0.682739,-9.521484,-3.784180,-3.051758
17690,0.045044,0.168701,1.072998,-8.911133,-3.417969,-2.929688
17699,-0.114502,-0.103882,1.022949,-6.652832,-2.746582,-3.601074
17709,-0.082031,-0.166626,1.128906,-7.141113,-2.319336,-4.882812
17718,-0.055908,-0.022461,1.276367,-8.850098,-2.624512,-5.065918
17728,0.008911,0.192383,1.300049,-8.728027,-2.807617,-4.943848
17738,-0.032959,0.147461,1.148926,-6.347656,-2.746582,-3.784180
17750,0.029419,-0.119019,1.021362,-2.929688,-1.586914,-1.220703
17760,0.142334,-0.135010,1.065796,-3.173828,-1.586914,-0.488281
17769,0.118652,-0.104004,1.002686,-4.028320,-1.464844,0.244141
17779,0.105835,-0.012207,0.878906,-4.760742,-0.915527,1.098633
17788,0.101440,-0.050293,0.869263,-5.615234,-1.220703,2.014160
17798,0.070923,-0.092407,0.886230,-5.981445,-1.953125,2.258301
17808,0.003052,-0.104736,0.973145,-6.225586,-2.441406,1.647949
17818,0.002319,-0.027344,1.132324,-7.568359,-3.112793,0.793457
17829,-0.054687,0.182129,1.221191,-8.422852,-2.624512,-0.061035
17839,-0.150024,0.016479,1.132202,-7.202148,-1.770020,0.366211
17848,-0.149170,-0.045898,1.102661,-5.371094,-0.671387,0.915527
17858,-0.127686,0.039429,1.164307,-4.394531,-0.244141,0.854492
17868,-0.087036,0.068237,1.254639,-4.394531,0.244141,0.671387
17878,-0.074707,-0.084106,1.072632,-4.455566,0.000000,-0.061035
17891,0.051880,0.052002,0.972046,-3.173828,0.183105,-1.770020
17900,0.072021,-0.092896,0.931641,-2.319336,-0.488281,-2.990723
17910,0.072632,-0.252930,0.925903,-1.770020,-1.159668,-4.516602
17919,0.074951,-0.175781,0.999634,-2.380371,-1.037598,-5.981445
17929,0.081909,-0.010864,0.962280,-3.417969,-1.586914,-6.896973
17938,0.052612,0.094604,0.906128,-3.417969,-1.281738,-7.141113
17948,0.006104,-0.169556,0.806152,-2.441406,-1.281738,-7.141113
17961,-0.043213,0.186035,0.851562,0.976562,-0.366211,-6.286621
17970,-0.046509,-0.242310,0.761841,4.638672,0.000000,-5.310059
17980,-0.027222,-0.485840,0.814941,5.981445,0.366211,-4.333496
17989,0.002441,-0.346436,1.003784,4.638672,0.732422,-3.234863
17999,-0.000732,-0.298950,0.996704,2.624512,1.037598,-1.892090
18009,-0.001343,-0.193481,0.888184,0.854492,1.586914,-0.549316
18018,0.000366,0.091064,0.919556,0.061035,2.197266,0.854492
18030,-0.044922,-0.114136,0.929810,0.122070,2.380371,2.990723
18040,-0.057495,-0.084839,0.979736,-0.244141,2.441406,3.662109
18049,0.008057,0.106445,1.085938,-0.488281,1.831055,4.577637
18063,0.005127,-0.001709,1.025391,0.610352,2.075195,6.652832
18073,0.024170,-0.060181,0.976929,0.915527,3.417969,8.056641
18082,0.097168,-0.049683,0.973389,0.183105,3.417969,9.094238
18092,0.066895,-0.047607,1.024658,-0.793457,2.319336,9.521484
18101,0.090576,0.041260,1.088989,-1.281738,1.708984,8.972168
18110,0.013184,0.033081,1.068726,-0.854492,0.915527,8.605957
18120,-0.031860,0.072998,1.132446,-0.488281,0.488281,8.361816
18129,0.007690,0.086426,1.249146,-0.366211,1.037598,8.544922
18139,-0.025513,-0.050903,1.262085,-0.732422,1.159668,8.605957
18148,-0.086914,-0.089111,1.074707,-0.854492,0.976562,8.483887
18158,-0.037231,0.110352,1.097656,-0.915527,1.464844,8.239746
18168,-0.013672,-0.037354,1.057861,-0.915527,1.220703,6.408691
18180,-0.006958,-0.028931,1.070190,-1.220703,0.427246,4.394531
18189,0.041626,0.087891,1.169556,-1.708984,-0.244141,2.441406
18199,0.004639,-0.100952,1.040894,-2.014160,-1.220703,0.671387
18208,0.018921,0.001709,1.027588,-1.831055,-1.037598,-0.793457
18218,0.068115,-0.045654,1.029419,-1.098633,-0.671387,-1.647949
18229,0.069580,-0.114380,0.944092,-0.976562,-1.220703,-2.136230
18238,0.092651,-0.037842,1.048462,-1.220703,-1.220703,-3.173828
18248,0.045654,-0.026733,0.910400,-0.976562,-2.014160,-3.295898
18258,0.024780,-0.119751,0.796753,-0.427246,-1.892090,-3.295898
18269,0.029175,-0.018188,0.915649,-0.061035,-1.464844,-3.112793
18278,0.003052,-0.129761,0.856079,0.122070,-1.220703,-2.746582
18289,-0.069092,-0.102783,0.945801,-0.061035,-0.488281,-1.770020
18298,-0.032715,-0.062378,1.004761,0.366211,-0.610352,-0.915527
18308,-0.051636,-0.169312,0.930908,0.549316,0.427246,1.586914
18318,-0.051147,0.009521,0.922119,0.915527,0.793457,2.502441
18328,-0.060059,-0.143555,0.883545,1.220703,1.037598,3.540039
18338,-0.033081,0.009033,1.018677,1.037598,1.037598,3.784180
18348,-0.037476,-0.153076,0.924927,0.976562,0.610352,4.272461
18358,-0.021851,-0.072876,0.911011,0.549316,1.647949,4.821777
18369,-0.011475,0.098877,0.992432,0.488281,1.770020,5.554199
18378,0.010620,-0.060547,0.936279,1.342773,1.892090,6.469727
18388,-0.006470,-0.044556,1.002441,1.281738,1.403809,6.347656
18399,0.010742,-0.099121,1.125488,1.647949,1.159668,6.286621
18408,0.012085,-0.135132,1.011963,1.892090,1.037598,6.408691
18419,-0.006226,-0.037598,1.021484,1.647949,0.976562,6.530762
18428,0.022827,-0.081177,1.028931,1.831055,1.098633,6.774902
18439,-0.007080,-0.136230,1.015015,1.586914,1.586914,7.202148
18448,0.012207,-0.033203,1.005371,-0.244141,1.098633,7.812500
18458,-0.014648,0.002686,1.002197,-0.976562,1.037598,7.995605
18468,0.010498,0.061401,1.061890,-1.159668,1.342773,8.422852
18479,-0.012573,-0.044800,1.041748,-0.793457,1.525879,8.666992
18488,-0.014160,-0.050781,1.123535,-0.976562,0.976562,8.361816
18499,0.014648,-0.022705,1.142822,-1.403809,0.427246,7.812500
18508,-0.024902,-0.080322,1.082275,-1.953125,-0.366211,7.080078
18520,0.026367,-0.062744,0.979248,-2.075195,-0.122070,5.798340
18529,0.031982,0.005249,0.957520,-1.586914,-0.244141,5.310059
18539,0.017090,-0.048950,0.948486,-1.525879,-0.122070,4.882812
18548,0.052002,-0.020264,0.927124,-1.892090,-0.793457,4.272461
18559,0.023926,-0.001465,0.934937,-2.502441,-0.854492,3.906250
18568,0.031128,0.045776,0.973877,-2.990723,-1.159668,3.662109
18580,0.010132,0.002686,0.854858,-2.807617,-0.915527,3.784180
18589,-0.006836,-0.147217,0.786133,-2.685547,-0.915527,3.540039
18599,0.004761,-0.114746,0.891479,-2.868652,-0.732422,3.479004
18609,0.016113,-0.028076,0.927490,-3.356934,-0.854492,3.051758
18618,-0.013794,-0.144043,0.896118,-3.540039,-0.976562,3.173828
18628,-0.005127,-0.182495,0.858765,-3.662109,-1.525879,3.051758
18639,-0.001465,-0.063232,0.958252,-4.211426,-0.976562,3.173828
18648,-0.009766,-0.008301,0.971680,-4.699707,-0.732422,3.601074
18658,-0.013550,0.056885,1.075806,-4.455566,-0.793457,2.990723
18669,-0.001587,-0.011230,1.064331,-3.662109,-0.427246,2.807617
18679,0.011353,-0.051270,1.058105,-3.356934,-0.183105,2.746582
18688,0.063110,0.004028,0.994995,-3.173828,-0.549316,2.380371
18699,0.047852,-0.025024,0.997437,-2.746582,-0.610352,2.441406
18708,0.073608,-0.053101,1.002563,-2.563477,-0.610352,2.624512
18718,0.073486,-0.084106,1.051270,-2.014160,-0.915527,2.502441
18730,0.070190,-0.127075,0.957520,-2.380371,-1.708984,1.708984
18740,0.066650,-0.108887,1.014771,-2.685547,-2.075195,1.647949
18749,0.056274,-0.064453,1.006592,-3.356934,-1.953125,1.892090
18759,0.005615,-0.047729,0.938843,-3.906250,-2.380371,1.586914
18768,-0.003296,0.026245,1.069946,-4.272461,-2.746582,1.647949
18778,-0.046143,-0.081543,1.032715,-4.150391,-2.380371,1.525879
18790,-0.092041,0.027710,1.047729,-3.967285,-2.075195,0.427246
18800,-0.042969,0.002319,1.081177,-3.601074,-1.220703,0.000000
18809,-0.031006,-0.083130,0.958984,-3.540039,-1.586914,-0.427246
18819,0.005493,-0.020264,1.002319,-3.479004,-1.586914,-1.159668
18828,0.068604,-0.046509,1.019653,-3.540039,-1.525879,-1.647949
18838,0.028442,-0.108154,0.939819,-3.601074,-1.281738,-1.953125
18848,0.050415,-0.018921,1.000488,-4.028320,-1.770020,-2.746582
18860,0.076782,-0.079224,1.055420,-4.028320,-2.014160,-4.089355
18870,0.050903,0.018066,1.042847,-3.784180,-1.892090,-4.638672
18879,0.046265,0.023071,1.103760,-3.051758,-2.136230,-5.004883
18889,0.015991,-0.011230,1.059326,-2.319336,-2.075195,-4.638672
18898,0.020874,-0.065063,0.994385,-1.892090,-1.831055,-4.455566
18909,0.027832,-0.017456,1.026367,-1.770020,-1.342773,-4.028320
18919,0.030518,-0.007690,1.003174,-1.708984,-1.403809,-3.295898
18928,0.046265,0.044189,0.968506,-1.464844,-1.647949,-3.051758
18940,0.030151,-0.070312,0.881470,-0.671387,-1.770020,-2.380371
18949,0.017944,-0.036377,0.965942,-0.061035,-1.647949,-2.075195
18959,-0.009888,-0.035278,0.933350,0.122070,-1.831055,-1.464844
18969,-0.039185,-0.133667,0.954468,0.610352,-1.220703,-0.793457
18979,-0.049561,-0.146240,0.985352,0.732422,-1.281738,-0.366211
18988,-0.058350,-0.127197,0.927979,0.549316,-0.671387,0.061035
18999,0.004028,-0.066650,0.982910,0.061035,0.122070,0.854492
19010,-0.015015,-0.046753,0.934204,-0.061035,15.502930,1.708984
19020,-0.020386,-0.064087,0.942261,-0.549316,0.183105,1.831055
19029,-0.030396,-0.065308,0.958496,-1.037598,1.159668,1.770020
19039,-0.030640,-0.019043,0.982788,-1.342773,0.610352,1.953125
19048,-0.004517,-0.062622,0.986694,-1.220703,0.427246,1.892090
19059,0.003174,-0.048218,1.006226,-1.037598,0.610352,2.014160
19068,0.020142,-0.025635,1.038818,-1.220703,0.122070,2.014160
19080,0.007813,-0.034302,1.084351,-1.159668,0.000000,1.831055
19089,0.012573,-0.068726,1.074341,-0.427246,0.793457,1.708984
19099,0.047729,-0.114868,1.019653,-0.061035,0.305176,1.281738
19108,0.020630,-0.147949,0.960327,0.366211,0.244141,1.281738
19118,0.043579,-0.120483,0.918213,0.183105,-0.183105,1.220703
19129,0.040527,-0.095215,0.921021,-0.610352,-0.427246,1.403809
19138,0.036743,0.006226,0.986328,-1.220703,-1.037598,1.220703
19150,-0.040283,-0.027588,0.966675,-1.220703,15.441895,1.953125
19159,-0.064819,-0.021484,0.974365,-1.831055,0.305176,2.624512
