timestamp,accX,accY,accZ,gyrX,gyrY,gyrZ
11,-0.000610,-0.207031,0.987061,-3.051758,-3.601074,6.652832
20,0.076294,-0.177490,1.031616,-2.990723,-3.906250,4.760742
31,0.126953,-0.166748,1.031860,-3.051758,-4.455566,2.685547
40,0.119019,-0.213501,0.976440,-2.868652,-5.065918,0.976562
51,0.090210,-0.179810,0.946533,-2.563477,-6.042480,-0.366211
60,0.075317,-0.177856,0.950806,-2.380371,-6.835937,-1.281738
72,0.062744,-0.090698,1.023193,-2.868652,-6.896973,-1.098633
81,0.050537,-0.086792,1.023926,-2.990723,-6.774902,-0.549316
91,-0.021240,-0.113037,0.984253,-2.929688,-6.835937,-0.610352
101,-0.013306,-0.117310,1.061035,-2.563477,-6.958008,-1.220703
111,-0.012817,-0.169189,1.085938,-2.197266,-6.896973,-2.136230
120,-0.047363,-0.232788,0.997803,-1.953125,-7.568359,-3.540039
130,-0.049438,-0.184204,0.989258,-1.831055,-7.568359,-4.638672
142,0.003906,-0.250488,1.009399,-0.732422,-7.141113,-5.554199
151,-0.017700,-0.190430,0.981567,-0.732422,-7.568359,-5.432129
161,-0.058228,-0.164551,0.976196,-0.854492,-7.141113,-5.065918
171,-0.084106,-0.192871,0.941040,-0.732422,-6.530762,-4.455566
180,-0.064453,-0.200317,0.966553,-0.915527,-5.676270,-3.784180
190,-0.039673,-0.179932,0.950562,-1.403809,-5.371094,-3.051758
203,-0.050659,-0.206421,0.939331,-1.892090,-5.371094,-2.319336
213,-0.068970,-0.145996,0.958008,-1.892090,-4.882812,-1.831055
222,-0.025269,-0.046021,1.056030,-1.831055,-4.211426,-1.464844
232,-0.074341,-0.034424,1.031006,-1.770020,-4.455566,-1.159668
242,-0.103394,-0.066772,1.036987,-1.586914,-3.906250,-1.220703
251,-0.134033,-0.060791,1.029785,-1.464844,-3.295898,-1.281738
261,-0.139404,-0.000366,1.016357,-1.159668,-2.990723,-1.525879
270,-0.135376,-0.062012,1.004395,-0.915527,-3.173828,-3.662109
280,-0.113892,-0.148315,0.959106,-0.244141,-2.380371,-4.333496
291,-0.097290,-0.043457,0.988892,-0.671387,-2.258301,-4.516602
301,-0.145874,-0.040527,0.933838,-0.854492,-1.403809,-3.906250
310,-0.166260,-0.049927,0.933228,-0.793457,-0.427246,-3.417969
321,-0.160156,-0.028442,0.986084,-0.549316,0.976562,-3.112793
330,-0.146484,-0.105591,0.946045,-0.427246,1.281738,-3.234863
340,-0.144775,-0.183960,0.924683,-0.488281,1.342773,-3.967285
352,-0.071411,-0.133789,0.914795,-0.732422,2.258301,-4.882812
361,-0.073242,-0.144531,0.974121,-1.098633,1.892090,-5.126953
371,-0.061401,-0.148926,0.987061,-1.281738,2.502441,-5.065918
380,-0.124268,-0.079224,0.979370,-1.220703,3.112793,-4.638672
390,-0.072144,-0.058350,1.025513,-0.854492,3.723145,-4.333496
401,-0.065063,-0.107422,1.001343,-0.671387,4.028320,-4.333496
410,-0.026489,-0.175781,0.940430,-0.549316,4.028320,-5.432129
420,-0.022217,-0.181519,0.895752,-0.549316,3.906250,-5.920410
431,-0.020264,-0.168091,0.979004,-0.854492,3.784180,-6.164551
441,0.007690,-0.107422,1.027344,-0.793457,3.723145,-5.737305
450,0.064819,-0.046875,1.065796,-0.732422,4.028320,-5.310059
460,0.112915,-0.103760,1.040161,-0.854492,3.845215,-4.455566
471,0.102417,-0.128784,0.966309,-1.098633,3.479004,-3.784180
480,0.003418,-0.178589,0.978882,-1.037598,2.990723,-1.770020
492,0.184326,-0.179565,0.945557,-0.671387,3.906250,-0.488281
502,0.102417,-0.205933,1.037354,-1.098633,2.258301,-1.037598
511,-0.014282,-0.135864,1.063110,-1.342773,1.892090,-0.366211
521,-0.039185,-0.143311,1.021484,-1.220703,2.319336,0.610352
530,-0.032349,-0.080688,1.005981,-1.342773,3.051758,1.708984
541,-0.083496,-0.154663,1.012329,-1.220703,2.929688,1.892090
550,-0.046387,-0.284546,0.940796,-1.159668,2.868652,2.502441
560,-0.025513,-0.211914,0.952271,-1.525879,2.624512,2.014160
571,0.009155,-0.068848,1.058594,-1.831055,1.953125,1.464844
580,0.029907,-0.111938,0.971313,-2.197266,1.464844,1.281738
591,0.085815,-0.161621,0.954224,-2.136230,1.708984,1.525879
600,0.104980,-0.134399,0.976196,-2.014160,2.136230,1.647949
611,0.091919,-0.108887,0.980347,-2.136230,2.136230,1.708984
620,0.039673,-0.052246,1.112671,-2.441406,1.403809,1.159668
632,0.023315,-0.132080,1.043823,-1.708984,1.037598,0.793457
641,0.048462,-0.131592,1.086060,-1.159668,0.610352,0.000000
650,0.036255,-0.185669,0.982178,-0.061035,0.061035,-0.854492
661,0.014526,-0.236206,0.899902,-0.244141,-0.976562,-1.159668
670,0.022095,-0.250854,0.871704,-0.671387,-1.525879,0.000000
680,0.009521,-0.183472,0.921753,-1.281738,-1.037598,1.464844
690,-0.020630,-0.234619,0.862793,-1.403809,-0.244141,3.356934
702,-0.016968,-0.194214,0.991089,-2.807617,1.098633,6.530762
711,-0.088989,-0.117310,1.077393,-3.051758,0.854492,5.859375
721,-0.051514,-0.157227,1.097290,-2.319336,0.549316,4.211426
730,-0.031128,-0.237305,1.012207,-1.708984,-0.061035,1.953125
740,0.052124,-0.252808,0.968140,-1.647949,-0.366211,-0.244141
750,0.081055,-0.224243,0.990112,-1.953125,-1.342773,-2.197266
760,0.033569,-0.136719,0.979126,-2.136230,-2.319336,-3.845215
772,0.023804,-0.157104,0.969971,-2.014160,-2.197266,-5.371094
782,0.029297,-0.217163,0.903076,-2.014160,-1.708984,-5.920410
792,0.031372,-0.228882,0.983032,-2.319336,-2.136230,-6.652832
801,-0.052368,-0.167480,1.005127,-2.380371,-2.807617,-7.080078
811,-0.050415,-0.086914,1.076416,-2.075195,-2.441406,-7.629395
821,-0.016235,-0.115479,0.988037,-1.525879,-1.525879,-7.751465
830,0.000244,-0.193359,0.952881,-0.793457,-1.281738,-7.934570
840,0.035400,-0.261108,0.888428,-1.281738,-1.770020,-7.629395
851,0.004517,-0.146973,0.985962,-1.953125,-1.647949,-6.896973
861,-0.028442,-0.127808,0.932495,-2.197266,-0.976562,-5.981445
870,-0.074951,-0.205811,0.961548,-1.647949,0.366211,-5.004883
880,0.003540,-0.216919,0.947144,-1.647949,0.671387,-4.577637
891,0.049194,-0.219727,1.031860,-1.708984,0.305176,-4.394531
900,0.073242,-0.228271,0.935547,-2.136230,-2.929688,-6.713867
910,0.046753,-0.216675,0.947388,-2.563477,-2.563477,-7.141113
921,0.026978,-0.127808,1.057251,-2.319336,-1.098633,-6.469727
930,0.067017,-0.195312,1.043091,-2.136230,0.061035,-5.432129
941,-0.002197,-0.200928,0.963135,-2.075195,-0.366211,-5.249023
954,-0.008789,-0.141968,0.972168,-1.525879,-0.793457,-6.713867
963,-0.008789,-0.141968,0.972168,-1.098633,-1.342773,-7.446289
972,0.138428,-0.223022,0.966187,-1.342773,-1.770020,-8.178711
982,0.145386,-0.105347,0.986450,-2.075195,-2.075195,-8.605957
992,0.174438,-0.094604,1.005005,-2.624512,-2.868652,-8.911133
1003,0.180908,-0.093140,1.001465,-2.258301,-2.624512,-8.666992
1013,0.208740,-0.123291,1.062988,-1.953125,-3.723145,-8.361816
1023,0.150513,-0.160522,1.034912,-1.708984,-4.882812,-7.995605
1033,0.082886,-0.085205,1.018921,-1.770020,-4.699707,-7.507324
1043,0.083130,-0.122681,0.990112,-2.258301,-5.187988,-6.774902
1053,0.100098,-0.065186,0.980835,-2.868652,-5.126953,-6.225586
1063,0.017578,0.011475,0.934204,-3.173828,-5.187988,-5.981445
1073,0.005981,-0.020874,1.007202,-3.295898,-4.577637,-5.371094
1083,-0.064087,-0.023926,0.959961,-3.540039,-4.943848,-5.065918
1093,-0.081421,-0.085449,1.012207,-3.906250,-3.723145,-5.004883
1102,-0.171753,-0.030396,0.948486,-3.417969,-3.845215,-5.432129
1112,-0.159302,-0.101196,0.974731,-2.929688,-3.662109,-5.676270
1121,-0.091919,-0.148682,0.998657,-2.868652,-2.868652,-5.920410
1131,-0.074951,-0.071045,1.051025,-3.051758,-2.868652,-6.225586
1141,-0.037109,-0.074097,1.035034,-2.746582,-3.234863,-5.981445
1150,-0.036621,-0.179077,0.946533,-1.831055,-2.319336,-5.798340
1160,0.005615,-0.236328,0.875610,-1.464844,-2.136230,-5.371094
1170,0.060059,-0.192261,0.931152,-1.159668,-1.525879,-4.821777
1183,0.024902,-0.175659,0.901489,-1.586914,-2.563477,-3.784180
1192,-0.002441,-0.147583,0.944580,-1.953125,-3.051758,-2.990723
1202,-0.020020,-0.045898,1.031860,-1.953125,-1.770020,-2.136230
1212,-0.026245,-0.088867,0.982788,-1.770020,-1.708984,-1.037598
1221,-0.007690,-0.179565,0.985107,-1.708984,-2.014160,-0.061035
1231,-0.014038,-0.040894,1.051758,-1.770020,-0.976562,0.793457
1241,-0.023437,-0.062500,1.016602,-1.525879,-1.525879,1.220703
1251,0.000366,-0.168457,0.972168,-1.708984,-2.197266,1.708984
1260,0.015991,-0.095703,1.015259,-1.464844,-2.502441,1.342773
1271,-0.009888,-0.143921,0.966309,-1.281738,-2.868652,0.854492
1281,-0.015747,-0.192871,0.953003,-1.220703,-3.234863,0.122070
1290,-0.051514,-0.079834,0.991211,-1.831055,-3.479004,-0.549316
1300,-0.039917,-0.091431,0.951782,-1.831055,-3.234863,-1.770020
1310,-0.029663,-0.159058,0.948242,-1.708984,-3.173828,-2.685547
1320,-0.010254,-0.107300,0.983032,-1.953125,-3.723145,-4.333496
1330,-0.005615,-0.121948,1.001343,-2.319336,-3.784180,-4.821777
1340,0.050293,-0.121582,1.043823,-2.014160,-3.662109,-5.187988
1350,0.040039,-0.156494,1.036377,-1.647949,-3.479004,-5.187988
1360,0.049683,-0.208984,0.958374,-1.586914,-3.723145,-4.821777
1370,0.083008,-0.227051,1.016113,-1.525879,-3.417969,-4.577637
1380,0.093140,-0.149780,1.031250,-1.892090,-4.333496,-4.577637
1391,0.058838,-0.162231,0.979004,-1.831055,-5.493164,-4.882812
1401,0.033569,-0.174438,0.981689,-1.831055,-6.347656,-5.615234
1411,0.038940,-0.211426,0.930908,-1.831055,-6.042480,-6.225586
1420,0.037476,-0.204224,0.966187,-2.014160,-6.286621,-6.774902
1430,0.042358,-0.157227,0.920654,-2.197266,-7.019043,-7.263184
1441,0.000732,-0.172485,0.926514,-2.502441,-7.202148,-7.385254
1450,0.012207,-0.209106,1.006958,-2.441406,-7.202148,-7.751465
1460,0.076294,-0.128052,1.058472,-2.075195,-6.469727,-8.911133
1472,0.048096,-0.208618,1.042725,-1.525879,-7.629395,-9.765625
1481,0.028564,-0.212280,1.006104,-1.403809,-8.117676,-10.925293
1491,0.037231,-0.247803,0.951538,-1.403809,-8.605957,-12.390137
1501,0.036255,-0.179077,1.000854,-1.586914,-9.338379,-13.549805
1511,0.002808,-0.180176,0.960571,-1.464844,-9.704590,-14.709473
1520,0.041016,-0.172119,1.001953,-0.976562,-10.131836,-15.502930
1530,0.032715,-0.169556,1.027710,-0.305176,-8.972168,-16.113281
1541,0.077393,-0.196899,0.996094,-0.488281,-8.544922,-15.686035
1551,0.017334,-0.197876,0.926880,-0.732422,-8.605957,-15.441895
1561,0.010254,-0.195312,0.932007,-1.281738,-9.094238,-14.892578
1570,-0.005615,-0.157959,1.005127,-1.525879,-8.850098,-14.953613
1580,0.015503,-0.148560,1.004517,-1.647949,-8.850098,-15.197754
1590,0.000732,-0.105591,1.039185,-1.403809,-8.850098,-15.991211
1603,-0.043213,-0.133545,0.990112,-1.831055,-8.911133,-17.272949
1612,-0.063843,-0.030762,1.035645,-1.953125,-8.483887,-18.188477
1622,-0.083496,-0.031250,1.025391,-1.464844,-8.666992,-18.615723
1632,-0.096680,-0.064941,1.079224,-0.915527,-8.239746,-18.737793
1641,-0.082642,-0.157715,1.019897,-0.488281,-7.446289,-19.165039
1651,-0.086548,-0.095337,0.978882,0.000000,-7.202148,-20.080566
1661,-0.096680,-0.094116,0.985474,0.122070,-6.652832,-20.690918
1671,-0.107422,-0.109985,1.074585,0.976562,-5.432129,-21.728516
1680,-0.117065,-0.065674,1.000122,1.281738,-5.065918,-22.521973
1690,-0.107056,-0.116211,0.923950,1.403809,-4.821777,-23.071289
1700,-0.087646,-0.173462,0.914551,1.342773,-4.638672,-23.681641
1709,-0.066284,-0.099243,0.972046,0.854492,-4.028320,-23.864746
1720,-0.056030,-0.064819,0.922485,0.244141,-3.540039,-23.681641
1730,-0.050171,-0.051758,0.918335,0.244141,-2.563477,-23.376465
1740,-0.062988,-0.099976,0.959717,0.366211,-2.075195,-23.315430
1749,-0.033936,-0.123291,1.007324,0.061035,-0.915527,-23.437500
1760,-0.033936,-0.075073,0.930786,-0.061035,-0.366211,-23.559570
1770,-0.007324,-0.132080,0.917480,-0.305176,-0.244141,-23.559570
1780,0.003174,-0.124390,0.914307,-0.488281,-0.976562,-23.620605
1791,0.085937,-0.099731,0.926758,-0.549316,-0.305176,-23.315430
1800,0.072266,-0.106567,0.986938,-0.488281,-0.854492,-22.949219
1810,0.060303,-0.132324,1.085815,0.000000,-0.976562,-22.766113
1821,-0.000977,-0.110840,1.065674,1.037598,-0.976562,-23.193359
1831,0.018311,-0.157349,1.091553,1.831055,0.061035,-22.949219
1841,-0.045776,-0.231201,0.999390,1.953125,0.122070,-22.583008
1851,-0.178101,-0.126831,0.909912,1.708984,0.488281,-21.789551
1860,-0.233521,-0.095459,0.937500,1.159668,1.892090,-20.202637
1870,-0.153931,-0.006714,1.027100,1.159668,3.295898,-18.554687
1881,-0.244629,-0.129883,0.984985,1.525879,4.882812,-16.357422
1891,-0.300659,-0.080078,0.999756,1.770020,6.286621,-15.136719
1901,-0.242798,0.000122,1.097168,1.892090,7.202148,-14.526367
1911,-0.163574,-0.075317,1.080444,2.319336,8.544922,-14.282227
1921,-0.140259,-0.088867,1.049316,2.746582,8.422852,-14.038086
1930,-0.047974,-0.164673,0.974365,3.051758,7.934570,-14.160156
1940,0.019653,-0.150391,0.999146,2.990723,8.666992,-13.977051
1951,0.104980,-0.167969,0.997437,1.953125,7.507324,-13.122559
1961,0.053833,-0.192749,0.965454,2.075195,7.568359,-12.756348
1970,0.021118,-0.216064,0.915771,1.892090,8.239746,-12.329102
1980,0.031738,-0.218872,0.884766,1.708984,8.666992,-11.230469
1990,-0.007446,-0.165649,0.933228,1.281738,8.178711,-10.375977
2000,-0.067017,-0.171021,0.983765,1.220703,8.605957,-10.009766
2010,-0.131348,-0.231934,0.996704,1.220703,8.422852,-9.887695
2020,-0.127563,-0.206177,0.988647,1.220703,8.789063,-9.216309
2031,-0.154175,-0.202515,0.929443,0.976562,9.948730,-7.873535
2041,-0.169800,-0.197754,1.003906,0.732422,10.437012,-7.324219
2050,-0.152100,-0.202637,0.950073,0.671387,11.535645,-6.713867
2060,-0.132202,-0.142090,0.972046,0.610352,12.207031,-5.615234
2070,-0.115601,-0.243530,0.922485,0.366211,12.756348,-4.394531
2080,-0.109985,-0.203003,0.838501,0.183105,13.122559,-3.845215
2091,-0.086914,-0.180298,0.912231,-0.976562,13.366699,-2.502441
2101,-0.078003,-0.031006,1.064209,-0.976562,14.343262,-1.342773
2111,-0.088257,-0.121704,0.975708,-0.732422,14.221191,-0.671387
2120,-0.076538,-0.150391,0.973511,-0.244141,13.916016,-0.061035
2130,-0.029053,-0.228516,0.870972,0.244141,14.526367,0.915527
2140,-0.025879,-0.219727,0.871216,0.000000,14.160156,1.892090
2150,0.005371,-0.241089,0.855469,-0.244141,13.916016,3.234863
2161,-0.000366,-0.158936,0.931763,-0.610352,14.404297,6.713867
2171,-0.038574,-0.231567,1.073975,-0.854492,14.770508,8.300781
2181,-0.024292,-0.011719,1.181030,-0.427246,13.854980,9.033203
2191,-0.046143,-0.263916,1.071411,0.061035,13.305664,9.399414
2201,-0.054932,-0.121948,1.035889,0.488281,13.244629,10.009766
2210,-0.041748,-0.197510,1.062012,0.976562,13.427734,10.437012
2220,-0.012085,-0.394409,0.837646,0.610352,12.512207,10.681152
2230,0.063477,-0.152954,0.963379,0.061035,11.718750,11.108398
2241,0.141602,0.004517,1.130737,-0.976562,9.826660,12.634277
2251,0.150146,0.004395,1.160889,-0.976562,9.155273,13.305664
2260,0.065186,-0.131714,1.098633,-0.366211,8.850098,14.099121
2270,0.023804,-0.069214,1.061646,-0.610352,9.094238,15.197754
2279,-0.002686,-0.057983,1.114380,-0.793457,8.666992,16.174316
2290,-0.030029,0.033569,1.140137,-1.037598,8.117676,16.967773
2300,-0.055542,0.033569,1.099121,-0.915527,7.446289,16.845703
2311,-0.088745,-0.051758,1.095581,-0.732422,5.981445,16.662598
2321,-0.134399,-0.047363,1.069824,-0.610352,5.859375,16.235352
2330,-0.118896,0.052979,1.047852,-0.366211,5.676270,15.625000
2340,-0.166260,-0.012085,1.043091,-0.122070,6.530762,15.502930
2349,-0.165161,-0.148437,0.864380,0.122070,6.347656,15.197754
2360,-0.121582,-0.023804,0.947510,0.122070,6.591797,14.526367
2369,-0.060913,-0.243408,0.864624,0.061035,6.164551,13.854980
2382,-0.003906,-0.225098,0.863525,-0.366211,4.882812,13.061523
2391,0.055908,-0.062866,0.991821,-0.732422,4.638672,12.695313
2401,0.054077,-0.238403,0.907349,-0.366211,4.638672,12.756348
2410,0.087280,-0.119385,0.899048,-0.427246,4.394531,12.695313
2419,0.085083,-0.181152,0.978394,0.000000,3.723145,12.817383
2430,0.110840,-0.272583,0.850098,0.488281,2.441406,13.305664
2441,0.075439,-0.126343,0.876099,0.732422,0.854492,13.427734
2450,0.012207,-0.164673,0.830322,0.366211,0.000000,13.183594
2461,0.048584,-0.238770,0.878296,0.122070,-0.610352,12.451172
2470,0.018921,-0.095459,0.944702,-0.122070,-0.732422,11.596680
2480,0.022095,-0.108643,1.038940,-0.183105,-1.464844,10.314941
2489,-0.008911,-0.138916,1.085327,0.366211,-1.647949,8.911133
2500,-0.032349,-0.075317,1.199707,0.427246,-2.197266,7.202148
2509,-0.068604,-0.318970,1.047974,0.732422,-2.319336,4.943848
2521,0.033081,0.038940,1.094971,0.244141,-3.356934,1.159668
2531,0.060669,-0.181152,0.938110,-0.366211,-3.662109,-1.037598
2540,0.138062,0.066772,1.041748,-0.549316,-4.516602,-3.295898
2550,0.162964,-0.243896,1.004883,-0.427246,-5.249023,-5.126953
2559,0.164429,-0.266724,0.965576,-0.915527,-6.469727,-6.591797
2569,0.234497,0.118164,1.146851,-1.647949,-6.774902,-8.178711
2580,0.157471,-0.230591,1.043213,-1.770020,-7.751465,-9.765625
2589,0.146484,-0.114868,1.095459,-1.708984,-8.850098,-13.488770
2601,0.149292,-0.344971,0.954834,-2.258301,-9.338379,-14.404297
2611,0.169678,-0.125366,1.103027,-2.868652,-9.338379,-15.075684
2620,0.131348,-0.319824,0.966553,-2.868652,-9.277344,-15.014648
2630,0.084473,-0.068237,1.081543,-3.112793,-9.521484,-14.831543
2639,0.100342,-0.085693,1.132690,-3.051758,-9.460449,-14.465332
2650,-0.003540,-0.315063,0.836426,-2.990723,-9.155273,-14.160156
2660,-0.038208,-0.023315,1.009033,-2.502441,-8.361816,-12.573242
2669,-0.095581,-0.237915,0.893311,-2.624512,-7.873535,-11.840820
2680,-0.069580,-0.056519,0.969360,-2.380371,-6.896973,-10.925293
2690,-0.093384,-0.186890,0.938599,-1.770020,-6.164551,-10.253906
2699,-0.057983,-0.217407,0.906982,-1.281738,-5.798340,-9.704590
2710,-0.106201,-0.258667,0.836304,-1.403809,-5.187988,-9.094238
2720,-0.135620,-0.253784,0.815674,-1.892090,-5.187988,-8.117676
2729,-0.141602,-0.150757,0.891113,-2.319336,-2.685547,-5.981445
2739,-0.140137,-0.110474,0.877441,-2.258301,-1.586914,-4.699707
2750,-0.165405,-0.168091,0.896362,-1.953125,-0.854492,-3.662109
2760,-0.180542,-0.190918,0.867676,-1.770020,-0.427246,-2.685547
2769,-0.173340,-0.042969,1.022705,-1.220703,0.610352,-1.586914
2779,-0.183838,-0.237183,0.988403,-0.305176,1.037598,-1.098633
2790,-0.216553,-0.336060,0.898926,-0.122070,1.525879,-0.976562
2800,-0.146362,-0.005249,1.038330,-0.488281,2.441406,-1.831055
2809,-0.083618,-0.260132,0.911621,-0.854492,2.685547,-2.990723
2819,-0.072510,0.008667,1.016357,-1.220703,2.197266,-4.150391
2830,0.002563,0.006592,1.052002,-1.159668,3.051758,-5.310059
2839,-0.004517,-0.103271,0.984619,-1.831055,2.563477,-5.981445
2849,-0.031616,0.040283,1.108521,-1.953125,3.051758,-6.408691
2860,0.004150,0.084106,1.167603,-1.647949,2.929688,-6.652832
2869,-0.011353,-0.074951,1.030151,-1.464844,2.929688,-7.446289
2881,0.080933,0.063232,1.042847,-1.464844,3.723145,-7.507324
2890,0.077393,-0.046021,1.041382,-2.014160,2.014160,-7.629395
2900,0.120483,-0.074219,1.051270,-2.197266,2.563477,-7.812500
2909,0.108887,-0.029053,1.057495,-2.197266,2.258301,-7.873535
2920,0.112305,-0.247925,0.980957,-2.197266,1.647949,-7.995605
2929,0.125366,-0.079102,0.975586,-2.990723,1.220703,-8.056641
2941,0.017090,-0.300659,0.944092,-3.540039,0.854492,-7.751465
2950,-0.039917,-0.078003,0.925049,-3.967285,0.427246,-7.690430
2960,0.023071,-0.038574,1.054199,-4.028320,0.671387,-7.019043
2969,-0.040771,-0.275513,0.941162,-3.784180,1.098633,-6.347656
2979,-0.053467,-0.036499,1.070557,-3.906250,0.732422,-6.652832
2990,-0.157349,-0.068970,1.115356,-2.624512,1.464844,-6.591797
2999,-0.164062,-0.323120,0.883301,-1.770020,1.220703,-6.958008
3009,-0.098145,-0.170044,0.975464,-1.586914,2.929688,-7.446289
3021,-0.085693,-0.173096,0.908203,-1.892090,2.807617,-7.629395
3030,-0.137573,0.022949,1.034424,-1.220703,3.173828,-7.995605
3040,-0.109131,-0.087158,0.987061,-0.366211,3.845215,-8.666992
3050,-0.091309,-0.208496,0.877563,0.488281,4.699707,-9.643555
3060,-0.043335,-0.088501,0.976807,0.671387,5.859375,-9.338379
3069,-0.044312,-0.102417,1.031250,0.549316,5.493164,-9.155273
3081,0.013428,0.023682,0.949341,0.732422,6.225586,-8.422852
3090,0.030884,0.166138,1.019165,1.098633,7.385254,-5.493164
3100,0.001221,-0.440674,0.845093,2.868652,7.385254,-3.906250
3109,0.050903,-0.429565,0.809082,2.258301,6.835937,-2.197266
3120,0.118164,-0.120117,0.972290,-0.183105,7.385254,0.244141
3129,0.106079,-0.132202,1.034790,-1.159668,7.507324,2.136230
3140,-0.075195,0.006348,1.019531,-1.708984,7.507324,4.211426
3149,-0.034302,0.087646,1.036133,-1.159668,9.155273,7.507324
3161,-0.152954,-0.269653,1.040649,-1.037598,8.972168,8.666992
3171,-0.207397,-0.111450,1.097900,-0.671387,9.155273,9.216309
3180,-0.176880,-0.020996,1.072754,-0.244141,9.277344,9.704590
3190,-0.131836,-0.198975,1.061401,-0.549316,9.155273,10.864258
3200,-0.052124,-0.233887,0.945190,-0.610352,9.155273,12.023926
3209,-0.039429,-0.063477,0.935303,-0.610352,9.643555,12.573242
3221,-0.023193,-0.285400,0.951416,-0.915527,9.521484,13.061523
3231,-0.001465,-0.023804,1.005615,-1.770020,9.216309,12.695313
3240,0.028931,-0.151245,0.988892,-2.075195,8.728027,12.512207
3250,0.055786,-0.349976,0.946655,-2.319336,8.789063,11.962891
3259,0.009644,-0.133789,1.041626,-2.441406,7.080078,11.474609
3270,0.018921,0.090576,1.063354,-2.014160,5.615234,10.742188
3279,0.048950,-0.133545,1.057983,-1.037598,5.615234,10.498047
3291,0.094727,-0.191528,0.950806,-0.976562,5.065918,10.009766
3301,0.078735,0.026611,1.013428,-1.220703,4.394531,10.253906
3310,0.159912,-0.068481,0.994995,-1.098633,3.601074,10.314941
3320,0.100220,-0.260742,0.969727,-0.488281,2.807617,10.070801
3329,0.124023,-0.197144,0.914551,-0.183105,2.075195,9.643555
3340,0.090698,-0.163086,0.955444,-0.549316,1.586914,8.728027
3349,0.065918,-0.197388,0.998291,-1.159668,0.610352,7.568359
3362,0.063721,0.103638,1.063843,-1.892090,-0.854492,5.187988
3371,0.076294,0.071289,1.046265,-1.586914,-0.610352,4.150391
3381,0.032959,-0.103394,1.017090,-0.671387,-1.525879,3.051758
3390,0.016113,-0.106812,1.014404,-0.549316,-0.976562,2.990723
3400,-0.019897,0.090576,1.091064,-0.671387,-1.831055,2.380371
3409,0.001343,0.058350,1.110352,-0.610352,-1.281738,1.770020
3420,-0.023926,-0.138794,1.033936,-0.061035,-1.464844,1.159668
3429,-0.038330,-0.177856,0.964478,0.610352,-1.098633,-0.366211
3439,-0.065430,-0.071899,0.967651,0.854492,-1.098633,-1.342773
3450,0.029175,-0.316650,0.857422,0.061035,-1.525879,-2.136230
3459,0.051636,-0.179565,0.910278,-1.098633,-2.075195,-3.051758
3470,0.082764,0.067505,1.017456,-1.586914,-2.441406,-3.967285
3480,0.090332,-0.113770,1.024658,-1.892090,-2.685547,-4.211426
3489,0.030396,-0.264404,0.975464,-1.831055,-1.892090,-4.150391
3499,0.039551,-0.063965,1.024536,-1.647949,-1.403809,-3.051758
3509,0.150269,-0.187256,1.035889,-0.610352,-1.586914,-2.563477
3520,0.151245,-0.118042,1.004028,0.183105,-2.197266,-2.746582
3529,0.139893,-0.074951,1.018188,0.610352,-3.417969,-2.075195
3539,0.126953,-0.214233,0.977905,0.671387,-4.089355,-1.770020
3550,0.119019,-0.271484,0.919189,-0.061035,-4.272461,-1.770020
3559,0.104004,-0.065430,1.014526,-1.037598,-4.272461,-1.220703
3571,0.030029,-0.091797,1.014038,-1.159668,-4.089355,0.061035
3580,-0.036499,-0.331177,0.926880,-0.427246,-3.234863,0.000000
3590,-0.080811,-0.301880,0.869263,-0.549316,-3.540039,-0.610352
3600,-0.077759,0.062866,0.998657,-0.976562,-3.479004,-1.220703
3609,-0.081543,-0.096680,0.943481,-1.159668,-3.967285,-1.281738
3619,-0.071655,-0.231323,0.816772,-1.342773,-3.723145,-1.708984
3629,-0.112061,-0.109985,0.886353,-2.014160,-3.540039,-1.647949
3641,-0.030151,-0.126221,1.045166,-2.258301,-2.746582,-0.671387
3651,0.013916,-0.185425,1.008301,-2.502441,-2.014160,-0.122070
3660,0.002563,-0.079712,1.060791,-2.563477,-1.708984,-0.183105
3670,0.070923,-0.133423,1.106323,-2.502441,-1.525879,-0.244141
3680,0.050171,-0.279419,1.054443,-2.319336,-2.075195,-0.488281
3690,-0.001587,-0.209961,1.001587,-1.892090,-2.868652,-1.098633
3699,-0.025513,-0.077026,1.046021,-1.403809,-3.356934,-0.976562
3711,0.015381,-0.308838,0.929687,-1.220703,-2.746582,0.183105
3720,-0.008667,-0.321899,0.851440,-1.647949,-1.708984,1.281738
3730,0.010620,-0.038086,0.968628,-2.075195,-1.892090,2.014160
3740,-0.010254,0.015137,1.037109,-1.586914,-2.014160,2.868652
3749,-0.029053,-0.173950,1.027344,-1.403809,-1.586914,3.784180
3760,-0.070923,-0.303467,1.000000,-1.403809,-1.708984,4.943848
3769,0.000244,-0.209106,1.055786,-1.342773,-1.098633,6.103516
3781,-0.104492,-0.099854,1.021851,-1.403809,-0.976562,7.202148
3790,-0.123047,-0.130981,0.976440,-0.610352,-0.305176,7.385254
3800,-0.101563,-0.147217,0.953125,-0.610352,-0.366211,6.958008
3810,-0.131592,-0.103882,0.953979,-0.732422,-0.549316,5.920410
3819,-0.103149,-0.005737,1.011841,-1.098633,-0.915527,4.455566
3829,-0.066528,-0.080811,1.007324,-1.708984,-0.610352,2.990723
3840,-0.048950,-0.200439,0.935913,-1.770020,-1.281738,1.403809
3850,-0.068481,-0.154175,0.847046,-1.770020,-0.915527,-0.488281
3859,0.085205,0.072388,1.068604,-2.258301,-0.549316,-0.793457
3870,0.026245,-0.145020,0.978882,-2.746582,-1.220703,-1.770020
3879,0.010620,-0.117676,0.919189,-3.295898,-1.525879,-2.502441
3890,0.016357,0.102661,1.006958,-2.746582,-1.647949,-3.112793
3899,0.041504,0.042114,1.014526,-1.892090,-1.831055,-3.601074
3910,0.002197,-0.030884,1.001221,-1.403809,-1.892090,-3.906250
3919,0.071899,-0.199585,0.971313,-0.244141,-2.014160,-4.211426
3929,0.129639,-0.076050,0.978149,-1.098633,-1.770020,-4.211426
3940,0.139648,-0.086304,1.037842,-1.953125,-2.624512,-4.638672
3950,0.037964,-0.015625,1.117676,-1.220703,-3.479004,-6.225586
3959,0.034546,-0.098389,1.196533,0.061035,-4.516602,-7.385254
3970,-0.062622,-0.238281,1.083618,1.342773,-3.234863,-7.751465
3979,0.008301,-0.178345,1.042847,1.831055,-2.990723,-8.239746
3991,0.006226,-0.215332,0.977417,1.586914,-2.380371,-7.934570
4000,-0.009521,-0.134277,0.887207,1.159668,-3.662109,-8.178711
4010,0.055054,-0.030029,0.934692,0.976562,-3.601074,-8.422852
4020,0.013062,-0.102051,0.987305,1.281738,-3.112793,-9.033203
4029,0.009399,-0.258301,0.960815,1.159668,-2.258301,-9.826660
4040,-0.032959,-0.225098,0.885132,0.366211,-3.234863,-10.498047
4050,-0.051758,-0.052002,0.973022,-0.244141,-1.220703,-10.864258
4059,0.005005,0.069336,0.996338,-1.037598,-0.427246,-10.314941
4071,-0.036865,-0.281738,0.947632,-1.159668,-0.793457,-10.070801
4081,-0.044434,-0.078857,0.997681,-1.525879,-0.183105,-9.765625
4091,-0.058105,0.055176,1.019897,-1.525879,0.915527,-9.460449
4100,-0.007080,-0.013306,0.930908,-1.770020,1.037598,-8.911133
4109,0.005005,-0.162354,0.886963,-2.075195,1.525879,-8.422852
4119,-0.004150,-0.090942,0.929565,-2.014160,1.770020,-8.117676
4131,0.023560,-0.177002,0.974731,-1.831055,2.075195,-6.774902
4140,0.040283,-0.138428,0.986938,-2.502441,2.685547,-5.981445
4150,0.014771,-0.033936,1.024536,-2.502441,2.807617,-5.065918
4159,0.030518,0.038940,1.032471,-1.953125,2.929688,-3.906250
4170,0.003784,-0.163452,1.046875,-1.098633,2.990723,-2.441406
4179,-0.014526,-0.320435,0.953979,-0.366211,3.906250,-1.037598
4191,-0.054077,-0.248291,0.999390,-0.244141,4.150391,1.159668
4201,-0.063477,0.025146,1.093018,0.000000,4.089355,2.136230
4210,-0.082764,-0.191406,0.956665,0.671387,3.540039,2.807617
4220,-0.059692,-0.419800,0.827515,0.976562,4.272461,3.723145
4229,-0.055176,-0.329590,0.913574,0.244141,4.760742,4.821777
4240,-0.055054,-0.093140,1.021362,-0.671387,5.004883,5.310059
4249,-0.079102,-0.081665,1.023438,-1.708984,4.272461,5.126953
4260,-0.023437,-0.187988,0.936157,-2.624512,4.943848,4.943848
4269,0.001587,-0.160889,0.934570,-3.845215,4.211426,4.272461
4281,0.054932,-0.011475,0.991821,-3.417969,4.394531,4.455566
4290,0.010254,-0.126099,1.042603,-3.662109,4.089355,5.249023
4300,0.043945,-0.230103,0.981567,-3.906250,4.272461,5.920410
4310,0.049683,-0.110962,0.964722,-4.028320,3.601074,6.408691
4319,0.062500,0.032349,0.997314,-4.150391,3.479004,7.141113
4330,0.094116,0.101196,1.029053,-4.333496,3.173828,7.690430
4339,0.048218,-0.022217,1.037842,-4.333496,2.197266,7.629395
4351,-0.019287,-0.144409,0.946777,-3.845215,1.770020,6.958008
4360,0.000732,0.001709,0.902466,-4.089355,1.708984,6.225586
4370,0.017578,-0.057007,0.916260,-4.638672,1.525879,5.676270
4379,0.068115,-0.073853,0.903564,-5.004883,1.403809,4.943848
4390,0.034302,0.120850,1.034180,-5.187988,0.610352,4.455566
4399,0.010254,0.143799,1.003418,-4.882812,0.366211,4.150391
4411,-0.028442,-0.215088,0.972412,-3.601074,0.427246,3.845215
4420,-0.033203,-0.186890,1.026489,-2.502441,0.854492,4.211426
4430,-0.031128,0.010376,1.091797,-2.441406,1.647949,4.760742
4440,-0.055176,-0.029907,1.019531,-2.502441,-0.915527,4.943848
4450,-0.064209,-0.244263,0.906738,-2.075195,1.037598,5.615234
4459,-0.038940,-0.244873,0.932861,-1.708984,2.197266,5.859375
4469,-0.009155,-0.089111,1.027954,-2.136230,0.732422,5.859375
4481,-0.025757,-0.256470,0.956543,-2.197266,0.000000,5.432129
4490,-0.043213,-0.332275,0.933350,-2.319336,-0.366211,5.126953
4500,0.019897,-0.086060,1.029053,-2.441406,-0.122070,4.760742
4509,0.065063,0.008423,1.049683,-1.892090,-0.488281,3.967285
4519,0.126343,-0.093018,1.043335,-1.098633,-0.915527,3.356934
4530,0.088013,-0.229736,0.973633,-1.037598,-1.525879,2.624512
4539,0.115479,-0.222412,0.957275,-1.464844,-2.258301,1.892090
4551,0.127441,0.086304,0.986694,-1.953125,-3.173828,0.854492
4560,0.067139,-0.008301,0.965210,-2.624512,-3.479004,0.549316
4570,0.070557,-0.222656,0.925659,-2.197266,-3.234863,0.610352
4580,0.070801,-0.107666,0.951538,-2.136230,-3.112793,0.488281
4590,0.051636,-0.072144,1.062378,-2.136230,-3.173828,0.366211
4599,0.000977,-0.154053,0.985352,-2.502441,-4.516602,-0.061035
4609,-0.022461,-0.211182,0.933105,-2.624512,-4.150391,-0.488281
4619,-0.040649,-0.066528,0.936523,-2.258301,-3.662109,0.183105
4629,-0.034668,-0.055054,1.009888,-1.892090,-3.662109,0.183105
4640,-0.007080,-0.169067,0.931641,-1.831055,-3.784180,0.244141
4650,0.005371,-0.272217,0.932861,-1.586914,-4.089355,0.244141
4659,0.035034,-0.107666,0.961670,-1.403809,-3.662109,0.061035
4670,0.017944,-0.015991,1.005981,-1.281738,-4.211426,-0.793457
4679,0.053345,-0.157715,0.981201,-0.854492,-4.699707,-1.586914
4689,0.064087,-0.371582,0.975708,-0.854492,-5.249023,-3.784180
4699,0.119873,-0.182251,1.022339,-1.403809,-5.004883,-4.699707
4710,0.087646,-0.062866,1.049194,-1.220703,-5.737305,-5.371094
4719,0.062500,-0.146973,0.979736,-0.915527,-6.225586,-5.920410
4730,0.076294,-0.338989,0.976807,-0.976562,-5.981445,-6.225586
4740,0.070435,-0.288818,0.942505,-1.708984,-5.615234,-6.408691
4749,0.062012,-0.163696,1.037476,-2.380371,-5.981445,-7.019043
4761,0.035278,-0.037354,1.162720,-3.112793,-7.019043,-7.995605
4771,0.007446,-0.055298,1.102051,-2.441406,-6.530762,-8.117676
4781,-0.034302,-0.112671,1.101196,-1.770020,-5.981445,-8.117676
4791,-0.015747,-0.102417,1.124512,-1.098633,-5.432129,-7.812500
4801,-0.016846,-0.077393,1.106201,-0.671387,-4.882812,-7.324219
4810,-0.040527,-0.154297,1.043335,-0.244141,-4.638672,-7.385254
4820,0.024780,-0.092285,0.978027,-0.854492,-4.577637,-7.629395
4830,0.033325,-0.039307,0.986816,-0.671387,-4.272461,-7.995605
4841,-0.064209,-0.123291,0.947632,-0.732422,-4.577637,-8.361816
4851,-0.044434,-0.078857,1.019775,-0.549316,-4.211426,-8.850098
4860,-0.102173,-0.004028,1.106323,-0.244141,-3.662109,-8.911133
4870,-0.121582,0.047852,1.061523,0.549316,-3.051758,-9.277344
4880,-0.151733,0.035645,1.030396,1.464844,-2.502441,-9.277344
4889,-0.140381,-0.020142,0.988525,2.258301,-2.258301,-8.972168
4899,-0.084839,-0.130005,0.918579,2.624512,-0.854492,-8.361816
4911,-0.021606,-0.156006,0.782104,1.831055,0.061035,-7.873535
4920,-0.006226,-0.122192,0.802490,1.098633,0.122070,-7.385254
4930,0.017212,-0.125366,0.836304,0.671387,0.488281,-7.141113
4940,-0.002930,-0.156860,0.885986,-0.061035,0.549316,-6.713867
4949,-0.005859,-0.297607,0.678955,-0.305176,0.671387,-6.591797
4959,-0.023804,-0.098755,0.851929,-1.953125,0.427246,-6.042480
4971,0.033325,-0.054443,0.978027,-2.807617,1.708984,-5.065918
4981,-0.086426,-0.177979,0.839233,-2.807617,2.014160,-4.516602
4990,-0.126465,-0.138428,0.884155,-2.319336,2.136230,-4.333496
5000,-0.056152,-0.083374,1.026611,-2.502441,3.051758,-3.662109
5009,-0.046387,-0.016602,1.164185,-3.295898,2.807617,-2.929688
5019,-0.057861,0.069824,1.178955,-2.685547,2.258301,-3.051758
5031,-0.095093,-0.100220,1.023438,-0.244141,3.356934,-2.014160
5041,-0.012207,-0.148804,1.052246,-0.732422,3.662109,-1.708984
5050,0.002808,-0.098999,1.094849,-1.464844,4.028320,-1.831055
5060,-0.036377,-0.071655,1.048950,-2.319336,3.356934,-1.953125
5070,-0.087280,-0.078857,0.962280,-2.319336,3.173828,-2.441406
5079,-0.036743,-0.182251,0.852051,-2.075195,4.089355,-3.173828
5090,0.034790,-0.178589,0.891479,-2.502441,3.784180,-3.173828
5100,-0.000610,-0.045898,1.053101,-2.990723,3.540039,-2.807617
5109,0.024048,-0.006958,1.037598,-3.967285,4.272461,-1.220703
5121,0.011719,-0.178589,1.030151,-4.150391,4.577637,-0.305176
5130,-0.046265,-0.215088,1.001709,-4.211426,4.272461,-0.183105
5140,0.000732,-0.136597,0.985107,-4.516602,3.295898,-0.183105
5150,-0.015015,-0.095215,1.010010,-4.821777,3.662109,0.366211
5159,0.015747,-0.089355,1.042358,-5.493164,3.967285,0.854492
5170,0.003540,-0.114014,1.035034,-5.859375,4.089355,1.159668
5179,0.010986,-0.049805,1.036499,-4.760742,4.333496,1.953125
5191,-0.010132,-0.057983,1.031616,-4.150391,3.112793,2.014160
5200,-0.011597,-0.147461,0.966919,-3.417969,3.906250,2.380371
5210,0.002441,-0.235718,0.927734,-2.868652,4.150391,2.563477
5219,0.008667,-0.144409,0.934814,-2.319336,3.784180,2.380371
5230,0.013916,-0.023560,1.002319,-1.892090,3.112793,1.892090
5241,0.023682,-0.161743,1.026123,0.427246,2.746582,0.488281
5251,0.033691,-0.227295,1.085083,1.037598,2.197266,-0.122070
5260,0.007935,-0.125244,0.991821,1.953125,2.075195,-0.183105
5270,-0.009888,-0.208496,0.924438,2.563477,2.380371,-0.244141
5279,-0.000244,-0.281616,0.959473,3.051758,2.136230,0.183105
5290,0.058350,-0.229004,0.972900,3.417969,2.746582,0.976562
5299,0.040283,-0.219482,0.967651,3.051758,2.014160,1.464844
5310,0.041016,-0.230103,0.952026,2.563477,1.708984,1.831055
5321,0.078003,-0.026978,1.006348,1.281738,1.525879,2.563477
5330,0.047119,-0.007324,1.070190,0.427246,0.854492,2.441406
5340,0.039551,-0.011475,1.049927,0.183105,0.549316,2.136230
5349,-0.044556,-0.010254,1.055054,0.244141,0.366211,1.953125
5360,-0.002441,0.019043,1.076050,0.488281,0.732422,1.647949
5369,-0.029907,0.019653,1.134888,1.098633,0.671387,1.281738
5381,0.007324,-0.106812,1.061890,1.647949,0.427246,1.647949
5390,-0.072998,-0.071045,0.970093,1.464844,0.549316,2.136230
5401,-0.012207,-0.056030,1.011841,0.732422,1.708984,2.807617
5410,-0.003906,-0.062622,0.981689,-0.122070,1.770020,2.685547
5420,-0.066772,-0.101685,0.928833,-0.671387,0.915527,2.380371
5429,-0.046509,-0.156860,0.918213,-0.915527,1.281738,2.441406
5440,-0.029419,-0.075195,0.950562,-1.525879,1.831055,2.441406
5449,-0.010254,0.017700,1.011475,-1.586914,1.281738,2.075195
5461,0.040527,-0.000244,1.051514,-1.403809,0.915527,1.403809
5470,0.091919,-0.136108,0.991577,-0.427246,0.122070,1.281738
5479,0.088989,-0.182129,0.931152,-0.305176,-0.244141,1.281738
5490,0.127686,-0.150757,0.982544,0.000000,-0.122070,1.281738
5499,0.174683,-0.148193,1.012451,0.244141,-0.366211,0.854492
5510,0.114014,-0.108521,0.996460,0.427246,-1.281738,0.061035
5519,0.131226,-0.124512,1.067993,0.610352,-2.258301,-0.915527
5531,0.056641,-0.115112,1.019897,0.244141,-3.601074,-3.356934
5541,0.033203,-0.153809,0.994385,-0.915527,-4.028320,-4.089355
5550,0.091919,-0.260986,0.984497,-0.732422,-3.601074,-4.333496
5560,0.035522,-0.105225,0.899536,-1.037598,-3.051758,-4.394531
5570,0.011597,-0.057007,0.956909,-0.793457,-3.662109,-4.577637
5579,0.042358,-0.035278,1.067749,-0.488281,-3.417969,-4.455566
5591,-0.029663,0.136963,1.034546,-0.915527,-2.685547,-4.333496
5601,-0.089966,-0.161743,0.972046,-0.793457,-2.807617,-4.028320
5611,-0.044678,-0.211304,0.926636,-0.732422,-1.892090,-3.356934
5620,-0.072510,-0.166992,1.002197,-0.854492,-1.770020,-2.563477
5630,-0.029175,-0.043701,0.971802,-0.915527,-1.281738,-2.014160
5640,-0.038696,-0.059204,0.998291,-0.793457,-1.037598,-1.403809
5650,-0.052246,-0.018188,0.978271,-0.732422,-1.037598,-1.159668
5659,-0.027100,-0.107422,0.935181,-0.915527,-0.610352,-1.159668
5671,-0.020142,-0.224365,0.817749,-0.793457,-1.403809,-0.488281
5681,-0.003662,-0.149780,0.810669,-2.136230,-0.671387,-0.061035
5691,-0.006226,-0.149780,0.888062,-2.563477,-0.305176,0.549316
5700,-0.035400,-0.138062,0.877441,-3.234863,-0.610352,0.854492
5710,-0.048462,-0.211792,0.927856,-3.295898,-0.488281,1.220703
5720,-0.062988,-0.276855,0.955078,-3.295898,-0.305176,1.892090
5730,-0.065186,-0.162842,0.975586,-3.234863,0.488281,2.624512
5740,-0.061279,-0.128174,1.070801,-2.746582,0.366211,2.929688
5749,-0.062378,-0.101929,1.036743,-2.807617,0.183105,3.234863
5760,-0.018066,-0.170410,1.066650,-2.502441,1.586914,3.356934
5769,-0.060669,-0.131836,0.977661,-2.868652,1.586914,3.540039
5780,-0.024170,-0.078979,1.031860,-3.051758,0.915527,3.295898
5789,-0.016724,-0.151489,1.045410,-2.929688,1.159668,3.356934
5801,-0.009033,-0.109619,0.972168,-3.723145,0.427246,1.647949
5811,0.037476,-0.028809,1.131836,-3.601074,1.037598,0.732422
5820,0.000854,-0.059082,1.109619,-3.967285,-0.610352,-0.854492
5830,-0.015869,-0.058105,1.006104,-3.784180,-0.427246,-2.014160
5839,0.017456,-0.065186,0.964478,-3.234863,-0.488281,-2.929688
5849,0.072266,-0.097900,0.903076,-2.746582,-1.159668,-3.906250
5860,0.052246,-0.048584,0.968872,-3.173828,-1.586914,-4.455566
5869,0.056152,0.018921,1.016968,-3.845215,-1.708984,-4.516602
5881,0.039673,0.033325,1.049805,-4.272461,-1.403809,-5.004883
5891,0.057251,0.003418,1.036499,-4.333496,-1.464844,-5.554199
5900,-0.017822,-0.046997,0.999512,-3.845215,-1.403809,-5.798340
5910,-0.016235,-0.152710,0.966309,-3.417969,-1.464844,-6.225586
5920,-0.048096,-0.202271,0.858887,-3.051758,-0.915527,-6.347656
5930,-0.012207,-0.004761,0.938843,-3.784180,-1.220703,-6.713867
5939,0.020020,0.042603,1.007568,-4.150391,-1.403809,-6.652832
5951,-0.065186,-0.097900,0.995850,-3.112793,-0.854492,-6.530762
5961,-0.079102,-0.102783,0.983765,-0.793457,-0.915527,-6.286621
5971,-0.068604,-0.194214,1.049805,0.488281,0.732422,-5.493164
5980,-0.031860,-0.177856,1.065308,1.037598,1.098633,-4.516602
5990,-0.046143,-0.097412,1.083252,1.403809,2.258301,-3.295898
5999,-0.049438,-0.112061,1.041748,1.953125,2.685547,-2.624512
6011,-0.086670,-0.122803,0.973999,2.807617,2.685547,-2.807617
6020,-0.120605,-0.243042,0.952393,2.746582,3.051758,-2.990723
6030,-0.085449,-0.163452,0.941772,1.892090,2.624512,-2.868652
6039,-0.127197,-0.177856,0.896606,2.014160,3.356934,-2.441406
6050,-0.009277,-0.073120,0.928223,1.770020,3.906250,-1.770020
6060,-0.009766,-0.060669,0.971558,1.342773,4.089355,-0.793457
6069,0.038696,-0.067627,0.980957,0.854492,3.479004,-0.488281
6081,0.041748,-0.090332,1.064209,0.183105,4.272461,1.281738
6090,-0.044067,-0.088257,1.112061,-0.610352,4.211426,1.708984
6100,-0.006104,-0.068848,1.138672,-0.549316,4.821777,2.319336
6109,-0.032227,-0.066162,1.142944,0.061035,4.394531,3.112793
6120,-0.042725,-0.102783,1.057251,1.342773,4.394531,3.845215
6129,0.015137,-0.246582,0.983398,2.197266,4.699707,5.249023
6140,-0.028687,-0.363525,0.856689,2.624512,4.638672,6.286621
6150,0.036865,-0.212646,0.930664,1.464844,4.699707,7.446289
6161,0.063354,-0.166748,0.989380,0.427246,3.540039,8.178711
6170,0.017212,-0.227661,0.945557,0.610352,3.356934,8.056641
6180,-0.026978,-0.254395,0.865967,0.488281,2.624512,7.385254
6189,-0.013550,-0.176025,0.929443,0.305176,2.319336,6.225586
6200,-0.028687,-0.109863,1.025391,-0.244141,1.770020,5.493164
6209,-0.017212,-0.081787,0.960449,0.183105,1.647949,5.187988
6219,0.013672,-0.083008,0.950806,0.610352,1.586914,5.249023
6231,0.030396,-0.204102,0.919800,1.098633,0.793457,5.249023
6240,0.080811,-0.193237,0.942993,-0.305176,1.098633,4.882812
6250,0.090332,-0.180542,0.933960,-1.281738,0.671387,4.882812
6259,0.039185,-0.195190,0.927734,-1.892090,0.732422,4.821777
6270,0.065918,-0.133667,0.887573,-2.502441,0.000000,4.638672
6279,0.028076,-0.096924,0.943726,-2.685547,-0.671387,4.272461
6291,0.015869,-0.095215,0.979980,-3.784180,-0.854492,4.089355
6300,0.088989,0.076294,1.190796,-4.150391,-0.671387,3.845215
6310,0.033813,-0.015503,1.219971,-3.540039,-1.159668,3.662109
6319,0.026978,-0.074585,1.134644,-2.624512,-1.403809,3.112793
6330,0.029419,-0.136230,1.032959,-1.892090,-1.281738,2.685547
6339,-0.019287,-0.226318,1.018311,-1.464844,-1.892090,2.014160
6349,-0.007446,-0.236450,0.966675,-1.586914,-1.892090,1.037598
6361,0.028687,-0.099609,0.942261,-2.563477,-2.075195,-1.281738
6370,0.029785,-0.019897,0.945557,-2.258301,-2.441406,-2.807617
6380,0.058228,-0.058350,1.032593,-2.380371,-2.929688,-4.394531
6390,-0.009399,-0.096680,1.105225,-2.502441,-3.112793,-5.859375
6399,-0.001221,-0.047485,1.155029,-3.112793,-4.089355,-7.263184
6409,-0.040527,-0.012939,1.096802,-3.356934,-3.417969,-8.361816
6419,-0.020508,-0.002197,1.014404,-2.502441,-3.112793,-9.338379
6431,-0.043701,-0.058960,0.934204,-1.403809,-1.708984,-10.192871
6441,0.027710,-0.120361,0.955566,-1.586914,-0.610352,-10.559082
6450,0.025635,-0.021606,0.992432,-2.258301,-0.610352,-11.230469
6460,0.079712,-0.034424,0.978638,-2.746582,-1.342773,-11.779785
6470,0.036743,-0.102295,0.868408,-2.624512,-0.671387,-11.901855
6479,0.093506,-0.153442,0.887573,-2.258301,-0.915527,-12.023926
6490,0.042236,-0.161621,0.875366,-1.892090,-0.427246,-12.145996
6500,0.106323,-0.070923,0.922119,-2.197266,-1.281738,-12.390137
6511,0.153687,0.001465,1.056396,-2.136230,-1.953125,-11.169434
6521,0.146606,-0.053711,1.005981,-1.892090,-2.319336,-10.742188
6531,0.120483,-0.085815,0.966797,-1.525879,-1.403809,-9.643555
6540,0.103882,-0.104736,0.981689,-0.976562,-0.854492,-8.239746
6550,0.047119,-0.099854,0.975586,-0.732422,-0.854492,-7.202148
6559,0.042969,-0.056274,0.962158,-0.915527,-0.549316,-6.286621
6571,0.055054,-0.045532,0.973511,-1.037598,-0.183105,-3.845215
6581,0.021118,-0.075928,0.984375,-1.403809,0.000000,-2.441406
6590,-0.063110,-0.079834,0.963989,-1.586914,0.488281,-1.037598
6600,-0.080811,-0.123657,0.946045,-1.892090,-0.244141,0.244141
6610,-0.078369,-0.104736,0.891846,-2.136230,0.549316,1.953125
6619,-0.110596,-0.029419,0.964478,-2.380371,1.525879,3.234863
6630,-0.079834,-0.065430,0.980225,-2.807617,2.624512,4.394531
6639,-0.079590,-0.193970,0.936890,-2.990723,2.380371,5.371094
6649,-0.085571,-0.292480,0.917236,-3.173828,1.892090,7.202148
6661,-0.057251,-0.110596,1.084839,-3.845215,2.990723,8.239746
6670,-0.102539,-0.065308,1.091919,-4.089355,3.540039,9.033203
6680,-0.096191,-0.030762,1.062134,-3.906250,3.051758,9.155273
6689,-0.140991,-0.051514,1.012207,-3.356934,3.662109,9.460449
6699,-0.066528,-0.042847,0.996460,-2.868652,4.150391,9.521484
6711,-0.063599,-0.082520,1.044067,-2.624512,2.868652,8.300781
6720,-0.052368,-0.086670,1.043579,-2.624512,2.502441,6.896973
6730,-0.028564,-0.148804,0.909180,-2.441406,2.746582,5.310059
6740,-0.012695,-0.181030,0.882324,-2.136230,2.014160,4.089355
6749,0.042114,-0.175537,0.912476,-2.624512,1.770020,3.051758
6760,0.028320,-0.112793,0.917847,-3.173828,1.586914,2.197266
6769,0.024780,-0.068237,0.964600,-3.479004,1.281738,1.403809
6780,0.019775,0.015137,0.917236,-3.051758,0.610352,0.610352
6791,0.043213,-0.066040,1.015869,-2.502441,0.488281,-0.183105
6800,0.026001,-0.152710,1.065796,-1.647949,0.488281,-0.427246
6810,0.039185,-0.126099,1.053223,-2.075195,0.671387,-0.366211
6819,0.005615,-0.087402,1.011963,-2.075195,0.366211,0.061035
6830,0.003784,-0.068726,0.958618,-1.342773,0.549316,0.366211
6839,-0.018066,-0.109131,0.957031,-0.732422,0.854492,0.671387
6851,0.003540,-0.091309,0.943848,-0.610352,0.427246,1.647949
6860,0.039795,-0.132202,0.949951,-0.610352,0.549316,1.953125
6871,0.018433,-0.123657,0.912598,-0.915527,0.671387,2.319336
6880,0.054932,-0.125977,0.908081,-1.220703,0.854492,2.624512
6890,0.012329,-0.132812,0.940308,-1.342773,0.732422,2.868652
6899,0.000977,-0.055420,0.968994,-1.525879,0.610352,2.807617
6909,-0.000366,-0.016357,1.002563,-1.586914,0.305176,2.319336
6921,0.003052,-0.060547,1.002808,-1.281738,-0.366211,1.831055
6930,-0.000610,-0.097900,1.017944,-1.464844,-0.061035,1.770020
6941,-0.025879,-0.020996,1.080322,-1.586914,0.000000,2.197266
6950,-0.048096,0.012817,1.108154,-1.586914,-0.122070,2.136230
6960,-0.040894,-0.158813,0.995850,-1.159668,-0.183105,2.319336
6969,-0.034058,-0.125610,1.003662,-0.793457,0.854492,2.380371
6980,-0.021240,-0.147583,1.020996,-0.854492,0.427246,2.075195
6989,0.032227,-0.301880,0.888794,-1.159668,0.183105,1.525879
7001,0.044556,-0.082397,1.031494,-1.892090,0.000000,0.183105
7010,0.068604,-0.049683,1.003906,-2.380371,-0.366211,-0.183105
7019,0.037720,0.064941,0.978882,-2.929688,-1.281738,-0.549316
7030,0.066040,0.074097,0.947021,-3.112793,-1.281738,-1.220703
7039,0.043457,0.031982,0.986694,-3.173828,-1.708984,-1.647949
7049,0.046021,-0.009766,1.030762,-2.929688,-1.159668,-2.014160
7060,-0.000488,-0.032715,1.029175,-2.868652,-0.976562,-2.319336
7069,0.004272,0.059082,1.088989,-2.685547,-1.220703,-2.502441
7081,0.008057,-0.015137,1.050415,-2.258301,-0.610352,-2.441406
7090,-0.037598,-0.021118,0.999878,-1.770020,-1.281738,-2.380371
7100,0.030029,-0.037476,0.964111,-1.892090,-1.464844,-2.380371
7110,0.044556,0.034424,1.002686,-2.685547,-1.708984,-2.380371
7119,0.027832,0.048340,0.958130,-3.540039,-1.403809,-2.136230
7129,0.021362,0.038452,0.875854,-3.540039,-1.098633,-1.953125
7141,0.040894,-0.074951,0.905884,-3.112793,-1.037598,-1.220703
7150,0.037354,-0.102173,0.969971,-3.051758,-1.098633,-1.342773
7160,0.026733,-0.076660,1.007446,-3.295898,-1.403809,-1.586914
7169,0.009399,-0.002808,1.037964,-3.356934,-1.464844,-1.831055
7179,0.002319,0.027222,0.997803,-2.319336,-0.915527,-1.953125
7189,0.005371,-0.170898,0.902954,-0.915527,-1.098633,-1.831055
7199,0.010376,-0.186401,0.948486,-0.732422,-0.915527,-2.014160
7211,0.018066,0.016235,1.043091,-2.380371,-1.647949,-2.685547
7221,-0.040649,0.058838,1.028198,-2.319336,-1.220703,-2.990723
7230,-0.030029,-0.029785,1.019531,-1.953125,-1.281738,-3.356934
7240,-0.025513,-0.115356,0.974121,-1.220703,-0.671387,-3.234863
7249,-0.036621,-0.066895,1.021240,-0.732422,-0.915527,-3.173828
7261,0.024170,-0.066284,1.062622,-0.915527,-0.732422,-3.417969
7270,0.044067,-0.079590,1.012329,-0.915527,-0.732422,-3.417969
7279,0.015381,-0.013062,0.874878,-1.464844,-0.305176,-3.662109
7291,0.067993,-0.042847,0.931030,-1.708984,-0.732422,-4.272461
7300,0.031250,-0.052124,1.026611,-2.746582,-0.976562,-4.821777
7310,0.016113,0.061768,1.052734,-3.417969,-0.732422,-5.249023
7319,-0.035767,0.139160,1.022583,-4.028320,-0.427246,-5.371094
7329,-0.020752,0.127441,1.037354,-3.601074,-0.610352,-5.371094
7339,-0.024414,-0.009033,0.963989,-2.624512,0.366211,-5.187988
7349,-0.011719,0.047485,1.107544,-1.831055,0.122070,-5.126953
7361,0.019287,0.031860,1.059326,-2.502441,0.305176,-4.394531
7370,0.016846,-0.003662,0.975708,-2.807617,0.732422,-3.356934
7379,0.017578,0.080566,0.920044,-2.502441,1.037598,-2.319336
7389,0.019775,0.024292,0.921265,-1.525879,2.319336,-1.159668
7400,0.008789,-0.163940,0.979858,-1.586914,2.258301,0.122070
7409,-0.000732,-0.007813,0.964966,-1.953125,2.563477,0.549316
7419,0.005615,0.129517,1.085571,-2.807617,1.770020,0.732422
7430,-0.056396,0.122192,0.952393,-2.014160,1.586914,0.793457
7440,-0.031860,0.081177,0.930542,-1.220703,2.075195,1.159668
7449,-0.015503,-0.113525,0.947021,-0.366211,1.953125,1.647949
7459,-0.004517,-0.093018,0.946411,-0.610352,1.281738,1.831055
7469,0.024414,-0.065918,0.984619,-1.281738,1.403809,2.136230
7479,-0.022461,-0.058960,0.936523,-2.014160,1.342773,2.441406
7491,-0.037476,0.017578,0.901489,-1.708984,2.136230,3.295898
7501,-0.028320,-0.033569,0.919556,-1.586914,1.464844,3.540039
7510,0.002808,-0.052612,0.973755,-2.075195,1.770020,3.967285
7520,-0.026367,-0.184937,0.682373,-2.563477,1.586914,4.028320
7529,-0.029297,-0.337402,0.461426,-3.784180,1.464844,4.272461
7539,0.044800,0.065063,0.811890,-6.774902,1.403809,4.516602
7549,0.077148,0.244751,0.801758,-10.009766,1.342773,4.638672
7559,-0.019653,0.279297,0.692261,-12.451172,0.976562,5.493164
7570,-0.048340,0.335205,1.206055,-9.643555,1.403809,6.835937
7580,-0.136719,0.094604,1.194580,-6.896973,2.319336,8.056641
7589,-0.081665,-0.018921,1.280151,-6.958008,3.356934,8.361816
7600,-0.084351,0.053467,1.205688,-7.385254,3.845215,8.483887
7609,-0.029419,0.039429,1.171021,-6.652832,4.821777,8.544922
7619,-0.009644,0.099854,1.117065,-5.187988,3.295898,8.178711
7629,0.029541,-0.030396,0.955933,-3.845215,0.854492,5.859375
7640,0.072388,-0.060181,1.099243,-4.089355,0.244141,4.699707
7650,0.046265,-0.055542,1.092773,-4.333496,-0.610352,3.784180
7660,0.024414,-0.042480,1.054810,-4.699707,1.037598,3.601074
7669,0.072266,0.062500,1.085938,-5.126953,-0.305176,2.990723
7679,0.065918,0.082764,1.088501,-4.638672,-0.183105,2.746582
7689,0.056763,0.101929,1.164551,-4.150391,-1.098633,2.807617
7699,-0.019043,0.039185,1.179565,-2.929688,0.122070,1.892090
7710,-0.015137,-0.035400,1.162720,-1.770020,-0.854492,1.708984
7720,-0.027588,-0.054810,1.010742,-1.831055,-0.305176,1.647949
7730,-0.003174,0.068115,1.087158,-1.220703,0.122070,0.793457
7739,0.016235,-0.109619,0.920044,-1.708984,-1.464844,0.183105
7750,0.054810,0.165649,1.095459,-1.281738,0.244141,-1.037598
7759,0.031616,-0.060425,1.000977,-2.075195,-1.098633,-0.976562
7769,0.034912,0.146851,1.077026,-1.098633,0.183105,-1.586914
7780,0.057129,0.090210,1.063354,-0.854492,-1.770020,-1.708984
7790,0.046387,-0.102661,0.924927,0.000000,-0.915527,-1.708984
7799,0.073975,0.075562,1.042480,-0.122070,-1.892090,-2.258301
7809,0.044434,-0.125000,0.903809,-0.305176,-2.136230,-2.258301
7819,0.035645,0.087646,1.022827,-0.427246,-2.197266,-2.746582
7829,0.031250,-0.036621,0.836914,-0.061035,-1.831055,-2.990723
7841,0.044800,-0.109741,0.911255,0.122070,-1.953125,-2.746582
7850,0.009521,-0.034302,0.992554,0.000000,-2.563477,-2.868652
7860,0.002808,-0.035400,0.879395,-1.159668,-2.197266,-2.502441
7869,0.046753,0.165161,1.056274,-2.319336,-2.441406,-2.258301
7879,0.005737,0.120728,1.039185,-2.258301,-1.953125,-2.014160
7889,-0.010986,0.157959,1.088379,-1.831055,-1.708984,-1.892090
7899,-0.032959,0.127441,1.037842,-0.976562,-1.770020,-1.831055
7911,-0.008301,0.019043,1.111694,-0.366211,-1.403809,-1.831055
7921,0.016357,-0.006714,1.010010,-0.610352,-1.159668,-2.075195
7931,0.066162,0.168213,1.051392,-0.549316,-1.464844,-2.624512
7940,0.032715,-0.028320,0.924561,0.000000,-1.403809,-2.807617
7950,0.070312,-0.011841,0.995117,0.061035,-1.708984,-3.356934
7959,0.042114,-0.050903,0.932617,0.183105,-2.258301,-3.906250
7969,0.074829,-0.024902,0.990112,-0.793457,-1.892090,-4.516602
7979,0.038574,0.112061,1.076050,-2.136230,-1.770020,-5.432129
7989,0.017334,0.038452,1.089966,-2.563477,-2.929688,-5.493164
7999,-0.035156,0.138550,1.002686,-1.953125,-2.136230,-5.432129
8009,-0.024170,0.046265,1.020264,-1.708984,-3.356934,-5.187988
8019,-0.046997,0.127563,1.074951,-0.793457,-1.281738,-4.882812
8029,-0.016235,0.043091,0.997192,-0.915527,-0.854492,-4.577637
8039,-0.011230,0.070557,1.081543,-0.610352,-1.098633,-4.211426
8051,-0.010498,0.005249,0.922607,-0.122070,-0.366211,-4.150391
8061,0.031616,0.037964,0.949219,0.183105,-0.610352,-4.394531
8071,0.012939,-0.021729,0.998047,0.244141,-0.915527,-4.821777
8080,0.016602,-0.168823,0.869019,0.610352,-1.159668,-5.187988
8090,0.045288,-0.064453,0.926392,0.061035,-1.159668,-5.615234
8100,0.029907,-0.016602,0.983398,-0.976562,-1.037598,-5.676270
8109,0.024292,-0.013184,0.880005,-1.770020,-2.319336,-5.859375
8119,0.001587,0.024902,0.925903,-2.746582,0.000000,-5.615234
8130,-0.021973,0.110352,0.995850,-2.990723,-2.197266,-5.615234
8140,-0.021729,0.072632,1.008423,-2.563477,-1.098633,-5.493164
8150,-0.026245,0.106934,1.112793,-2.075195,-0.915527,-5.126953
8159,-0.025146,0.077393,1.039307,-1.342773,-0.854492,-4.760742
8169,-0.011475,-0.024658,1.003052,-1.159668,0.366211,-4.577637
8179,0.029175,0.087402,1.093018,-1.098633,0.244141,-4.638672
8191,0.029175,-0.074585,0.900879,-1.098633,-0.061035,-5.249023
8201,0.037231,-0.023071,0.958374,-1.098633,-0.366211,-5.676270
8210,0.038086,0.038208,0.988770,-1.342773,-0.610352,-5.920410
8220,0.015625,0.022095,0.988647,-1.403809,-0.488281,-6.286621
8229,0.021484,0.069702,0.950806,-1.586914,-0.305176,-6.286621
8239,0.012817,0.057861,0.968262,-2.014160,-0.976562,-6.042480
8249,-0.003174,0.111328,1.055176,-1.953125,-0.671387,-5.859375
8259,-0.037354,0.103638,1.033447,-1.831055,0.244141,-4.699707
8268,-0.052856,0.005493,0.958984,-2.075195,0.976562,-4.089355
8279,-0.047485,0.074951,1.038208,-1.953125,1.037598,-3.601074
8288,-0.036011,0.039063,1.005493,-1.464844,1.159668,-2.868652
8299,-0.035400,0.054321,0.982788,-1.770020,1.281738,-2.380371
8309,0.021851,0.016235,0.990234,-1.892090,1.831055,-2.197266
8319,-0.010254,0.130371,1.070068,-1.831055,1.770020,-2.075195
8331,-0.009277,0.058838,1.030640,-1.892090,2.075195,-1.464844
8340,-0.012451,-0.055908,0.985107,-0.915527,2.319336,-1.220703
8350,0.000366,-0.061646,1.024414,-0.244141,1.892090,-0.976562
8359,-0.000122,-0.026489,1.023804,-0.183105,1.647949,-0.549316
8369,0.002441,0.068604,1.057861,-0.366211,1.586914,0.000000
8379,-0.008911,0.027344,0.949707,-0.671387,1.831055,0.427246
8389,0.006104,-0.052246,0.921265,-0.915527,2.014160,1.037598
8401,-0.037842,0.046387,0.902588,-2.136230,2.075195,2.258301
8411,-0.036011,0.120361,1.086670,-2.380371,2.868652,2.868652
8420,-0.047119,0.119629,0.996094,-2.380371,2.990723,3.356934
8430,-0.077026,0.077637,0.956665,-2.502441,3.051758,4.089355
8440,-0.030884,0.001709,1.019043,-2.685547,3.234863,4.577637
8449,-0.018799,0.061035,0.940308,-2.990723,3.356934,5.004883
8459,-0.018188,0.037964,0.962891,-2.868652,3.417969,5.249023
8469,-0.025391,0.013672,0.939331,-3.234863,3.662109,6.042480
8480,-0.017456,0.099487,1.014038,-4.028320,3.906250,6.530762
8490,-0.017578,0.100708,1.052368,-3.601074,3.845215,6.530762
8499,-0.027710,0.057617,1.036133,-2.502441,3.295898,6.774902
8509,-0.009277,0.044800,1.053833,-2.319336,3.662109,7.019043
8519,0.007080,0.058105,1.046387,-2.319336,2.868652,7.324219
8529,-0.008545,0.011353,0.991699,-1.831055,3.112793,7.751465
8540,0.022461,-0.020752,0.913574,-1.464844,2.746582,7.934570
8550,0.001831,-0.046753,0.899292,-1.342773,2.563477,7.995605
8559,0.009521,-0.044067,0.927612,-2.075195,1.464844,7.812500
8569,0.000244,0.075806,1.001099,-2.563477,2.258301,7.812500
8579,-0.000244,0.094238,1.063354,-2.990723,1.892090,7.751465
8589,-0.036377,0.033325,1.023804,-2.624512,1.831055,7.690430
8599,-0.025879,0.089355,1.083618,-2.136230,2.929688,7.690430
8609,-0.029541,0.071167,1.112305,-1.831055,2.502441,7.446289
8619,-0.020996,0.067627,1.053345,-1.464844,2.197266,7.019043
8629,0.018677,-0.044556,0.983643,-1.403809,2.014160,6.713867
8639,0.017578,-0.010498,0.985596,-1.403809,1.892090,6.164551
8649,0.042725,0.024292,1.009766,-1.464844,1.586914,5.554199
8659,0.010376,-0.080811,0.942871,-1.098633,0.793457,4.882812
8669,0.023071,-0.079346,0.949341,-1.342773,0.732422,4.333496
8679,0.049072,-0.057739,0.960571,-1.464844,0.305176,3.173828
8688,0.055054,-0.033081,0.947388,-1.647949,-0.305176,2.929688
8699,0.050293,-0.030396,0.921265,-1.708984,-0.671387,2.380371
8709,0.033936,-0.001831,0.963013,-2.136230,-0.610352,1.770020
8719,0.032227,0.030884,0.959351,-2.746582,-0.976562,1.098633
8729,0.014160,0.077759,0.977783,-3.234863,-0.915527,0.732422
8739,-0.004883,0.045898,0.955078,-2.929688,-1.159668,0.244141
8749,-0.005005,0.073242,0.978516,-2.929688,-1.159668,-0.671387
8760,0.011597,-0.010742,0.997314,-2.014160,-0.732422,-1.037598
8770,0.045898,0.014404,1.010498,-2.319336,-0.976562,-1.159668
8780,0.082642,0.038818,0.989868,-2.563477,-0.732422,-1.281738
8789,0.062500,-0.015015,0.951050,-2.563477,-1.342773,-1.342773
8799,0.078735,-0.027954,0.976440,-2.136230,-1.464844,-1.953125
8809,0.050903,-0.012573,0.997192,-2.563477,-1.647949,-2.258301
8818,0.060547,-0.043213,0.992310,-2.380371,-2.746582,-3.723145
8830,0.040894,-0.109009,0.783081,-2.929688,-3.356934,-3.967285
8840,0.035645,-0.002197,0.929443,-3.601074,-2.807617,-3.906250
8850,0.067261,0.115967,1.148315,-4.028320,-2.746582,-4.028320
8859,-0.006714,0.008179,1.049072,-3.295898,-3.112793,-4.455566
8869,-0.031372,-0.085449,0.975098,-3.051758,-2.807617,-4.699707
8879,-0.007446,0.037354,1.031250,-3.417969,-2.014160,-4.577637
8888,-0.030151,0.151611,1.032593,-3.906250,-2.746582,-4.699707
8900,-0.022949,0.163452,1.114868,-2.807617,-1.892090,-5.004883
8910,-0.037109,0.046875,1.055054,-1.647949,-1.159668,-5.249023
8920,-0.018921,-0.044067,1.089233,-0.122070,-0.854492,-5.493164
8929,0.018188,0.112915,1.309326,-0.488281,-0.305176,-5.310059
8939,0.016968,-0.009888,1.093506,0.122070,-0.183105,-5.004883
8949,0.004028,-0.018555,0.897949,0.671387,-0.183105,-4.821777
8959,0.071167,0.073975,1.016602,1.342773,-0.366211,-4.638672
8970,-0.015869,-0.088013,0.988770,3.601074,-1.525879,-5.676270
8980,0.017212,-0.238037,0.946045,4.394531,-2.624512,-6.530762
8990,0.027222,-0.248047,0.903564,3.234863,-2.197266,-6.713867
8999,0.053833,-0.068359,0.896851,1.403809,-2.014160,-6.469727
9009,0.031616,0.042480,0.884277,0.244141,-1.953125,-6.164551
9019,0.036011,-0.009033,0.819702,-0.183105,-2.075195,-5.676270
9029,-0.020386,0.005493,0.898560,-0.366211,-1.892090,-5.371094
9040,-0.052612,-0.026489,1.010498,-0.610352,-1.647949,-5.310059
9050,-0.040527,0.000488,1.013550,-1.037598,-1.281738,-4.821777
9060,-0.059082,0.114990,0.981445,-1.159668,-0.183105,-3.906250
9070,-0.044556,0.083008,0.958008,-0.976562,-0.244141,-2.929688
9079,-0.062988,0.049927,0.955444,-0.549316,-0.061035,-2.441406
9089,-0.026489,-0.000854,0.958618,-0.427246,0.305176,-2.136230
9100,-0.017822,0.055420,0.945923,-0.976562,0.183105,-1.647949
9110,0.006104,0.109009,0.998901,-1.953125,0.732422,-1.403809
9119,-0.031860,0.103271,1.009277,-1.647949,1.464844,-1.098633
9129,-0.023437,0.087769,1.078369,-1.281738,1.464844,-0.732422
9138,-0.035400,0.068481,1.143311,-0.793457,1.281738,-0.488281
9149,0.005615,0.061279,1.121094,-0.488281,1.708984,-0.244141
9159,-0.003784,0.072876,1.095093,-0.793457,0.732422,0.061035
9171,-0.017700,0.019531,1.005371,-0.183105,1.403809,1.525879
9181,-0.002075,0.003906,0.994019,0.366211,1.647949,2.197266
9190,0.017700,-0.018555,1.028442,0.122070,1.220703,3.295898
9200,0.004150,0.025391,1.049561,-0.183105,0.915527,4.028320
9209,0.007202,0.064209,1.036743,-0.427246,2.075195,4.760742
9218,-0.022827,-0.028931,0.938110,-0.366211,1.770020,5.310059
9229,-0.016846,0.036011,0.993408,-0.305176,2.014160,5.737305
9239,-0.025146,-0.034912,1.014038,-15.563965,1.892090,6.164551
9248,-0.027344,0.000122,1.017334,-0.061035,1.892090,6.164551
9259,-0.025879,-0.075195,0.916870,0.122070,2.075195,6.591797
9269,-0.027344,0.005859,0.941406,0.122070,1.770020,6.958008
9279,0.000122,-0.038086,0.926025,0.183105,1.770020,7.263184
9289,-0.028687,-0.021851,0.909546,0.244141,2.136230,7.263184
9298,-0.032104,-0.042725,0.968140,0.061035,2.319336,7.568359
9311,-0.009644,0.071045,1.005737,-0.610352,2.380371,7.690430
9321,-0.007446,-0.015747,1.007202,-0.122070,2.502441,7.629395
9330,-0.011963,-0.026001,0.963135,0.366211,2.380371,7.568359
9340,-0.001099,-0.015991,0.978516,0.366211,2.319336,7.385254
9349,0.033203,-0.021729,1.031128,0.610352,1.953125,6.896973
9358,0.039185,0.009644,0.999634,0.122070,2.014160,6.652832
9369,0.021851,-0.035645,0.998901,0.061035,1.525879,6.042480
9381,0.023193,0.014771,1.036011,-0.183105,1.159668,5.554199
9391,0.039185,0.006348,1.036987,0.000000,1.220703,5.432129
9400,0.024292,-0.013428,1.061279,0.000000,0.610352,4.821777
9409,0.023315,0.001953,1.010742,-0.061035,0.671387,4.211426
9419,0.034058,0.048950,1.064941,0.061035,0.183105,3.723145
9429,0.036133,0.102295,1.054199,0.366211,0.061035,3.234863
9438,0.045044,0.020508,1.037842,0.854492,-0.061035,3.112793
9451,0.047607,-0.023315,1.026001,0.610352,-0.366211,2.136230
9461,0.043579,0.011963,0.989380,0.366211,-0.732422,1.647949
9470,0.050903,-0.042603,0.947876,0.183105,-1.220703,0.732422
9479,0.005249,0.002441,0.965454,-0.244141,-0.915527,-0.244141
9489,0.006714,0.067749,1.014648,-0.305176,-0.732422,-1.098633
9498,-0.006958,-0.083008,0.958008,0.305176,-1.647949,-1.953125
9509,-0.012329,-0.078857,0.976318,0.183105,-1.342773,-2.624512
9519,0.004517,0.032227,1.050171,-0.549316,-1.647949,-3.173828
9530,0.031738,0.001709,0.956665,-0.366211,-1.220703,-3.356934
9540,0.029663,-0.145752,0.967529,-0.122070,-1.403809,-3.479004
9549,0.053711,-0.093384,0.997192,-0.488281,-1.281738,-3.662109
9559,0.053711,0.033569,0.980957,-1.708984,-1.586914,-4.089355
9568,0.043579,0.092285,0.990112,-2.258301,-1.953125,-4.638672
9579,0.034180,0.072876,0.972778,-2.685547,-1.892090,-5.126953
9589,0.051025,0.059448,1.009155,-3.234863,-2.319336,-5.432129
9600,-0.004639,-0.000732,1.047363,-2.746582,-2.380371,-5.249023
9610,0.018311,-0.087769,1.026855,-2.258301,-2.441406,-5.371094
9620,0.049561,-0.022461,1.080566,-2.502441,-1.525879,-5.310059
9629,0.078491,-0.022461,1.009766,-3.112793,-2.441406,-5.310059
9638,0.048584,0.021484,1.020752,-3.234863,-2.685547,-5.798340
9649,0.029541,0.038452,0.975708,-2.929688,-2.746582,-6.225586
9659,0.030396,-0.005005,0.969238,-2.380371,-2.990723,-6.958008
9668,0.007813,-0.083618,0.988770,-1.586914,-3.051758,-7.141113
9679,-0.012207,-0.026001,1.003540,-2.014160,-3.173828,-7.385254
9689,-0.014160,-0.033691,0.955688,-1.647949,-2.502441,-7.385254
9699,-0.012817,0.005249,0.931763,-1.586914,-2.624512,-7.324219
9708,-0.026245,-0.043945,0.962769,-0.976562,-2.441406,-7.385254
9719,-0.024658,-0.100586,0.954590,-0.427246,-2.014160,-7.446289
9729,-0.020874,-0.066528,0.983154,-0.976562,-1.831055,-7.324219
9738,-0.021729,0.014282,1.017944,-0.305176,-1.403809,-7.263184
9749,-0.019653,-0.090454,0.955078,0.122070,-0.854492,-7.019043
9759,-0.004761,-0.019409,1.017822,0.427246,-1.159668,-6.958008
9768,0.016479,-0.083984,0.986206,0.793457,-1.831055,-6.958008
9778,-0.008423,-0.134766,0.992798,0.976562,-1.220703,-6.958008
9789,0.002319,-0.047119,1.002808,0.366211,-1.586914,-6.835937
9799,0.019897,0.028076,0.996582,0.183105,-0.854492,-6.347656
9808,0.005371,-0.023071,0.977173,0.793457,-0.610352,-6.164551
9819,0.019531,-0.035645,1.033447,0.183105,-0.915527,-5.737305
9829,0.020630,0.011841,1.040527,-0.122070,-0.610352,-5.493164
9839,-0.003296,-0.023071,0.997925,-0.610352,-0.915527,-5.432129
9849,-0.011719,0.074341,1.031128,-1.220703,-0.854492,-5.187988
9859,-0.019531,0.066162,0.993896,-1.098633,-0.305176,-4.821777
9868,-0.020020,0.003662,1.030640,-1.098633,-0.732422,-4.028320
9878,-0.023560,0.018433,1.023071,-1.770020,-0.244141,-3.479004
9889,-0.027344,0.041992,1.022095,-1.831055,0.366211,-3.051758
9899,-0.031494,0.024414,0.970947,-2.075195,0.366211,-2.807617
9909,-0.028076,0.081543,1.040283,-2.197266,0.366211,-2.563477
9918,-0.032227,-0.001099,0.977295,-2.075195,-0.122070,-2.014160
9929,-0.010010,0.005859,1.023804,-2.380371,0.244141,-1.831055
9939,-0.022827,0.017334,0.971436,-2.563477,0.732422,-0.793457
9948,-0.005493,0.062500,0.944702,-2.014160,1.037598,-0.122070
9959,-0.012451,-0.015503,0.989258,-2.075195,0.976562,0.488281
9969,-0.002808,-0.028809,0.985840,-1.892090,1.342773,0.976562
9979,-0.010010,-0.021240,0.999390,-2.075195,1.342773,1.220703
9989,-0.013184,-0.021729,0.971802,-1.953125,1.342773,1.220703
9998,-0.003906,0.020996,0.993408,-2.258301,1.037598,1.220703
10011,0.002197,-0.060547,0.998535,-1.464844,1.220703,1.586914
10020,0.011108,-0.040283,1.001831,-1.647949,1.159668,1.831055
10030,0.001709,0.006348,1.030640,-2.014160,1.220703,2.319336
10039,-0.002075,-0.044189,0.994263,-1.464844,1.037598,2.807617
10049,-0.011719,-0.072998,0.990479,-1.037598,1.098633,3.173828
10058,0.000977,-0.034058,0.990234,-1.037598,1.342773,3.234863
10069,-0.001343,-0.015625,1.021484,-0.976562,1.831055,3.234863
10078,-0.007446,-0.101807,0.974976,-0.366211,0.793457,2.929688
10090,-0.005371,-0.064087,0.981079,-0.610352,1.098633,2.197266
10099,-0.013916,-0.014893,1.012695,-0.793457,1.464844,2.014160
10109,-0.009155,-0.050659,0.949463,-0.549316,1.159668,2.014160
10118,-0.003296,-0.033081,1.003540,-0.793457,0.793457,1.586914
10129,0.005371,-0.051514,0.986572,-0.732422,1.037598,1.831055
10139,0.007690,0.009155,1.035034,-1.159668,0.976562,1.586914
10151,0.008667,0.029541,1.022827,-1.403809,0.793457,1.098633
10160,-0.000610,-0.043579,0.972656,-1.159668,1.220703,1.098633
10170,0.012939,0.028931,1.024292,-1.403809,0.854492,0.732422
10179,0.021362,0.029907,0.981079,-1.586914,0.427246,0.671387
10189,0.026855,0.026733,1.007080,-1.647949,0.000000,0.244141
10199,0.020020,-0.019897,0.995728,-1.525879,-0.122070,0.122070
10208,0.027588,0.015259,1.014160,-1.586914,0.305176,0.000000
10221,0.003052,-0.020996,0.967163,-1.647949,0.244141,0.122070
10230,-0.012085,0.019897,1.020142,-1.831055,-0.427246,0.122070
10240,-0.002563,-0.030029,0.967529,-1.586914,-0.305176,0.061035
10250,-0.000488,0.047363,1.036865,-1.708984,0.244141,-0.183105
10259,0.005615,-0.010132,0.963135,-1.647949,0.000000,-0.427246
10268,-0.011475,-0.025757,0.986572,-1.770020,-0.244141,-0.305176
10278,0.002075,0.009277,1.030273,-2.258301,-0.305176,-0.366211
10288,-0.011230,0.002441,0.981323,-1.953125,0.305176,-0.244141
10300,-0.002808,-0.067749,0.956299,-1.647949,0.244141,0.000000
10309,-0.004395,-0.009888,1.030518,-1.525879,0.061035,0.244141
10319,-0.004150,-0.004395,1.013062,-1.770020,-0.488281,0.305176
10329,-0.020752,-0.036865,0.957275,-1.770020,-0.549316,0.427246
10339,-0.014404,0.018311,1.029907,-2.014160,-0.549316,0.427246
10348,-0.018433,-0.065186,0.959106,-1.647949,-0.183105,0.549316
10358,-0.042236,-0.000732,1.016357,-1.831055,0.244141,0.671387
10369,-0.049561,-0.044312,0.944580,-1.525879,0.122070,1.220703
10379,-0.033813,0.038086,1.040405,-1.770020,0.732422,1.159668
10389,-0.025391,-0.027710,0.982910,-1.464844,1.403809,1.281738
10398,-0.045410,-0.023437,0.973511,-1.342773,1.159668,1.342773
10408,-0.026245,0.044189,1.036255,-1.586914,1.525879,1.708984
10418,-0.023315,-0.025391,0.945557,-1.342773,1.708984,1.953125
10428,-0.004272,0.034424,1.017822,-1.464844,2.258301,2.075195
10439,-0.027954,-0.079956,0.949341,-2.075195,1.770020,2.563477
10449,-0.018799,-0.025146,1.062866,-1.525879,1.770020,2.319336
10459,-0.012695,-0.021240,1.054321,-1.708984,1.770020,2.746582
10468,-0.026245,-0.072632,0.961792,-1.586914,1.525879,2.746582
10479,-0.006348,0.016235,1.040649,-1.586914,1.770020,2.868652
10488,-0.008545,-0.031128,0.996704,-1.464844,1.708984,3.417969
10501,0.027832,-0.017822,1.029663,-1.281738,2.075195,3.601074
10510,0.010132,-0.007202,0.996094,-1.464844,2.197266,3.662109
10519,0.013794,-0.001587,0.951904,-1.342773,1.831055,3.540039
10529,0.016113,0.027954,0.993042,-1.281738,2.075195,3.356934
10538,0.005737,-0.000122,0.997070,-1.098633,1.892090,3.417969
10548,0.015015,-0.017334,0.983643,-1.037598,1.403809,3.112793
10559,0.019043,0.007813,1.004395,-1.586914,1.586914,3.112793
10568,0.003296,0.035522,1.002197,-1.770020,1.770020,3.173828
10579,0.024048,0.032959,1.010254,-1.586914,1.403809,3.356934
10589,0.007813,0.010132,1.035767,-1.281738,1.281738,3.479004
10598,0.003540,-0.039795,0.985352,-1.220703,1.342773,2.929688
10608,0.027344,0.043945,1.027954,-1.831055,1.281738,2.929688
10619,0.016602,0.083252,1.050049,-2.014160,1.586914,2.746582
10628,-0.004272,0.006714,0.958130,-1.525879,1.159668,2.319336
10639,0.005737,-0.012207,0.959351,-1.892090,1.220703,1.892090
10649,-0.023315,0.048096,1.031982,-2.075195,0.976562,1.831055
10659,-0.052612,-0.037354,0.942017,-1.831055,0.976562,2.075195
10668,-0.017090,0.015747,0.969727,-1.892090,1.403809,2.380371
10678,-0.012695,0.078003,1.065308,-2.258301,1.708984,2.990723
10688,-0.044312,-0.010986,0.995483,-1.525879,1.342773,3.234863
10698,-0.046753,-0.077148,0.952026,-1.342773,1.708984,3.295898
10709,-0.009399,-0.008667,0.994141,-2.197266,2.075195,4.089355
10719,-0.033081,-0.045166,0.973755,-1.281738,2.136230,4.272461
10728,-0.024658,-0.098755,0.929199,-1.159668,2.075195,4.333496
10738,0.022705,-0.067993,0.989624,-1.220703,2.319336,4.272461
10748,0.034790,-0.015137,1.054077,-1.647949,2.746582,4.211426
10758,0.007080,-0.039307,1.012329,-1.281738,2.624512,3.845215
10768,0.019897,-0.100830,0.949097,-1.342773,1.892090,3.540039
10779,0.043701,-0.057983,0.972168,-1.464844,2.197266,2.685547
10789,0.062866,-0.014526,1.015991,-1.159668,1.831055,2.380371
10798,0.041748,-0.090332,0.964722,-0.915527,1.831055,2.136230
10809,0.069946,-0.071777,0.981689,-1.037598,1.586914,1.464844
10818,0.078491,-0.017212,0.994995,-1.464844,1.647949,0.976562
10828,0.059570,0.035278,1.032593,-1.770020,1.220703,0.610352
10838,0.032593,0.012451,1.001465,-1.708984,0.610352,0.244141
10848,0.027466,-0.043213,0.981079,-1.220703,0.732422,-0.122070
10860,0.037842,0.047485,1.002441,-1.831055,0.061035,-1.586914
10869,0.031616,0.101807,1.057739,-2.014160,-0.610352,-1.953125
10879,0.008789,0.045898,1.011841,-1.708984,-0.488281,-2.258301
10888,0.007813,0.009888,0.998169,-1.647949,-0.610352,-2.624512
10898,0.009155,0.032104,1.023071,-1.770020,-0.244141,-2.685547
10908,0.007813,0.057007,1.025635,-2.197266,0.000000,-2.441406
10918,-0.013550,0.063354,1.022095,-2.197266,-0.061035,-2.380371
10928,-0.036865,0.068481,1.014160,-1.708984,0.793457,-1.892090
10938,-0.024170,0.027832,0.993652,-1.281738,1.220703,-1.403809
10948,0.014038,-0.003662,1.004517,-1.220703,1.342773,-0.976562
10959,0.012329,0.000366,1.001953,-1.708984,1.770020,-0.427246
10968,-0.010254,0.020752,0.986084,-2.136230,1.342773,0.122070
10979,-0.025269,0.041260,1.000488,-2.136230,1.098633,0.183105
10988,-0.010132,0.034424,1.023560,-1.892090,0.793457,0.427246
11000,0.002930,-0.024658,1.003418,-1.342773,1.403809,1.159668
11010,0.028809,-0.029907,1.003906,-1.220703,1.342773,1.647949
11019,0.007935,-0.019165,0.974487,-1.281738,1.770020,2.014160
11029,-0.000122,0.007202,0.961060,-1.464844,1.647949,1.647949
11038,0.008789,0.012939,0.970215,-1.647949,0.976562,1.403809
11048,0.036499,0.029297,0.983032,-1.770020,0.610352,0.976562
11058,0.055298,0.046387,1.034790,-1.892090,1.342773,0.732422
11069,-0.004150,0.044800,1.018677,-1.831055,1.220703,0.427246
11079,0.010742,0.046387,0.989380,-1.525879,1.342773,0.427246
11088,0.053711,0.035400,0.996460,-0.976562,2.014160,0.183105
11098,0.012085,0.030762,1.006348,-0.915527,1.281738,-0.122070
11108,0.020264,0.034912,1.017212,-1.037598,1.525879,-0.732422
11118,0.000122,0.020142,1.041016,-1.464844,1.708984,-1.037598
11128,0.060669,0.008301,1.071777,-1.708984,1.831055,-1.159668
11139,0.031616,0.129272,0.909912,-1.953125,1.586914,-0.793457
11148,-0.048950,-0.000732,1.052246,-0.915527,0.915527,-1.220703
11158,-0.030151,-0.057495,1.156372,-1.281738,-0.061035,-1.770020
11169,0.059204,-0.046265,1.114258,-1.892090,1.403809,-1.525879
11178,-0.017944,0.037354,0.969360,-2.258301,2.319336,-0.427246
11188,0.006592,0.036011,0.916992,-1.708984,2.990723,0.305176
11199,-0.038452,0.018677,0.958984,-0.793457,1.586914,0.427246
11209,0.014038,0.032349,0.994263,-1.037598,1.220703,0.427246
11219,0.009521,0.020630,0.988770,-1.464844,1.953125,0.976562
11228,-0.005615,0.034424,0.991699,-1.953125,2.807617,1.342773
11238,0.162109,-0.123535,1.021484,-1.647949,3.051758,1.831055
11248,-0.077271,0.027710,0.998901,-1.037598,2.807617,2.563477
11258,0.010742,-0.116821,1.137817,-0.488281,2.380371,2.624512
11269,-0.035034,-0.021606,1.060059,-0.793457,1.525879,2.502441
11279,0.046509,-0.023437,0.912476,-0.610352,2.807617,3.112793
11288,0.048218,0.047729,0.933350,-0.854492,3.417969,4.089355
11298,0.018677,-0.010864,1.014404,-0.671387,3.784180,4.699707
11308,-0.071777,-0.077148,1.072632,-0.671387,3.479004,4.516602
11318,-0.046265,-0.152466,1.049072,-0.732422,2.990723,3.784180
11328,0.020020,-0.167114,0.991821,-0.305176,3.051758,3.234863
11339,0.044312,-0.134644,0.977783,-0.366211,3.356934,2.746582
11349,-0.045898,-0.161133,0.975830,-0.183105,3.540039,2.624512
11359,0.017822,-0.108154,0.961670,-0.549316,3.417969,2.258301
11368,0.015991,-0.099854,0.999268,-0.854492,3.356934,2.136230
11378,0.038818,-0.119995,1.008545,-0.915527,3.417969,2.380371
11388,0.033447,-0.094727,1.010620,-0.915527,4.089355,2.380371
11398,0.029053,-0.075317,1.008545,-0.915527,3.601074,2.746582
11409,0.046143,-0.071533,0.998413,-0.854492,4.211426,2.685547
11419,0.062134,-0.091919,1.009033,-0.732422,3.967285,2.441406
11429,0.062012,-0.092651,1.005493,-0.610352,3.662109,2.075195
11439,0.079224,-0.119873,1.010254,-0.610352,3.234863,2.197266
11448,0.074585,-0.147095,1.024536,-0.732422,3.295898,1.953125
11458,0.095825,-0.143188,1.005127,-1.037598,2.807617,1.892090
11468,0.105347,-0.154785,1.008667,-0.915527,2.990723,1.953125
11479,0.096069,-0.136841,0.993896,-1.159668,2.685547,2.075195
11488,0.085449,-0.118652,0.986938,-1.525879,2.136230,2.136230
11498,0.054321,-0.089355,0.991699,-1.647949,2.014160,2.319336
11508,0.056274,-0.086914,1.000000,-1.892090,1.953125,2.380371
11518,0.047363,-0.100708,1.003174,-2.075195,1.281738,2.563477
11528,0.048340,-0.093994,1.010376,-1.892090,1.525879,2.990723
11538,0.048462,-0.096069,1.005981,-1.892090,1.586914,3.234863
11549,0.010620,-0.103271,1.002319,-1.892090,1.647949,3.601074
11559,0.157715,-0.075439,1.032349,-1.647949,2.197266,3.784180
11568,0.122314,-0.033691,1.061646,-1.464844,2.319336,4.272461
11578,0.049072,0.023560,1.105713,-1.586914,1.342773,4.028320
11587,0.096924,0.060669,1.191284,-0.976562,1.647949,3.845215
11598,0.074097,0.028442,1.205688,-0.366211,0.854492,3.845215
11607,0.092407,0.033081,1.179932,0.427246,0.549316,2.990723
11618,0.154297,0.055420,1.123047,1.342773,0.854492,2.075195
11629,0.086548,0.052124,0.932007,2.075195,1.159668,1.525879
11638,0.103394,0.034424,0.912720,2.624512,0.305176,0.488281
11648,0.092041,-0.024414,0.933960,2.868652,0.305176,-0.427246
11658,0.049194,-0.095093,0.960327,2.990723,0.244141,-1.342773
11668,0.012939,-0.163818,0.992187,3.051758,0.305176,-2.441406
11678,-0.030762,-0.202759,0.993164,2.929688,0.366211,-3.173828
11689,-0.041504,-0.224243,0.989502,2.807617,0.610352,-4.272461
11699,-0.026611,-0.213989,0.930664,2.502441,0.244141,-4.272461
11708,0.005493,-0.186890,0.896851,2.197266,0.000000,-4.272461
11718,0.017944,-0.164307,0.879761,1.647949,-0.366211,-3.845215
11727,0.035156,-0.153931,0.872437,1.220703,-0.854492,-2.746582
11738,0.057739,-0.148804,0.891724,0.732422,-0.061035,-1.342773
11748,0.068481,-0.189697,0.826172,0.488281,0.427246,0.610352
11758,0.072998,-0.120972,0.921997,0.000000,0.793457,2.380371
11767,0.076538,0.003174,0.900146,-0.427246,2.197266,5.187988
11779,0.063110,-0.081665,0.960205,-0.305176,2.014160,6.042480
11788,0.082275,-0.111816,0.993774,-0.366211,1.831055,6.408691
11797,0.069336,-0.135254,1.046143,-0.427246,1.831055,6.530762
11808,0.051514,-0.173218,1.025635,-0.122070,1.464844,6.225586
11818,0.045410,-0.194458,1.009033,0.366211,1.403809,5.737305
11828,0.031006,-0.148926,0.970825,0.000000,1.098633,5.554199
11837,0.038208,-0.115479,0.983154,-0.061035,0.183105,4.882812
11849,0.046753,-0.109253,0.962402,-0.366211,0.305176,5.004883
11858,0.053467,-0.121826,0.957642,-0.671387,0.366211,5.065918
11868,0.069702,-0.135620,0.980591,-0.427246,0.976562,5.004883
11877,0.072998,-0.131226,0.982788,-0.793457,0.854492,5.126953
11888,0.073853,-0.139160,0.992065,-0.976562,0.915527,5.432129
11898,0.075439,-0.149292,0.999023,-0.976562,0.915527,5.432129
11909,0.075439,-0.139038,0.983765,-1.159668,0.305176,5.065918
11918,0.080811,-0.151489,0.998779,-1.281738,-0.061035,4.699707
11928,0.084229,-0.115601,0.989136,-1.220703,0.061035,4.272461
11938,0.093506,-0.136963,1.014526,-1.403809,-0.244141,3.845215
11948,0.091797,-0.145996,0.982666,-1.403809,-0.122070,3.479004
11957,0.092163,-0.149658,1.000610,-1.525879,-0.427246,3.356934
11968,0.074463,-0.149658,0.990234,-1.586914,-0.427246,3.051758
11977,0.070190,-0.150879,0.977295,-1.708984,-1.098633,2.380371
11989,0.069824,-0.123291,0.977295,-1.831055,-0.854492,2.075195
11999,0.066528,-0.113403,0.978516,-1.892090,-1.098633,1.403809
12008,0.065796,-0.114014,0.987671,-1.770020,-1.098633,0.732422
12018,0.072632,-0.109863,0.986084,-1.953125,-1.220703,0.183105
12028,0.078003,-0.109375,0.989136,-1.892090,-1.281738,-0.244141
12038,0.088257,-0.115967,0.987671,-1.892090,-1.586914,-0.732422
12049,0.100708,-0.119629,0.984131,-1.770020,-2.014160,-1.159668
12059,0.103271,-0.123413,0.989624,-2.014160,-2.502441,-1.586914
12068,0.101807,-0.120605,0.992920,-2.014160,-2.441406,-1.953125
12078,0.097046,-0.117188,0.997437,-1.953125,-2.380371,-2.319336
12088,0.091919,-0.118042,1.001099,-2.014160,-3.051758,-2.624512
12098,0.084961,-0.108521,1.002197,-2.075195,-3.417969,-2.929688
12108,0.079712,-0.103027,1.000000,-1.892090,-3.845215,-3.051758
12119,0.062622,-0.098022,0.993164,-1.770020,-4.089355,-3.051758
12129,0.048584,-0.095459,0.996094,-1.953125,-4.028320,-3.234863
12139,0.035522,-0.098022,1.002930,-1.953125,-3.906250,-2.868652
12148,0.019775,-0.099365,1.001343,-2.014160,-3.906250,-2.380371
12158,0.018311,-0.102905,1.000854,-2.075195,-3.967285,-1.770020
12168,0.018799,-0.102295,0.995117,-1.892090,-3.723145,-1.037598
12178,0.013428,-0.100342,0.998291,-1.770020,-3.479004,-0.427246
12189,0.009155,-0.093628,0.994751,-1.953125,-3.540039,0.549316
12199,0.005249,-0.091919,0.984985,-1.831055,-2.868652,1.342773
12208,0.007813,-0.090576,0.985718,-1.892090,-2.502441,2.014160
12217,0.007813,-0.089478,0.983398,-2.075195,-2.319336,2.807617
12228,0.008179,-0.087524,0.992798,-1.953125,-2.319336,3.356934
12238,0.011597,-0.085327,0.992187,-1.708984,-2.258301,3.906250
12249,0.017578,-0.086182,0.993164,-1.708984,-1.892090,5.432129
12259,0.026245,-0.089355,0.995972,-1.647949,-1.403809,5.981445
12269,0.032837,-0.093384,0.992432,-1.708984,-1.281738,6.591797
12283,0.037842,-0.094360,0.987671,-1.525879,-1.037598,7.019043
12292,0.044922,-0.096802,0.985962,-1.831055,-1.342773,7.019043
12302,0.051880,-0.098145,0.990479,-1.770020,-1.037598,6.835937
12311,0.057617,-0.110840,1.000732,-1.647949,-1.586914,6.652832
12321,0.055542,-0.116455,1.002563,-1.525879,-1.953125,6.042480
12330,0.065674,-0.120972,1.001099,-1.464844,-1.647949,5.676270
12340,0.074951,-0.119629,1.000488,-1.403809,-2.258301,5.126953
12349,0.072388,-0.114746,0.999512,-1.403809,-2.685547,4.394531
12359,0.067261,-0.109253,1.003052,-1.342773,-2.746582,3.845215
12368,0.060913,-0.107666,1.003784,-1.220703,-3.234863,3.479004
12378,0.056641,-0.107300,1.001465,-1.342773,-3.295898,2.929688
12389,0.053345,-0.107544,1.000977,-1.220703,-3.601074,2.380371
12398,0.050659,-0.102539,1.003174,-1.220703,-3.601074,2.136230
12409,0.040649,-0.106934,0.999023,-1.281738,-3.723145,2.075195
12419,0.032593,-0.112427,0.992187,-1.220703,-3.601074,1.953125
12428,0.029907,-0.118164,0.988525,-1.159668,-3.295898,1.953125
12437,0.030396,-0.124023,0.991943,-1.159668,-3.479004,1.525879
12448,0.025879,-0.128540,0.989868,-1.342773,-3.356934,1.220703
12458,0.022095,-0.129761,0.989868,-1.525879,-3.784180,1.037598
12469,0.024414,-0.116089,0.990234,-1.464844,-3.723145,0.610352
12478,0.028442,-0.110718,0.989990,-1.403809,-4.089355,0.305176
12488,0.030884,-0.111328,0.990723,-1.586914,-3.906250,0.183105
12497,0.031128,-0.114502,0.988281,-1.525879,-3.601074,0.000000
12508,0.026489,-0.111816,0.989258,-1.403809,-3.906250,-0.366211
12517,0.024414,-0.109253,0.994873,-1.403809,-3.906250,-0.427246
12527,0.026611,-0.107666,0.994995,-1.525879,-4.150391,-0.549316
12540,0.010864,-0.109375,0.991577,-1.342773,-4.028320,-0.366211
12549,0.013794,-0.081665,0.964966,-1.464844,-3.845215,-0.183105
12558,0.008667,-0.068848,0.954834,-1.403809,-3.662109,0.000000
12568,0.001465,-0.024170,0.968628,-1.647949,-3.540039,0.427246
12577,-0.004639,-0.004883,0.977417,-1.892090,-3.540039,0.488281
12587,-0.012451,-0.007324,1.008423,-1.770020,-3.540039,0.793457
12598,-0.004883,-0.030273,1.040649,-1.708984,-3.479004,1.037598
12608,0.041382,-0.031860,1.060791,-1.403809,-3.417969,0.549316
12617,0.019897,-0.189209,0.954712,0.061035,-4.028320,-0.610352
12627,-0.011475,-0.352295,1.003296,0.793457,-4.455566,-1.892090
12638,0.029541,-0.367920,1.060913,-0.305176,-3.967285,-1.037598
12647,0.092651,-0.304688,1.084229,-2.075195,-3.112793,1.525879
12657,-0.049561,0.010254,1.042725,-2.685547,-2.502441,2.075195
12668,-0.079834,-0.114624,0.854980,-1.281738,-2.502441,3.845215
12678,-0.021729,-0.333740,0.852051,-0.366211,-3.845215,3.051758
12687,0.065918,-0.261108,1.124512,-1.464844,-3.784180,2.746582
12697,0.137207,-0.169922,1.138672,-2.197266,-4.028320,2.380371
12708,0.099487,-0.221069,1.001709,-1.892090,-3.723145,1.220703
12717,0.072876,-0.209106,0.904907,-1.586914,-4.272461,0.366211
12727,0.055908,-0.243896,0.845703,-0.854492,-4.516602,-0.732422
12739,0.053223,-0.238647,0.933228,-1.159668,-5.371094,-0.488281
12749,0.075439,-0.162720,1.081543,-1.525879,-5.371094,0.732422
12757,0.075439,-0.162720,1.081543,-1.586914,-5.310059,1.403809
12768,0.024048,-0.189941,0.958740,-1.220703,-5.615234,0.976562
12777,0.000366,-0.242554,0.928467,-0.915527,-6.103516,0.427246
12788,-0.000244,-0.229492,0.952271,-0.732422,-5.920410,0.427246
12797,0.011475,-0.185547,1.004395,-1.159668,-5.126953,0.732422
12808,-0.010498,-0.172729,1.040771,-0.915527,-4.394531,0.671387
12818,-0.059570,-0.210083,0.997681,-0.793457,-4.272461,0.488281
12827,-0.049316,-0.223633,0.965820,-0.915527,-3.906250,-0.732422
12837,-0.041870,-0.209717,0.980713,-0.915527,-3.967285,-2.929688
12848,-0.058105,-0.208618,0.988525,-0.671387,-4.638672,-5.737305
12857,-0.007690,-0.248901,0.988403,-0.549316,-5.126953,-8.483887
12868,0.028320,-0.261230,0.981201,-0.732422,-6.347656,-11.535645
12877,0.018066,-0.227905,0.961792,-0.976562,-7.324219,-14.343262
12889,-0.017334,-0.183472,1.015869,-1.403809,-8.056641,-15.991211
12899,-0.000732,-0.210449,1.031128,-1.098633,-6.774902,-17.639160
12908,0.003052,-0.193970,1.036255,-1.098633,-6.774902,-18.920898
12918,0.006104,-0.193115,1.024048,-1.098633,-7.141113,-20.568848
12928,0.021973,-0.235718,0.983276,-0.915527,-7.446289,-22.521973
12937,0.026001,-0.258667,0.935425,-0.976562,-7.873535,-24.658203
12947,0.028198,-0.251831,0.918091,-1.159668,-8.728027,-27.221680
12960,0.037720,-0.246216,0.976074,-1.770020,-10.070801,-32.165527
12969,0.026001,-0.237061,1.032593,-1.831055,-10.131836,-35.034180
12979,0.007080,-0.244019,1.077881,-1.586914,-10.925293,-38.024902
12989,0.009155,-0.265869,1.065308,-1.342773,-11.352539,-40.893555
12999,0.004028,-0.293457,0.999756,-1.220703,-12.329102,-43.701172
13008,0.007935,-0.307983,0.932129,-1.037598,-12.512207,-46.142578
13018,0.022461,-0.327271,0.906616,-1.037598,-12.817383,-48.706055
13027,0.041748,-0.342896,0.922119,-1.708984,-12.939453,-52.795410
13037,0.043823,-0.271484,1.031616,-1.586914,-13.244629,-55.053711
13048,0.023682,-0.274658,1.022949,-0.976562,-13.427734,-56.640625
13058,0.001465,-0.336792,0.963989,-0.732422,-13.854980,-58.410645
13067,0.000732,-0.337402,0.916504,-0.976562,-14.160156,-60.241699
13077,0.019043,-0.271973,0.936401,-1.525879,-14.404297,-62.438965
13088,0.031494,-0.195679,1.002686,-1.831055,-15.319824,-63.842773
13097,0.028931,-0.226074,1.002930,-0.793457,-16.662598,-64.941406
13107,-0.023437,-0.289429,0.923706,-1.098633,-16.052246,-64.636230
13117,0.020996,-0.226562,0.987305,-1.647949,-15.563965,-64.331055
13128,0.042969,-0.191650,0.991699,-1.708984,-14.709473,-63.476562
13137,-0.014160,-0.253418,0.933716,-0.976562,-15.136719,-62.561035
13148,-0.081909,-0.256226,0.947021,-0.854492,-14.831543,-61.523437
13158,-0.071289,-0.213013,1.009766,-1.220703,-14.587402,-60.119629
13167,-0.071289,-0.184692,1.000610,-0.488281,-12.695313,-56.091309
13177,-0.118286,-0.169800,0.962280,-0.549316,-12.573242,-54.016113
13187,-0.205322,-0.154053,0.935059,-0.427246,-11.901855,-52.001953
13198,-0.205811,-0.151611,0.932373,-0.671387,-10.742188,-49.438477
13207,-0.220459,-0.156860,0.990967,-0.671387,-9.887695,-46.447754
13217,-0.267334,-0.166504,0.990479,-0.427246,-8.544922,-44.006348
13227,-0.258789,-0.151489,0.972778,-0.610352,-7.446289,-41.564941
13237,-0.256714,-0.121094,0.981812,-0.610352,-7.080078,-37.109375
13249,-0.269165,-0.200073,0.950317,0.183105,-5.065918,-34.851074
13258,-0.265259,-0.230225,0.997559,0.244141,-4.272461,-32.897949
13268,-0.226440,-0.264282,0.988525,0.610352,-3.601074,-31.372070
13278,-0.182373,-0.231323,1.001953,0.427246,-2.319336,-29.479980
13288,-0.160278,-0.220337,0.994385,0.549316,-1.464844,-27.709961
13297,-0.123657,-0.267334,0.934082,0.854492,-1.892090,-26.306152
13310,-0.157593,-0.276245,0.968384,0.793457,-0.305176,-23.254395
13319,-0.129272,-0.294067,0.945190,0.854492,-0.427246,-22.155762
13329,-0.112427,-0.220093,0.982910,0.488281,0.488281,-20.446777
13339,-0.116333,-0.234741,0.958496,0.671387,0.610352,-19.165039
13348,-0.115234,-0.239258,0.975952,0.854492,1.281738,-18.249512
13358,-0.156372,-0.252197,0.990356,0.793457,1.586914,-17.272949
13368,-0.152344,-0.233032,0.987427,0.610352,1.464844,-16.723633
13377,-0.139893,-0.215332,0.991211,0.549316,1.586914,-14.892578
13387,-0.163330,-0.212524,0.994751,0.549316,2.136230,-14.038086
13398,-0.222412,-0.239502,0.950317,0.549316,3.295898,-12.695313
13407,-0.186157,-0.178223,0.977539,0.549316,3.723145,-11.474609
13417,-0.204102,-0.206909,0.963867,0.671387,4.211426,-10.131836
13428,-0.204224,-0.244507,0.974854,1.220703,4.699707,-8.972168
13437,-0.222656,-0.256714,0.965576,1.098633,5.004883,-7.995605
13450,-0.214478,-0.208130,0.956421,1.159668,6.347656,-6.774902
13459,-0.225220,-0.232910,0.928467,1.159668,6.530762,-6.042480
13468,-0.224487,-0.229492,0.923096,1.159668,7.385254,-4.760742
13478,-0.207520,-0.192139,0.928223,0.854492,8.178711,-3.173828
13488,-0.187500,-0.181396,0.967041,0.732422,8.972168,-1.342773
13498,-0.212891,-0.227173,0.983643,0.854492,9.399414,0.915527
13507,-0.226807,-0.199829,1.004517,1.098633,10.314941,3.234863
13520,-0.211914,-0.216797,1.024292,1.525879,12.207031,6.958008
13529,-0.176758,-0.280640,0.953125,1.953125,12.634277,8.422852
13539,-0.179932,-0.283813,0.924927,1.770020,12.512207,9.521484
13548,-0.171387,-0.232910,0.919922,1.281738,12.512207,10.803223
13558,-0.161865,-0.239014,0.933838,1.098633,13.061523,12.390137
13567,-0.151733,-0.211792,0.935913,0.854492,14.038086,14.221191
13577,-0.148437,-0.149292,0.949829,0.183105,14.343262,16.235352
13590,-0.154297,-0.184570,0.930664,0.915527,14.831543,19.042969
13599,-0.127075,-0.135010,1.016602,0.305176,14.404297,20.385742
13609,-0.103394,-0.127441,1.023926,-0.183105,14.282227,21.423340
13618,-0.070312,-0.142456,1.020874,-0.244141,13.916016,22.338867
13628,-0.085083,-0.118652,0.991943,-0.549316,13.610840,23.925781
13638,-0.062988,-0.096313,0.930908,-0.610352,14.099121,25.573730
13647,-0.070923,-0.091309,0.951294,-0.793457,14.404297,27.526855
13657,-0.101318,-0.148071,0.950195,-0.732422,15.197754,31.250000
13669,-0.133545,-0.087524,1.043579,-1.403809,15.014648,32.165527
13678,-0.131104,-0.138184,1.035400,-1.342773,15.075684,32.165527
13688,-0.145020,-0.125854,1.051636,-1.342773,14.587402,31.738281
13697,-0.141113,-0.130981,1.013916,-1.708984,14.404297,31.250000
13708,-0.144531,-0.130371,0.999878,-1.892090,13.916016,30.761719
13717,-0.138428,-0.079346,1.004395,-2.197266,13.427734,30.578613
13729,-0.064087,-0.141235,1.001831,-2.197266,13.549805,30.700684
13738,-0.022217,-0.127930,1.001343,-2.258301,12.939453,29.968262
13748,0.005371,-0.152466,1.004517,-2.441406,12.390137,29.235840
13757,0.009399,-0.191040,0.999878,-2.319336,11.901855,28.259277
13768,0.012207,-0.198242,0.971802,-2.380371,11.169434,26.916504
13777,0.069580,-0.162842,0.983521,-2.685547,10.253906,25.573730
13788,0.053955,-0.209473,0.997192,-2.441406,9.521484,23.925781
13797,0.082397,-0.232422,0.986816,-2.258301,7.446289,20.690918
13808,0.061401,-0.241211,0.993774,-2.197266,6.469727,18.859863
13818,0.113281,-0.184570,0.977295,-2.319336,5.981445,16.723633
13827,0.098267,-0.122192,0.991333,-2.319336,5.065918,14.770508
13838,0.060059,-0.178101,0.884766,-2.197266,3.967285,12.573242
13847,0.088013,-0.145874,1.027710,-2.075195,3.295898,10.437012
13858,0.107910,-0.101563,1.094604,-2.380371,2.441406,8.422852
13867,0.043823,-0.066528,0.931519,-2.563477,0.244141,3.173828
13879,0.015747,-0.089600,1.029785,-2.380371,0.244141,0.793457
13888,0.078979,-0.157715,1.061768,-2.319336,0.793457,-0.732422
13898,0.040161,-0.080444,1.074097,-2.868652,0.305176,-2.136230
13907,-0.030884,-0.053589,1.018066,-3.234863,-0.854492,-3.479004
13917,-0.029907,-0.104858,0.995361,-2.685547,-0.488281,-4.577637
13927,-0.036621,-0.071899,0.979614,-2.685547,0.061035,-5.187988
13939,-0.077148,-0.058105,1.006470,-2.929688,0.366211,-5.554199
13948,-0.131348,-0.042847,0.983887,-2.563477,-0.183105,-7.263184
13958,-0.108765,-0.011475,1.002197,-2.807617,-0.610352,-8.056641
13968,-0.118652,-0.007813,1.009399,-2.624512,-0.061035,-8.239746
13977,-0.077026,-0.053955,1.004883,-2.502441,0.671387,-8.300781
13987,-0.045654,-0.050537,1.010132,-2.807617,1.525879,-8.178711
13998,-0.038452,-0.058228,1.024292,-3.051758,1.403809,-8.056641
14007,-0.027100,-0.135620,1.011108,-3.051758,1.708984,-6.591797
14017,0.037720,-0.073975,1.018555,-2.563477,1.953125,-5.004883
14028,0.060669,-0.323242,1.002686,-2.136230,1.647949,-3.540039
14037,0.087891,-0.223267,1.021606,-2.136230,2.258301,-2.136230
14048,0.103149,-0.142944,0.995850,-2.380371,1.586914,-0.854492
14057,0.076660,-0.197021,1.011475,-1.892090,1.281738,-0.122070
14067,-0.007813,-0.232056,0.964600,-1.831055,0.000000,-0.061035
14077,-0.036377,-0.193848,0.894165,-1.708984,-0.305176,0.061035
14089,-0.013428,-0.208984,0.952026,-1.098633,0.305176,1.159668
14098,0.038940,-0.107666,0.916138,-1.037598,2.136230,3.234863
14108,0.003418,-0.049072,0.945679,-0.915527,2.929688,5.432129
14117,-0.105225,-0.077759,0.934082,-0.366211,2.929688,7.019043
14128,-0.160645,-0.057129,0.956665,-0.671387,2.624512,7.751465
14137,-0.205322,0.012329,1.025635,-0.976562,2.502441,8.361816
14147,-0.204956,-0.043091,1.026367,-0.488281,3.295898,10.253906
14159,-0.133179,-0.077515,1.058228,-0.366211,5.004883,11.352539
14168,-0.135742,-0.096558,1.030273,0.122070,5.432129,12.878418
14178,-0.083740,-0.099976,0.992065,0.000000,6.042480,14.221191
14187,-0.042114,-0.073608,1.005859,-0.122070,6.469727,16.113281
14197,0.001221,-0.103271,1.000977,-0.122070,6.042480,17.639160
14207,-0.011597,-0.103760,0.983765,-0.366211,5.920410,18.737793
14217,-0.021606,-0.126953,1.025635,-0.366211,6.103516,21.728516
14229,-0.040405,-0.076538,1.013428,-0.793457,6.652832,22.888184
14238,-0.045288,-0.100830,1.031982,-0.549316,7.080078,24.230957
14248,-0.054810,-0.134033,1.016479,-0.610352,6.896973,25.390625
14257,-0.098755,-0.099976,0.975586,-0.915527,6.774902,26.062012
14267,-0.095459,-0.181885,1.017822,-0.610352,7.019043,26.733398
14277,-0.070068,-0.154785,1.007690,-0.671387,7.141113,26.855469
14287,-0.069702,-0.109741,0.983521,-0.732422,7.141113,26.672363
14297,-0.045410,-0.182983,0.990112,-0.671387,7.080078,26.306152
14308,0.013794,-0.141968,0.962646,-0.793457,6.591797,25.756836
14317,0.016235,-0.231934,0.967529,-0.488281,6.042480,24.719238
14328,0.038208,-0.200195,1.012329,-0.732422,5.615234,23.193359
14337,0.032715,-0.177368,1.011475,-0.732422,4.760742,21.179199
14347,0.032715,-0.208740,0.990479,-0.244141,4.516602,19.348145
14360,0.045044,-0.253174,1.000732,0.000000,3.479004,16.662598
14369,0.047729,-0.258179,0.977539,0.122070,2.563477,15.319824
14378,0.035645,-0.182251,0.994385,0.061035,2.197266,14.709473
14387,0.061035,-0.270630,0.971924,0.183105,1.647949,14.099121
14398,0.061523,-0.271851,0.967651,0.244141,1.464844,13.610840
14407,0.046631,-0.211548,0.976929,0.122070,1.464844,13.305664
14418,0.030518,-0.274780,0.959717,0.183105,0.915527,13.183594
14427,0.025879,-0.234009,0.966797,-0.183105,0.793457,12.695313
14439,0.003662,-0.233643,0.948975,-0.183105,0.549316,12.390137
14448,-0.019165,-0.216553,0.934448,-0.549316,0.244141,12.084961
14457,-0.002563,-0.211426,0.983398,-0.793457,-0.061035,11.840820
14467,-0.019409,-0.230713,0.975098,-1.159668,-0.122070,11.718750
14477,-0.037598,-0.170898,1.006836,-1.586914,-0.244141,11.840820
14487,-0.029663,-0.160034,1.004272,-1.831055,0.305176,12.084961
14499,-0.024658,-0.206177,0.998047,-1.770020,0.366211,12.695313
14509,-0.039307,-0.172119,1.008911,-1.403809,0.488281,12.695313
14518,-0.024414,-0.205322,1.034546,-1.586914,0.488281,12.695313
14527,-0.017334,-0.231934,1.009033,-1.525879,0.061035,12.207031
14537,0.008057,-0.169800,1.010010,-1.647949,0.244141,11.901855
14548,0.009277,-0.239990,0.966309,-1.831055,0.122070,11.901855
14557,0.023560,-0.183472,1.003662,-1.953125,0.061035,11.901855
14570,0.032349,-0.286499,0.963379,-1.403809,-0.061035,12.390137
14579,0.018555,-0.286621,0.935547,-1.586914,-0.061035,12.329102
14589,0.009888,-0.239502,0.923584,-1.953125,-0.183105,12.023926
14598,-0.008789,-0.191772,0.945923,-2.075195,-0.427246,11.474609
14608,0.006958,-0.246948,0.977417,-1.647949,-0.671387,10.925293
14617,0.003906,-0.256104,0.952026,-1.403809,-0.976562,10.192871
14628,0.045288,-0.269897,0.967529,-1.464844,-1.403809,9.582520
14637,0.047974,-0.243408,0.960571,-1.403809,-1.770020,8.666992
14649,0.057495,-0.213379,0.992554,-1.464844,-2.136230,8.239746
14658,0.055054,-0.175293,1.017944,-1.464844,-2.746582,8.056641
14668,0.060181,-0.240234,1.009277,-1.037598,-2.197266,7.934570
14677,0.032227,-0.255127,0.995728,-0.976562,-2.258301,7.690430
14688,0.022339,-0.277832,0.986572,-0.732422,-2.563477,6.958008
14697,-0.006470,-0.224243,0.970703,-0.793457,-2.990723,5.737305
14709,0.012817,-0.214233,0.947266,-0.671387,-2.929688,3.784180
14719,0.021362,-0.225708,0.984253,-0.854492,-3.906250,2.929688
14728,0.026123,-0.153198,1.034302,-1.098633,-4.150391,2.441406
14738,0.037598,-0.198120,1.041138,-1.037598,-3.845215,2.502441
14747,0.037231,-0.168945,1.037842,-1.159668,-3.906250,2.380371
14757,0.010742,-0.224243,0.993896,-0.915527,-3.967285,2.563477
14768,0.020386,-0.190674,0.985352,-0.915527,-3.845215,2.685547
14777,0.027222,-0.208008,0.984009,-1.098633,-3.967285,1.953125
14789,0.001831,-0.236206,0.973877,-1.220703,-3.967285,1.403809
14798,0.008423,-0.203613,0.992920,-1.281738,-3.906250,0.915527
14808,-0.006226,-0.210327,1.012451,-1.708984,-4.028320,0.305176
14818,0.004028,-0.186401,1.004639,-1.403809,-4.150391,0.000000
14827,0.012207,-0.182861,1.033081,-1.647949,-4.211426,-0.183105
14838,0.025757,-0.149536,1.023315,-1.831055,-4.577637,-0.427246
14847,0.010498,-0.138306,1.038330,-1.831055,-3.967285,0.244141
14859,-0.000488,-0.199951,0.991699,-2.014160,-3.723145,0.976562
14868,-0.016357,-0.210449,0.956177,-2.258301,-3.051758,1.464844
14878,-0.054565,-0.174194,0.969360,-2.563477,-2.807617,1.831055
14888,-0.104004,-0.182739,0.979492,-2.685547,-2.624512,2.197266
14898,-0.119629,-0.207520,0.960815,-2.746582,-2.563477,2.380371
14907,-0.105469,-0.200562,0.972778,-2.990723,-1.403809,2.319336
14919,-0.094360,-0.213013,0.989746,-3.051758,-1.342773,2.075195
14929,-0.107300,-0.225830,0.969238,-3.234863,-1.098633,1.281738
14938,-0.057617,-0.186157,0.973267,-3.234863,-0.793457,0.366211
14948,-0.037720,-0.211060,0.969604,-2.929688,-0.427246,-0.610352
14957,0.019775,-0.168091,0.989380,-2.624512,-0.244141,-1.220703
14968,0.056030,-0.212769,0.972046,-2.441406,-0.122070,-1.220703
14978,0.090576,-0.176147,0.984131,-2.441406,-0.183105,-1.342773
14987,0.064697,-0.182007,0.973633,-2.380371,-0.671387,-2.502441
14997,0.013428,-0.145630,0.974731,-1.953125,-1.037598,-3.234863
15008,-0.059082,-0.127563,0.993530,-1.770020,-0.793457,-3.967285
15017,-0.071655,-0.173706,0.985229,-1.342773,-0.854492,-4.577637
15027,-0.072998,-0.122192,0.984375,-1.281738,-0.183105,-4.821777
15038,-0.040771,-0.103760,1.022583,-1.098633,0.122070,-4.516602
15047,-0.027344,-0.066040,1.045288,-0.427246,0.549316,-4.150391
15059,-0.037109,-0.063843,1.000244,-0.183105,0.671387,-3.234863
15069,-0.043213,-0.092407,0.978882,-0.122070,1.525879,-2.624512
15078,-0.092529,-0.021484,0.980835,-0.305176,1.586914,-2.258301
15088,-0.026245,-0.088135,0.978638,-0.183105,2.441406,-1.586914
15097,0.016724,-0.078491,0.975708,-0.549316,3.356934,-1.403809
15107,0.079468,-0.102661,0.984375,-0.793457,2.685547,-1.586914
15118,0.059204,-0.065430,0.997070,-1.342773,1.831055,-2.197266
15127,0.053955,-0.105469,1.024536,-0.915527,1.098633,-3.662109
15139,0.056396,-0.167358,0.977905,-0.549316,1.220703,-3.784180
15148,0.041260,-0.159790,0.967041,-0.732422,1.464844,-3.295898
15158,0.034424,-0.179077,0.967529,-0.610352,1.708984,-2.502441
15167,-0.003052,-0.195801,0.939209,-0.671387,2.014160,-1.770020
15178,0.007690,-0.209961,0.921021,-0.915527,1.770020,-1.403809
15187,0.018677,-0.194824,0.923096,-1.220703,1.403809,-1.281738
15199,0.023437,-0.160156,0.937500,-1.586914,1.281738,-2.685547
15209,0.006836,-0.157349,0.976562,-2.136230,0.915527,-3.601074
15218,0.003418,-0.159668,1.010864,-2.197266,0.793457,-4.150391
15228,-0.006348,-0.135986,1.015503,-2.502441,0.915527,-4.516602
15237,-0.025513,-0.179687,0.948608,-2.563477,1.159668,-4.211426
15247,0.000854,-0.087158,0.967529,-2.746582,1.647949,-3.540039
15259,0.008179,-0.168213,0.960449,-2.441406,2.441406,-2.075195
15269,0.008423,-0.159424,1.006592,-2.563477,2.258301,-1.708984
15278,0.009521,-0.095215,1.029175,-2.502441,2.380371,-1.525879
15288,0.010742,-0.109009,1.005127,-2.258301,1.892090,-1.220703
15297,0.010620,-0.108887,0.963379,-2.075195,1.647949,-0.305176
15307,0.050171,-0.144409,0.945190,-1.708984,1.647949,0.671387
15317,0.040649,-0.149536,0.954468,-1.892090,2.441406,1.953125
15327,0.018188,-0.189331,0.981812,-1.586914,2.868652,2.685547
15340,-0.068115,-0.143799,1.050781,-1.525879,2.929688,3.234863
15349,-0.080444,-0.189087,1.050171,-1.281738,3.540039,3.479004
15359,-0.058716,-0.196167,1.024170,-1.159668,3.723145,3.417969
15368,-0.043823,-0.222656,1.019043,-1.037598,3.967285,3.417969
15378,-0.041626,-0.214844,1.013428,-0.976562,4.211426,3.417969
15387,-0.044312,-0.209229,1.019531,-0.793457,3.784180,3.479004
15397,-0.030029,-0.187744,1.036377,-0.244141,3.845215,3.723145
15409,-0.009033,-0.203125,0.996948,0.122070,4.699707,5.126953
15419,0.009399,-0.275513,0.976196,0.976562,5.371094,5.310059
15428,0.010864,-0.309937,0.940918,0.915527,4.943848,5.310059
15438,0.010986,-0.261963,0.965088,0.854492,4.516602,5.004883
15447,0.028076,-0.338745,0.906250,0.854492,4.028320,4.455566
15457,0.039429,-0.359009,0.846436,0.610352,3.906250,3.967285
15469,0.075684,-0.255005,0.906250,-0.488281,3.417969,3.723145
15478,0.091187,-0.244141,0.776245,-0.915527,2.990723,3.723145
15489,0.041382,-0.241455,0.938232,-2.014160,2.990723,3.723145
15499,0.055054,-0.084717,1.076050,-2.197266,3.479004,3.845215
15508,0.042847,-0.205566,0.967163,-1.953125,2.990723,4.455566
15518,0.040894,-0.174927,0.979736,-2.136230,3.234863,4.821777
15527,0.081543,-0.294800,0.871704,-2.258301,3.295898,5.493164
15538,0.088745,-0.381714,0.746826,-2.441406,3.234863,6.225586
15547,0.043701,-0.283691,0.766846,-5.859375,2.319336,7.019043
15559,0.022461,-0.037476,1.028809,-6.774902,2.075195,7.446289
15568,-0.007080,-0.076172,1.082397,-6.591797,2.502441,8.544922
15578,-0.028931,-0.133667,1.029663,-5.554199,3.112793,9.521484
15587,-0.044800,-0.180542,1.015259,-4.699707,3.356934,10.131836
15597,-0.034790,-0.204102,0.991577,-4.577637,3.540039,10.253906
15608,-0.005859,-0.179077,1.022217,-4.943848,3.356934,10.009766
15617,-0.017944,-0.187622,1.009521,-5.187988,2.441406,9.643555
15627,0.028564,-0.118530,1.020264,-4.760742,2.441406,10.009766
15638,0.008423,-0.178833,1.015991,-4.272461,2.624512,10.620117
15647,0.009644,-0.177490,1.033936,-4.150391,2.380371,10.864258
15657,0.026733,-0.179932,1.072266,-3.967285,2.929688,10.803223
15667,0.067871,-0.247070,0.991577,-3.601074,2.685547,10.559082
15679,0.099976,-0.345581,0.928955,-3.234863,0.610352,8.117676
15688,0.163086,-0.282104,1.006714,-3.051758,-0.915527,6.652832
15698,0.192749,-0.231445,1.034790,-2.990723,-1.953125,4.882812
15707,0.198853,-0.238159,1.025879,-2.929688,-2.807617,3.601074
15717,0.196655,-0.288330,0.942627,-2.807617,-2.807617,3.112793
15728,0.195190,-0.303345,0.955200,-2.502441,-3.051758,2.258301
15737,0.210937,-0.315674,0.940063,-2.441406,-3.845215,1.159668
15749,0.180176,-0.269165,0.966919,-3.356934,-5.615234,-2.197266
15758,0.152100,-0.224121,1.057495,-3.540039,-6.103516,-3.967285
15769,0.089844,-0.138550,1.060791,-3.234863,-6.103516,-5.737305
15778,0.051392,-0.152710,1.052979,-2.868652,-6.408691,-7.324219
15788,0.023193,-0.109863,1.052002,-2.685547,-6.591797,-8.728027
15797,0.030273,-0.062988,1.071777,-2.319336,-7.019043,-10.070801
15808,0.046143,-0.038940,1.068359,-2.502441,-6.896973,-11.291504
15817,0.067993,0.014526,1.110352,-2.441406,-6.958008,-11.901855
15829,0.143066,-0.016479,1.102173,-2.258301,-6.896973,-12.695313
15838,0.110107,0.004883,1.071045,-2.136230,-6.286621,-12.145996
15848,0.176880,0.013306,1.035767,-1.953125,-6.347656,-11.474609
15857,0.162109,0.004639,1.022217,-2.136230,-6.652832,-10.253906
15868,0.159790,-0.022217,1.002930,-2.136230,-6.896973,-8.789063
15877,0.155273,0.009155,0.974976,-2.075195,-7.690430,-7.324219
15887,0.070435,-0.025024,0.998535,-1.525879,-7.385254,-5.493164
15900,-0.084351,-0.101929,0.976807,-0.305176,-4.577637,-0.732422
15909,-0.076416,-0.115479,1.038574,0.061035,-3.662109,1.281738
15919,-0.095337,0.058228,0.992554,0.305176,-2.990723,2.624512
15928,-0.106812,-0.068359,0.931519,0.915527,-3.112793,3.173828
15938,-0.152954,-0.384888,0.879639,1.403809,-3.845215,3.295898
15947,-0.166260,-0.125610,0.909668,0.366211,-4.943848,3.417969
15958,-0.059082,0.081787,1.007568,0.122070,-3.845215,4.638672
15967,0.009766,-0.009033,0.961792,2.929688,-0.305176,10.070801
15977,0.038696,-0.124390,0.974365,3.417969,-0.244141,12.268066
15988,-0.030518,-0.216309,0.994141,3.601074,0.183105,13.610840
15997,-0.054810,-0.218140,0.947021,3.356934,-0.427246,13.671875
16007,-0.112793,-0.219849,0.921143,3.234863,-0.427246,13.183594
16017,-0.096924,-0.117310,0.952148,2.685547,-0.915527,12.268066
16027,-0.135254,-0.188232,0.939575,2.929688,-0.915527,11.230469
16039,-0.055420,-0.173340,1.068115,2.929688,-1.464844,9.582520
16048,-0.024414,-0.203125,1.015015,2.929688,-0.366211,9.460449
16058,0.019653,-0.152954,0.959595,2.868652,-0.549316,9.399414
16067,0.075928,-0.220459,0.998901,2.929688,-0.976562,9.155273
16077,0.161377,-0.296021,0.978638,2.746582,-1.892090,8.544922
16088,0.192505,-0.189697,1.003418,2.258301,-2.807617,7.690430
16097,0.179810,-0.108032,1.076782,1.525879,-3.845215,6.835937
16109,0.136963,-0.194458,1.030396,1.403809,-4.882812,5.798340
16119,0.117310,-0.092651,1.022705,1.098633,-4.943848,5.371094
16129,0.052368,-0.143433,0.964600,0.915527,-5.920410,4.760742
16138,0.042847,-0.103638,0.993042,0.976562,-6.286621,4.211426
16147,0.019043,-0.106445,1.012695,0.854492,-6.469727,3.295898
16157,-0.005615,-0.182129,1.028198,0.732422,-6.591797,2.258301
16168,-0.012329,-0.103760,1.058594,0.610352,-6.958008,0.793457
16177,-0.014038,-0.114136,0.930664,0.793457,-7.080078,-1.464844
16189,-0.055908,-0.240845,0.924438,-0.305176,-6.530762,-2.502441
16198,0.027466,-0.122559,0.961060,-0.610352,-6.408691,-3.723145
16208,0.039185,-0.182129,0.940796,-1.220703,-6.530762,-4.272461
16217,0.032471,-0.236206,0.891357,-1.831055,-7.568359,-4.943848
16227,0.007690,-0.176514,0.929810,-2.075195,-7.446289,-5.859375
16237,0.024658,-0.159668,0.975586,-2.746582,-7.629395,-5.920410
16249,-0.022583,-0.139282,1.003662,-2.929688,-6.469727,-4.455566
16259,-0.022949,-0.158203,1.023682,-2.624512,-6.408691,-3.356934
16269,-0.036743,-0.262207,0.935181,-2.319336,-5.859375,-2.441406
16279,-0.034424,-0.253174,0.972656,-2.258301,-5.554199,-2.075195
16289,-0.053955,-0.161865,0.997559,-2.502441,-5.493164,-2.014160
16298,-0.093384,-0.264893,0.919800,-2.563477,-5.249023,-2.258301
16308,-0.091797,-0.229858,1.016602,-2.624512,-4.760742,-2.563477
16317,-0.115967,-0.173462,1.016602,-2.624512,-3.601074,-2.868652
16327,-0.085083,-0.175537,1.009766,-2.868652,-3.173828,-2.929688
16337,-0.054077,-0.190308,0.949341,-2.807617,-2.929688,-2.929688
16348,0.002197,-0.251587,0.897217,-2.990723,-2.929688,-2.868652
16358,0.002441,-0.135010,0.972168,-3.234863,-2.563477,-2.624512
16367,0.010254,-0.148926,0.935791,-3.845215,-2.502441,-2.319336
16377,-0.013794,-0.113159,0.971558,-4.394531,-2.868652,-1.953125
16389,-0.062866,-0.073242,1.045898,-4.638672,-1.831055,-1.037598
16398,-0.063110,-0.089966,1.075684,-4.394531,-2.929688,-0.976562
16408,-0.109497,-0.015015,1.032715,-3.784180,-1.281738,-1.708984
16418,-0.089355,-0.073486,0.996704,-3.967285,-2.319336,-1.953125
16428,-0.109741,-0.073608,1.039429,-3.845215,-0.732422,-2.502441
16437,-0.102173,-0.042725,0.975708,-3.845215,-1.647949,-3.479004
16447,-0.064209,-0.044800,0.937134,-3.906250,-1.708984,-4.821777
16457,-0.083984,-0.012817,0.972534,-3.967285,-1.159668,-6.408691
16469,0.039551,-0.078613,0.978882,-3.967285,-0.976562,-6.896973
16478,0.086426,-0.009155,1.010864,-4.150391,-0.732422,-7.263184
16488,0.123779,-0.098022,0.926147,-4.089355,-1.464844,-7.690430
16497,0.084839,-0.131226,0.920166,-4.333496,-1.953125,-8.117676
16508,0.128784,-0.025024,1.000488,-4.333496,-1.708984,-8.300781
16517,0.085449,-0.151367,0.929687,-4.272461,-1.708984,-8.422852
16527,0.064087,-0.234253,0.944092,-4.272461,-2.075195,-9.948730
16539,-0.065796,-0.212402,0.926392,-4.516602,-2.136230,-10.742188
16548,-0.015381,-0.163086,0.994873,-4.272461,-2.319336,-12.084961
16558,-0.006836,-0.097656,1.037354,-3.845215,-2.136230,-13.366699
16568,0.004761,-0.198120,1.021729,-3.356934,-3.051758,-14.648438
16577,0.028076,-0.121216,1.066040,-2.746582,-3.051758,-15.380859
16587,0.036621,-0.197144,0.998413,-1.953125,-2.258301,-15.441895
16597,0.060547,-0.248291,1.007202,-1.647949,-2.197266,-14.831543
16609,-0.054077,-0.179932,0.983032,-1.098633,-1.464844,-14.587402
16618,-0.061523,-0.064941,0.986328,-1.403809,-0.366211,-14.526367
16628,-0.108887,-0.124878,0.926147,-1.586914,0.000000,-14.282227
16638,-0.045776,-0.065063,0.982788,-1.342773,1.281738,-14.038086
16647,-0.086182,-0.056396,0.997681,-1.647949,1.220703,-13.732910
16657,-0.070557,-0.139526,0.950439,-1.525879,1.342773,-14.160156
16669,-0.015137,-0.078003,0.946655,-1.708984,1.586914,-14.831543
16678,0.029907,-0.113403,0.934570,-2.197266,1.525879,-14.953613
16688,0.013794,-0.110718,1.006470,-2.014160,1.525879,-15.014648
16698,0.026001,-0.069702,0.982788,-2.136230,1.525879,-14.892578
16707,0.066650,-0.024048,1.005127,-2.075195,2.441406,-14.038086
16718,0.063965,-0.066650,1.056274,-2.075195,2.929688,-12.512207
16727,0.024292,-0.086548,1.037720,-1.770020,3.417969,-11.169434
16739,-0.055054,-0.192871,0.939331,-1.281738,3.662109,-8.117676
16748,-0.011230,-0.167114,0.995605,-0.732422,4.760742,-6.652832
16758,-0.052246,-0.141846,0.975586,-0.854492,4.882812,-5.065918
16768,-0.100708,-0.160645,1.012085,-0.976562,5.432129,-3.295898
16777,-0.134766,-0.150269,0.967896,-0.793457,5.371094,-2.075195
16787,-0.119629,-0.201538,0.920776,-0.732422,6.530762,-0.488281
16797,-0.107422,-0.140381,0.947021,-0.793457,7.995605,1.281738
16809,-0.116577,-0.052490,1.081421,-0.915527,9.460449,4.516602
16819,-0.141479,-0.160767,1.021118,-0.671387,9.216309,5.981445
16829,-0.089111,-0.087402,1.070801,0.183105,9.582520,7.019043
16838,-0.076538,-0.218506,0.976318,0.610352,10.070801,8.422852
16848,-0.084351,-0.216431,0.993286,0.366211,10.742188,9.643555
16857,-0.072388,-0.191040,0.946045,0.305176,10.864258,10.742188
16867,-0.068848,-0.215942,0.855957,0.122070,10.925293,11.718750
16879,-0.013794,-0.262451,0.924805,-0.305176,10.925293,13.610840
16889,-0.008667,-0.127197,1.010254,-0.732422,9.826660,13.488770
16898,-0.006592,-0.187500,0.958008,-0.671387,9.277344,13.305664
16908,0.011108,-0.096313,1.045898,-0.915527,9.277344,13.793945
16917,0.008057,-0.260986,1.013916,-0.732422,9.155273,13.488770
16928,-0.029663,-0.161987,1.078857,-0.854492,8.972168,12.817383
16937,-0.018066,-0.214966,0.955566,-0.854492,7.812500,12.329102
16949,0.079468,-0.216553,1.064941,-0.732422,7.873535,10.925293
16958,0.062012,-0.123779,1.094482,-0.305176,5.920410,9.765625
16968,0.115234,-0.194702,1.087769,0.183105,5.065918,8.850098
16977,0.104004,-0.131958,1.042114,0.610352,4.577637,8.239746
16987,0.126709,-0.288940,0.935303,0.671387,4.028320,7.324219
16997,0.167236,-0.166260,0.976562,0.000000,3.417969,6.774902
17007,0.176514,-0.163696,1.046265,-0.366211,2.685547,5.798340
17019,0.137939,-0.058594,1.113647,-0.671387,1.770020,3.784180
17028,0.133179,-0.105225,1.008789,0.427246,0.610352,2.990723
17038,0.103882,-0.139771,0.991577,0.671387,0.122070,2.258301
17047,0.139160,-0.160645,1.028931,0.793457,-0.366211,1.464844
17057,0.097168,-0.111694,1.005737,0.671387,-1.037598,1.220703
17067,0.115845,-0.075195,0.946411,0.549316,-1.770020,0.854492
17077,0.087158,-0.048950,0.977661,0.732422,-2.441406,-0.183105
17087,0.040405,-0.160645,0.857666,0.183105,-2.807617,-1.892090
17097,0.037231,-0.150391,0.907104,-0.305176,-2.563477,-2.197266
17107,-0.001343,-0.147339,0.895508,-0.793457,-2.441406,-2.502441
17117,-0.004150,-0.043457,0.952026,-1.586914,-2.380371,-2.746582
17127,-0.007813,-0.060303,0.959351,-1.647949,-2.075195,-2.929688
17137,-0.042603,-0.083008,0.976807,-1.464844,-1.831055,-2.929688
17148,-0.048950,-0.185913,0.977417,-1.159668,-1.831055,-3.051758
17158,-0.063110,-0.136963,0.959351,-1.403809,-0.549316,-2.075195
17168,-0.099731,-0.093506,1.042603,-1.098633,-0.366211,-1.586914
17177,-0.074951,-0.028687,1.054077,-0.915527,0.000000,-1.525879
17187,-0.046387,-0.149902,0.946167,-0.427246,0.732422,-0.732422
17197,-0.002930,-0.005127,1.018921,-0.305176,1.281738,0.183105
17207,-0.042603,-0.181763,0.884399,0.000000,0.976562,0.732422
17217,0.011353,-0.003052,1.036987,-0.488281,0.305176,0.976562
17230,0.070557,-0.001587,1.059937,-0.671387,1.342773,2.014160
17239,0.097046,-0.140625,1.037476,-0.366211,1.281738,3.112793
17249,0.129883,-0.131836,1.092285,-0.183105,1.098633,3.845215
17258,0.088135,-0.137329,0.963135,-0.244141,0.915527,4.760742
17267,0.048462,-0.067627,1.015137,-1.037598,-0.488281,5.065918
17277,-0.008301,-0.139160,0.980835,-1.159668,-0.427246,5.249023
17287,-0.028809,-0.087402,1.018066,-1.220703,0.183105,5.187988
17300,-0.042725,-0.105591,0.957031,-1.220703,0.427246,5.432129
17309,-0.073120,-0.182861,0.929077,-1.220703,0.549316,6.042480
17319,-0.028564,-0.137695,0.967651,-1.647949,0.915527,6.469727
17328,-0.013062,-0.180176,0.950317,-2.014160,0.671387,6.469727
17338,-0.019653,-0.145508,0.987183,-2.136230,0.549316,6.469727
17348,-0.014893,-0.161743,0.945679,-2.258301,0.610352,6.835937
17358,-0.008423,-0.173096,0.868652,-2.441406,0.732422,7.629395
17367,-0.002686,-0.219482,0.910645,-3.173828,1.586914,9.887695
17377,-0.016113,-0.100098,1.038940,-3.173828,1.464844,10.986328
17387,0.018311,-0.137573,1.011841,-2.746582,1.159668,12.390137
17397,0.019531,-0.090820,1.039185,-2.502441,0.610352,13.488770
17407,-0.028076,-0.131714,0.979858,-2.441406,0.549316,14.709473
17417,-0.011597,-0.084106,1.076050,-2.075195,0.793457,15.747070
17427,-0.042603,-0.148193,0.973999,-1.525879,0.793457,16.479492
17439,-0.062256,-0.224731,0.935059,-0.854492,0.244141,16.357422
17449,-0.068359,-0.161865,0.947266,-0.793457,0.366211,15.625000
17458,-0.079224,-0.249634,0.971558,-0.366211,0.305176,14.709473
17468,-0.044678,-0.179810,0.930298,-0.488281,-1.098633,13.122559
17478,-0.085571,-0.220459,0.882202,-0.732422,-1.831055,11.474609
17487,-0.074463,-0.260620,0.906860,-0.854492,-1.464844,9.704590
17497,-0.039673,-0.216064,0.997803,-1.342773,-2.075195,7.934570
17510,0.010010,-0.079590,1.035522,-1.586914,-2.014160,5.249023
17519,0.020020,-0.218262,0.976929,-1.098633,-1.708984,4.394531
17529,0.057861,-0.199951,0.963013,-1.403809,-1.953125,3.540039
17538,0.079712,-0.167480,1.030518,-1.586914,-2.319336,2.502441
17548,0.086792,-0.089600,1.120361,-2.136230,-2.746582,1.586914
17557,0.039551,-0.083984,1.177856,-2.075195,-2.929688,0.610352
17567,0.013062,0.020142,1.183594,-1.586914,-3.234863,-0.549316
17579,0.026367,-0.159546,0.942749,-0.976562,-3.723145,-1.525879
17588,0.023560,-0.149414,0.950562,-0.732422,-3.723145,-2.624512
17598,0.022339,-0.061279,1.039673,-1.159668,-3.479004,-2.868652
17607,0.014893,-0.022705,0.951416,-1.647949,-3.662109,-3.723145
17617,0.042114,0.048462,0.970947,-1.953125,-4.028320,-4.882812
17627,0.066772,-0.144531,0.872437,-2.014160,-4.577637,-5.798340
17637,0.053711,-0.082886,0.944458,-2.258301,-4.211426,-6.652832
17649,0.014648,-0.018066,1.044067,-3.234863,-4.272461,-8.544922
17659,0.011353,0.042358,1.099243,-2.929688,-4.150391,-9.521484
17668,0.034302,-0.060181,1.068726,-2.136230,-4.333496,-10.437012
17678,0.056641,-0.046997,1.011475,-1.281738,-4.516602,-11.230469
17688,0.095215,-0.078003,1.049194,-0.427246,-4.333496,-11.413574
17697,0.036743,-0.076172,1.073364,0.061035,-4.089355,-10.925293
17708,0.028076,-0.077026,1.042725,0.427246,-3.845215,-9.948730
17717,-0.011963,-0.116577,0.972290,1.342773,-1.831055,-8.056641
17729,-0.029907,-0.308960,0.857300,1.464844,-1.342773,-7.385254
17738,-0.015259,-0.150513,0.978882,0.732422,-1.403809,-7.019043
17748,-0.033936,-0.213379,0.876343,0.732422,-1.464844,-6.774902
17757,-0.069946,-0.105591,0.939331,0.610352,-1.831055,-6.469727
17768,-0.032593,-0.187500,0.908325,0.488281,-0.854492,-5.615234
17777,-0.029053,-0.169556,0.899292,0.427246,0.183105,-4.394531
17789,-0.081665,-0.123535,0.973145,0.183105,0.854492,-2.136230
17798,-0.085937,0.018433,0.982666,-0.976562,2.136230,-1.831055
17808,-0.093384,-0.118042,0.955811,-0.732422,2.685547,-1.342773
17817,-0.110229,-0.040039,1.034180,-0.671387,2.685547,-1.220703
17827,-0.085571,-0.102417,0.990967,-0.793457,2.502441,-1.220703
17838,-0.086548,0.036255,1.019897,-0.793457,2.319336,-1.159668
17847,-0.004761,0.017212,1.033447,-0.305176,3.295898,-0.183105
17859,-0.029419,-0.072144,0.977051,0.061035,3.906250,2.075195
17868,-0.015747,-0.199707,0.874146,-0.305176,4.394531,2.563477
17877,-0.028320,-0.052490,0.977051,-1.037598,4.028320,2.990723
17887,-0.023682,-0.132202,0.950684,-1.586914,4.211426,3.540039
17897,-0.084106,-0.026978,1.019775,-2.685547,3.967285,3.845215
17907,-0.045532,-0.025757,1.076904,-3.051758,4.272461,4.089355
17917,-0.048950,-0.069214,1.080322,-2.563477,4.882812,4.333496
17927,-0.034668,-0.124023,1.031006,-1.831055,5.432129,5.676270
17938,0.055786,-0.135498,0.963257,-1.403809,5.310059,5.920410
17948,0.091675,-0.212280,0.951416,-1.464844,4.760742,6.225586
17957,0.078247,-0.153320,1.058350,-1.220703,5.065918,6.591797
17967,0.100830,-0.218506,0.923096,-1.159668,3.723145,6.469727
17977,0.062012,-0.181519,0.974854,-0.915527,3.417969,6.408691
17987,0.076660,-0.310059,0.872681,-0.732422,3.295898,6.408691
17999,0.032837,-0.153076,1.045898,-1.342773,3.356934,5.798340
18008,0.012085,-0.308716,0.988037,-2.502441,1.953125,5.004883
18017,0.046631,-0.056641,0.978638,-2.746582,1.586914,4.272461
18027,0.038818,-0.242065,0.885132,-2.685547,1.708984,4.333496
18037,0.057129,-0.149902,0.814087,-3.173828,1.098633,4.028320
18047,0.065552,-0.224243,0.850952,-4.089355,1.037598,3.845215
18057,0.094238,-0.018799,1.017456,-5.126953,0.854492,3.662109
18067,0.082275,0.013916,1.188477,-5.310059,-0.061035,3.540039
18078,0.050293,0.025635,1.101074,-3.967285,0.732422,3.784180
18087,0.057251,-0.157593,1.036621,-2.990723,0.488281,4.089355
18097,0.042847,-0.153931,0.989990,-2.502441,0.610352,4.699707
18108,0.062500,-0.139038,1.029053,-2.441406,-0.427246,4.455566
18117,0.109985,-0.136475,0.870605,-2.563477,-1.342773,3.662109
18127,0.085205,-0.127686,0.828247,-2.502441,-1.281738,3.051758
18139,0.089600,-0.057007,0.872559,-4.455566,-2.563477,2.624512
18149,0.055176,-0.150269,0.857300,-5.249023,-2.380371,2.746582
18158,0.014893,-0.007324,0.991089,-5.920410,-1.831055,2.502441
18168,-0.023193,-0.075317,0.934814,-5.920410,-2.258301,2.502441
18178,-0.052734,-0.038574,0.950806,-5.798340,-2.441406,2.136230
18188,-0.043091,-0.013306,0.987427,-5.432129,-2.197266,1.770020
18197,0.005371,-0.107300,1.003052,-5.249023,-2.624512,1.647949
18209,0.067993,-0.191528,0.959595,-4.638672,-1.770020,1.647949
18218,0.004150,-0.101074,0.997437,-4.943848,-1.647949,1.403809
18228,0.039551,-0.119751,1.036377,-5.126953,-1.159668,1.281738
18237,-0.012329,-0.147949,0.982422,-5.065918,-1.098633,0.488281
18247,0.062622,-0.078491,1.073608,-5.065918,-1.464844,-0.610352
18257,-0.027222,-0.173340,1.003784,-5.065918,-1.770020,-1.586914
18267,0.043945,-0.069824,1.011841,-4.882812,-1.892090,-2.380371
18277,0.001465,-0.013794,1.046509,-3.784180,-2.624512,-3.906250
18287,0.003052,-0.035522,1.121216,-3.234863,-2.380371,-4.516602
18297,-0.019409,-0.097046,1.071167,-2.990723,-2.441406,-4.821777
18307,-0.037354,-0.088013,1.066650,-2.685547,-1.159668,-4.943848
18317,-0.008667,-0.038696,1.022583,-2.929688,-1.159668,-5.065918
18328,-0.016479,-0.025757,1.019897,-2.746582,-0.976562,-5.126953
18337,0.018188,-0.010986,0.965332,-2.563477,-0.610352,-5.249023
18347,-0.006836,-0.056152,0.959961,-2.258301,-0.610352,-5.310059
18359,0.057129,0.062256,1.043579,-2.197266,-0.366211,-4.699707
18368,0.029175,-0.030884,0.979736,-1.647949,-0.305176,-3.662109
18378,0.059570,-0.100464,0.989014,-1.037598,-0.305176,-2.624512
18387,0.042969,-0.211182,0.963501,-0.793457,-0.244141,-1.342773
18397,0.084351,-0.130981,1.006836,-1.281738,0.000000,-0.183105
18407,0.035522,-0.031250,1.057129,-1.770020,-0.183105,0.793457
18417,0.103394,-0.042603,1.029297,-2.075195,0.061035,2.197266
18428,0.004517,-0.083984,0.901611,-1.342773,0.427246,2.807617
18438,-0.069702,-0.056274,0.966675,-0.732422,0.244141,3.051758
18447,-0.022339,-0.177979,0.916504,0.061035,0.549316,3.417969
18457,-0.042847,-0.159546,0.897461,-0.061035,0.488281,3.784180
18468,-0.028809,-0.055298,0.970337,-0.427246,0.427246,3.906250
18477,-0.019409,-0.163086,0.906982,-0.732422,0.610352,4.089355
18489,-0.015381,-0.191284,0.958984,-0.732422,0.061035,4.455566
18498,-0.032227,-0.104492,1.027832,-0.183105,0.488281,4.577637
18508,0.031616,-0.024048,1.083374,-0.183105,0.061035,4.821777
18517,-0.003906,-0.156494,0.928955,0.366211,-0.061035,5.126953
18527,0.010498,-0.054443,1.018066,0.976562,0.488281,5.371094
18537,0.057617,-0.236084,0.958618,1.220703,0.244141,5.187988
18547,0.028564,-0.180664,0.923218,1.281738,0.122070,5.187988
18557,0.047241,-0.080688,0.993286,0.732422,-0.549316,4.516602
18569,0.031250,-0.030029,1.013916,-0.061035,-0.549316,4.089355
18578,-0.026367,-0.125854,0.993408,-0.122070,-1.159668,3.723145
18588,-0.027588,-0.129883,0.945435,0.000000,-0.793457,3.173828
18597,-0.025269,-0.017456,1.062256,-0.427246,-1.098633,2.685547
18608,-0.012085,-0.123169,1.004028,-0.793457,-0.671387,2.319336
18617,0.010742,-0.036133,1.058960,-1.342773,-0.488281,1.831055
18627,-0.000244,0.028809,1.057373,-1.342773,-0.610352,1.403809
18639,-0.002197,-0.014893,1.028564,-0.915527,-0.488281,1.281738
18648,-0.005981,-0.082520,0.986084,-0.854492,-0.610352,1.037598
18658,-0.012695,-0.064087,0.955933,-1.220703,-1.098633,0.915527
18668,0.025391,0.019775,1.062622,-2.075195,-0.854492,1.159668
18677,0.002563,0.001465,1.018066,-2.502441,-0.915527,1.159668
18688,-0.011353,-0.013916,1.057617,-2.685547,-0.427246,1.220703
18697,0.011475,0.010010,1.067749,-2.258301,-0.427246,1.281738
18708,-0.001465,0.008545,1.042480,-2.319336,-0.549316,1.281738
18718,-0.018066,-0.004272,1.038330,-2.319336,-0.732422,1.037598
18727,-0.004761,-0.031616,1.019043,-2.258301,0.183105,1.342773
18737,-0.004272,-0.001587,1.018188,-2.197266,0.000000,1.708984
18748,0.025513,-0.028442,0.973267,-2.014160,-0.427246,1.525879
18757,0.036987,0.034668,0.975586,-1.892090,0.183105,1.647949
18767,0.015015,-0.013672,0.994385,-1.708984,-0.488281,1.281738
18778,0.019897,-0.016724,1.059448,-0.793457,-0.793457,1.098633
18788,0.036987,-0.075928,1.034058,-0.366211,-1.037598,0.854492
18797,0.010620,-0.029297,1.009399,-0.061035,-1.098633,0.366211
18808,0.028564,-0.111816,0.916382,0.305176,-0.488281,-0.305176
18818,0.048950,-0.052246,0.999268,0.366211,-0.854492,-0.671387
18827,0.031982,-0.130127,0.868774,0.183105,-1.342773,-1.098633
18839,0.013306,-0.139648,0.942871,0.244141,-1.220703,-1.586914
18848,0.026978,-0.067139,0.954224,0.061035,-1.098633,-1.647949
18858,0.030884,-0.189209,0.987183,0.061035,-1.281738,-1.647949
18867,0.027588,-0.117188,0.900757,0.183105,-0.732422,-1.525879
18878,0.028442,-0.146118,0.851929,0.305176,-1.220703,-1.708984
18887,0.076172,-0.050903,0.917847,-0.122070,-1.220703,-1.892090
18897,0.049805,-0.008423,0.946655,-0.915527,-0.854492,-2.136230
18909,0.026245,0.032104,1.044312,-2.075195,-1.708984,-3.295898
18919,-0.038330,0.020264,0.992554,-2.136230,-1.281738,-3.723145
18929,-0.008301,0.065552,1.031250,-2.197266,-1.525879,-3.723145
18938,-0.029663,-0.020874,0.986328,-1.220703,-0.915527,-3.784180
18948,0.010376,0.055054,1.130737,-0.732422,0.061035,-3.356934
18957,-0.019043,-0.081177,1.007202,-1.159668,-0.305176,-3.479004
18967,0.070068,0.107178,1.105591,-1.281738,-0.122070,-3.906250
18979,0.017700,0.095093,1.051514,-1.525879,0.061035,-4.089355
18988,-0.001953,-0.089355,0.918091,-1.037598,-1.281738,-4.150391
18998,0.050781,0.090942,1.074707,-0.671387,0.366211,-4.089355
19007,0.009155,-0.111328,0.912109,-1.037598,-0.854492,-3.723145
19017,0.033325,-0.003662,0.980591,-1.831055,-1.647949,-3.540039
19027,0.029541,-0.032837,0.942627,-2.380371,-0.183105,-3.417969
19037,0.031494,0.054687,0.948364,-3.356934,-0.244141,-2.929688
19047,0.039673,0.049927,0.956055,-3.479004,0.427246,-1.647949
19059,-0.030273,0.095093,1.041016,-3.356934,0.793457,-0.671387
19068,-0.023804,0.012451,1.031128,-3.173828,1.464844,0.671387
19078,-0.030396,0.079834,1.154541,-3.112793,1.647949,1.647949
19087,-0.051392,-0.059937,1.005005,-3.112793,2.380371,2.563477
19097,-0.045044,0.099609,1.083984,-3.234863,2.441406,3.173828
19109,-0.047607,-0.077881,0.929687,-2.075195,3.540039,4.943848
