timestamp,accX,accY,accZ,gyrX,gyrY,gyrZ
13,-0.020020,-0.105591,1.072998,-1.892090,-1.525879,3.112793
22,0.011108,-0.171997,1.034302,-1.342773,-2.075195,1.281738
32,0.064941,-0.137939,1.067139,-0.976562,-2.929688,-1.525879
42,0.048096,-0.119507,1.003418,-1.098633,-4.577637,-4.089355
51,0.024048,-0.142334,1.008911,-1.464844,-5.126953,-6.042480
61,0.037109,-0.075195,1.036377,-1.159668,-5.310059,-7.385254
71,0.033081,-0.098999,1.031372,-0.915527,-4.943848,-8.117676
80,0.011108,-0.140015,0.981934,-0.854492,-5.432129,-8.911133
90,-0.035889,-0.151611,1.006592,-0.671387,-5.065918,-9.277344
100,-0.023804,-0.155396,1.036377,-0.366211,-5.187988,-9.399414
110,-0.032227,-0.108521,0.955933,-0.305176,-5.004883,-9.338379
120,-0.066895,-0.161865,0.936401,-0.244141,-4.760742,-9.521484
131,-0.084595,-0.141357,1.036621,0.427246,-4.577637,-9.338379
141,-0.073608,-0.114380,1.067017,0.122070,-3.784180,-9.277344
150,-0.052124,-0.211548,0.992798,-0.183105,-3.417969,-9.765625
160,-0.024170,-0.099854,1.034790,-0.427246,-3.356934,-9.765625
170,-0.068115,-0.094360,1.042725,-0.183105,-3.173828,-9.521484
181,-0.072510,-0.224487,0.934692,0.244141,-2.380371,-9.094238
191,-0.013550,-0.143066,0.885498,0.000000,-1.831055,-8.300781
201,-0.075684,-0.048828,0.989380,-0.549316,-1.586914,-8.056641
211,-0.136841,-0.040771,0.985840,-0.549316,-1.220703,-7.202148
221,-0.155640,-0.114502,0.967407,0.793457,0.610352,-7.019043
230,-0.131592,-0.128174,0.914062,0.915527,0.915527,-7.202148
241,-0.119507,-0.038330,0.976440,0.671387,0.793457,-7.324219
250,-0.168823,-0.048096,1.057617,0.671387,1.159668,-7.202148
261,-0.149536,-0.069946,0.995483,1.220703,1.892090,-7.080078
270,-0.092529,-0.020142,0.961792,1.525879,2.685547,-7.019043
282,-0.053711,-0.023193,1.008911,1.220703,3.356934,-6.530762
292,-0.069214,-0.033081,0.914429,0.732422,3.540039,-6.103516
301,-0.075317,-0.031616,1.031006,0.000000,4.699707,-5.004883
311,-0.079102,0.034790,1.073486,-0.244141,4.577637,-5.126953
320,-0.087524,0.047119,1.077271,0.183105,4.699707,-5.371094
331,-0.089844,-0.070923,0.986450,1.037598,5.004883,-5.981445
340,-0.051636,-0.127441,0.958374,1.098633,4.943848,-6.591797
352,-0.002075,-0.073486,1.021729,0.793457,5.371094,-7.385254
362,-0.055176,-0.163452,0.918335,0.793457,5.065918,-7.690430
371,0.009766,-0.234131,0.875000,0.854492,5.920410,-7.690430
381,-0.094849,-0.214233,0.873169,0.305176,5.859375,-7.385254
390,-0.138916,-0.073975,1.008911,-0.061035,5.798340,-7.690430
401,-0.054810,-0.097290,1.027954,0.061035,7.080078,-7.812500
411,-0.106445,-0.174805,1.043213,0.427246,8.056641,-8.483887
422,-0.072510,-0.093872,1.108398,0.671387,8.056641,-10.803223
432,-0.046631,-0.144165,1.092163,1.037598,7.873535,-12.390137
441,-0.013306,-0.118774,1.105713,1.220703,7.507324,-13.305664
451,0.013916,-0.117676,1.060913,1.220703,7.141113,-13.793945
461,0.063599,-0.076538,1.120850,1.342773,7.385254,-13.793945
471,0.129517,-0.059570,1.052856,2.014160,7.995605,-12.512207
481,0.197388,-0.146118,1.054688,2.258301,7.751465,-10.375977
491,0.100464,-0.106567,1.114136,2.807617,6.896973,-7.690430
503,0.169678,-0.091553,1.014893,3.479004,6.652832,-6.958008
512,0.102417,-0.170166,1.029419,3.784180,6.347656,-6.530762
522,0.031494,-0.272827,0.938843,4.089355,6.164551,-6.164551
531,-0.016602,-0.308105,0.917603,3.173828,5.981445,-5.249023
540,-0.093262,-0.282959,0.901123,2.319336,6.896973,-4.272461
551,-0.074829,-0.257202,0.938477,1.586914,7.446289,-3.112793
561,-0.050293,-0.261597,0.833130,1.098633,8.117676,-2.380371
570,-0.018677,-0.225342,0.888916,0.122070,7.141113,-4.333496
581,-0.035645,-0.176392,0.962036,0.488281,6.408691,-5.981445
591,0.098267,-0.205811,0.890991,-0.122070,6.591797,-6.469727
601,0.153564,-0.163452,0.918701,-0.671387,6.591797,-5.554199
611,0.050049,-0.089600,0.937012,-0.549316,6.896973,-3.967285
621,-0.010254,-0.213013,0.958252,0.305176,7.080078,-2.136230
631,-0.015381,-0.291992,0.916260,0.793457,7.934570,2.685547
643,0.013184,0.007080,0.980347,-0.610352,9.521484,5.432129
652,-0.025513,-0.022095,1.033081,-0.244141,9.460449,7.202148
662,-0.046387,-0.221191,0.994995,0.244141,8.911133,8.605957
671,-0.035889,-0.175171,0.968994,-0.366211,9.155273,10.070801
681,-0.004517,-0.066772,0.976562,-0.854492,9.765625,11.596680
690,-0.060913,-0.090820,1.050171,-0.915527,9.521484,12.451172
702,-0.073853,-0.114868,1.050171,0.000000,8.972168,13.000488
711,0.013550,-0.213867,0.920166,-0.427246,9.399414,13.549805
721,0.007935,-0.143555,1.005371,-0.793457,9.338379,14.526367
731,-0.050415,-0.171509,0.975586,-0.915527,8.728027,15.441895
741,-0.048218,-0.189331,0.945435,-0.915527,8.605957,16.113281
751,-0.020142,-0.235474,0.947998,-0.854492,8.422852,16.662598
760,0.002808,-0.261475,1.008789,-0.671387,8.605957,16.845703
772,0.015259,-0.192139,1.091675,-0.366211,6.958008,15.075684
782,0.002808,-0.244873,1.100342,0.122070,5.981445,13.732910
791,-0.002075,-0.334717,0.969849,0.122070,5.798340,12.329102
800,-0.014771,-0.152466,1.039795,-0.427246,5.676270,11.047363
811,-0.046021,-0.158569,1.039185,-1.159668,4.943848,9.948730
821,0.032349,-0.140991,1.052246,-1.281738,4.577637,8.789063
831,0.037476,-0.131226,1.019287,-1.403809,4.455566,8.178711
841,0.114380,-0.119751,1.025635,-1.647949,4.211426,6.896973
853,0.114624,-0.130859,1.013916,-3.173828,2.624512,6.225586
862,0.139282,-0.098633,1.023193,-3.967285,2.075195,5.554199
872,0.128052,-0.072021,0.958740,-4.150391,1.281738,4.577637
881,0.116699,0.004883,1.080566,-4.455566,1.281738,4.699707
890,0.108521,-0.079590,1.033203,-4.089355,0.854492,5.554199
901,0.124023,-0.135498,0.920410,-3.784180,0.793457,6.774902
911,0.051636,-0.100220,0.937500,-3.417969,0.793457,8.483887
922,0.071167,-0.102295,1.000000,-2.929688,0.244141,11.413574
932,0.046143,-0.171509,0.954346,-1.586914,0.244141,12.145996
941,0.053955,-0.195435,0.941040,-1.037598,-0.427246,12.023926
951,0.084229,-0.108643,0.941650,-0.915527,-1.098633,11.474609
961,0.032837,-0.188721,0.921997,-0.854492,-1.770020,10.803223
971,0.011230,-0.090088,1.022827,-0.976562,-2.075195,10.070801
980,0.002808,-0.127930,0.932251,-0.671387,-2.136230,9.216309
992,-0.024292,-0.135132,0.920288,-0.610352,-2.807617,8.422852
1002,0.021118,-0.121948,0.980957,-0.183105,-2.502441,8.605957
1011,0.076904,-0.071533,1.003052,0.183105,-2.929688,9.216309
1021,0.157837,-0.183960,0.983154,0.183105,-3.051758,9.826660
1031,0.056641,-0.173950,0.963989,-0.244141,-2.868652,10.986328
1040,-0.005005,-0.108765,0.953369,-0.366211,-2.990723,11.901855
1052,0.021484,-0.092041,1.087402,-0.305176,-3.295898,11.962891
1062,-0.015625,-0.039917,0.991577,-0.244141,-3.356934,11.657715
1071,-0.126709,-0.028564,0.921753,-0.610352,-3.540039,11.962891
1081,-0.228638,0.011963,1.045776,-1.037598,-3.906250,11.779785
1091,-0.140747,-0.053101,1.064087,-1.403809,-3.479004,11.657715
1101,-0.056396,0.000977,1.170654,-2.014160,-2.319336,12.207031
1111,-0.049316,0.005981,1.040161,-2.014160,-1.586914,12.634277
1121,-0.063599,-0.052002,1.052368,-1.647949,-1.403809,12.817383
1132,0.111084,-0.263428,0.973145,-1.220703,-2.868652,11.291504
1142,0.120605,-0.154175,0.965698,-2.319336,-3.417969,10.620117
1151,0.125244,-0.107788,1.030884,-3.173828,-4.577637,10.131836
1161,0.146729,-0.125732,1.073853,-2.990723,-6.225586,9.582520
1171,0.104370,-0.118652,1.177856,-2.502441,-6.652832,9.094238
1180,0.136230,-0.102905,1.181152,-1.770020,-6.652832,8.544922
1192,0.159424,-0.277710,0.955444,-1.220703,-7.995605,7.202148
1202,0.110596,-0.230103,0.952515,-1.464844,-8.911133,6.408691
1212,0.070435,-0.144043,0.975708,-1.159668,-9.460449,5.798340
1221,0.041504,-0.182739,0.948730,-0.549316,-9.460449,5.676270
1231,0.007690,-0.283691,0.897339,-0.427246,-9.887695,4.821777
1241,0.015381,-0.319580,0.874146,-0.915527,-10.009766,3.601074
1251,-0.061523,-0.182251,0.843506,-1.708984,-9.460449,2.685547
1261,-0.055664,-0.085083,0.907959,-1.831055,-9.399414,0.061035
1271,-0.049072,-0.139160,0.992676,-1.098633,-10.192871,-1.403809
1281,-0.020630,-0.199951,1.089111,-0.183105,-10.437012,-3.234863
1291,-0.024414,-0.260254,0.970093,0.122070,-10.437012,-5.371094
1301,0.001099,-0.308472,0.893188,-0.061035,-10.498047,-6.652832
1311,0.071045,-0.229858,0.890137,-0.854492,-10.681152,-7.629395
1321,0.060181,-0.251465,0.829346,-1.281738,-10.986328,-8.178711
1332,0.061646,-0.232544,0.914795,-1.281738,-10.925293,-8.666992
1342,0.077026,-0.231567,0.910156,-1.770020,-10.314941,-8.117676
1351,0.047852,-0.250488,0.906250,-2.197266,-9.704590,-7.507324
1361,0.007202,-0.189819,0.905273,-2.563477,-9.582520,-7.324219
1371,-0.015259,-0.167969,0.843628,-2.746582,-9.399414,-7.446289
1381,0.047241,-0.100342,1.043335,-2.990723,-8.972168,-7.690430
1391,0.010620,-0.164062,1.009033,-3.112793,-9.704590,-8.056641
1401,-0.025269,-0.055786,1.039429,-3.051758,-10.009766,-9.216309
1411,0.002197,-0.132812,1.139893,-2.563477,-9.094238,-9.521484
1421,-0.032349,0.000000,1.011108,-2.624512,-8.972168,-9.399414
1431,-0.102905,-0.125488,0.874878,-2.441406,-8.300781,-8.911133
1441,-0.112061,-0.036011,1.004150,-2.563477,-7.629395,-8.361816
1452,-0.119507,-0.185181,1.006958,-2.685547,-6.774902,-7.568359
1461,-0.134644,0.040039,1.049438,-2.868652,-5.859375,-7.324219
1471,-0.098389,0.079468,1.143433,-2.929688,-5.249023,-7.446289
1483,-0.157593,-0.093750,1.081665,-1.403809,-4.760742,-8.117676
1492,-0.136475,-0.141724,1.004639,-1.281738,-4.821777,-9.094238
1502,-0.048462,-0.103027,1.028442,-0.976562,-4.150391,-10.375977
1512,-0.099243,-0.228271,0.932495,-1.586914,-3.845215,-11.169434
1522,-0.056885,-0.004761,0.953247,-3.173828,-3.479004,-11.779785
1531,-0.025635,-0.061890,0.998901,-3.784180,-3.540039,-12.512207
1541,0.042603,-0.039795,0.979370,-3.845215,-3.540039,-14.038086
1551,0.054565,-0.052368,0.965088,-3.845215,-3.112793,-14.526367
1562,0.119873,-0.114868,0.973022,-3.601074,-3.356934,-15.197754
1571,0.028931,-0.080078,0.963379,-3.540039,-3.906250,-16.174316
1581,0.043701,-0.130005,0.988770,-3.051758,-3.845215,-16.723633
1592,0.028687,-0.055908,1.041748,-2.624512,-3.784180,-17.639160
1602,0.033081,-0.193359,1.037109,-1.770020,-3.295898,-18.859863
1611,-0.002930,-0.206665,0.982666,-1.708984,-3.601074,-20.507812
1623,-0.033081,-0.202271,0.969360,-1.281738,-2.807617,-21.301270
1633,0.013306,-0.055298,1.014038,-0.915527,-2.807617,-22.521973
1642,-0.025391,-0.220459,0.905884,-0.061035,-2.807617,-23.742676
1653,0.004761,-0.074707,0.961548,0.183105,-2.441406,-24.536133
1662,-0.008789,-0.227173,0.954346,0.488281,-2.258301,-24.353027
1672,-0.038330,-0.097656,0.931519,0.732422,-1.525879,-23.864746
1681,-0.109375,-0.176392,0.896484,1.098633,14.648438,-22.338867
1693,-0.051758,-0.125122,1.006714,1.647949,1.464844,-20.996094
1702,-0.062256,-0.105713,0.994019,1.708984,2.075195,-20.019531
1712,-0.054687,-0.058472,1.035156,2.075195,3.051758,-18.981934
1722,-0.030884,-0.261230,0.921997,2.319336,3.967285,-17.944336
1731,-0.003052,-0.197998,0.861450,1.892090,4.577637,-16.845703
1741,-0.052246,-0.150269,0.931519,1.159668,4.821777,-15.380859
1754,-0.074707,-0.072510,0.980591,-0.305176,6.286621,-12.207031
1763,-0.056030,-0.052979,0.921143,-0.183105,6.958008,-10.437012
1773,-0.102417,-0.166748,0.935669,-0.366211,8.483887,-8.483887
1783,-0.096313,-0.139404,0.942017,-1.037598,9.399414,-6.896973
1792,-0.075928,-0.050049,0.987061,-1.708984,9.948730,-5.249023
1802,-0.044800,-0.010620,1.110840,-1.831055,10.925293,-3.601074
1812,-0.152954,-0.036621,1.218628,-1.220703,10.375977,-2.197266
1823,-0.141113,-0.242920,0.880371,-0.183105,10.620117,-0.183105
1833,-0.134521,-0.250610,0.783447,-0.305176,12.084961,1.281738
1842,-0.134155,-0.239502,0.813110,-1.647949,13.793945,3.417969
1852,-0.076050,-0.071533,0.940674,-2.685547,14.160156,5.249023
1862,-0.047729,-0.039795,0.987793,-2.685547,14.709473,6.347656
1872,-0.046631,-0.185059,0.955933,-2.197266,13.610840,6.774902
1882,-0.078491,-0.285034,0.850464,-2.014160,13.671875,7.141113
1891,0.003296,-0.283936,0.845581,-2.868652,12.878418,7.995605
1903,0.092407,-0.197510,0.960327,-4.089355,12.939453,9.399414
1912,0.081299,-0.028809,1.113159,-3.723145,12.451172,10.803223
1921,0.068481,-0.204956,1.039429,-2.929688,11.779785,11.718750
1932,0.078369,-0.423950,0.801025,-3.051758,11.474609,12.329102
1941,0.067017,-0.177856,0.970215,-4.394531,10.864258,13.305664
1952,0.015503,-0.126343,1.000244,-5.065918,10.192871,14.099121
1961,0.046631,-0.171509,1.075562,-3.601074,9.399414,13.122559
1973,0.003296,-0.202393,1.163818,-3.234863,8.239746,11.230469
1983,0.007446,-0.188354,1.175537,-3.234863,7.080078,8.911133
1992,0.065308,-0.048584,1.074951,-3.173828,6.164551,7.080078
2001,0.042725,-0.173218,0.977783,-2.502441,5.737305,6.103516
2012,0.023926,-0.280029,0.900391,-1.831055,5.554199,6.164551
2022,0.080933,-0.232666,0.983154,-1.831055,5.920410,7.080078
2033,0.110962,0.036499,1.025146,-2.563477,5.249023,8.789063
2042,0.062744,0.057007,1.086548,-3.723145,3.906250,8.422852
2052,0.140747,-0.032593,1.050537,-3.356934,3.295898,7.690430
2061,0.081543,0.102417,1.174805,-2.685547,2.258301,6.469727
2072,0.074585,0.029175,1.205688,-1.281738,1.770020,5.249023
2082,0.031006,-0.115356,1.151367,-0.061035,0.915527,4.821777
2092,0.031128,-0.051270,1.112793,0.244141,1.098633,4.943848
2101,0.014282,0.034424,1.030029,1.220703,0.854492,6.286621
2113,-0.002930,-0.247437,0.815186,1.525879,0.732422,7.019043
2122,-0.059692,0.011719,0.849609,0.000000,0.793457,7.202148
2132,-0.070679,-0.067871,0.799072,-1.037598,1.342773,7.202148
2141,-0.125977,-0.070557,0.799316,-2.258301,1.586914,6.774902
2152,-0.051636,-0.067871,0.735229,-2.746582,1.525879,5.371094
2161,-0.061523,-0.005127,0.778687,-2.746582,1.403809,4.455566
2173,0.009766,-0.077271,1.004761,-3.112793,1.403809,3.845215
2183,-0.030762,-0.072266,1.229004,-2.990723,1.342773,3.112793
2197,-0.007813,0.046997,1.151611,-1.708984,0.427246,1.403809
2208,-0.003540,-0.263306,0.863403,3.112793,1.403809,1.770020
2218,-0.008911,-0.131226,1.007446,3.906250,0.671387,1.831055
2227,-0.058838,-0.278076,0.968384,3.112793,0.488281,2.075195
2236,0.033081,-0.226685,0.869507,1.159668,0.854492,2.990723
2246,0.125000,-0.020508,0.969482,-0.183105,1.525879,4.516602
2255,0.079346,-0.015747,0.915161,-0.244141,1.464844,5.920410
2264,0.009766,-0.165527,0.907471,0.366211,0.915527,6.774902
2274,0.004028,-0.163818,1.078125,0.000000,0.671387,7.385254
2283,0.081909,-0.219604,1.105713,-1.220703,0.732422,8.422852
2292,0.124146,-0.120850,1.127563,-2.319336,1.037598,9.643555
2302,-0.044922,0.142212,1.133301,-2.380371,-0.244141,10.437012
2312,-0.080322,-0.129150,1.016479,-0.549316,-0.976562,11.596680
2323,-0.000366,-0.033203,1.052490,-1.098633,-0.061035,12.695313
2333,-0.038818,-0.021240,1.104736,-1.098633,0.183105,13.977051
2342,-0.054077,-0.314453,0.925781,-0.732422,0.122070,14.587402
2352,-0.062866,-0.260864,0.957520,-0.671387,0.183105,14.160156
2362,-0.071289,-0.190308,1.009277,-1.220703,0.000000,13.366699
2372,-0.032959,-0.180420,1.052490,-2.502441,-0.183105,12.634277
2382,0.011475,-0.174561,1.017090,-3.662109,-1.953125,10.131836
2392,0.073730,-0.064697,1.020508,-3.906250,-3.417969,8.911133
2402,-0.002686,-0.225098,0.947510,-3.967285,-3.845215,7.568359
2411,0.054077,0.094604,1.080933,-3.845215,-3.479004,6.408691
2422,0.004883,0.079834,1.133301,-2.929688,-3.417969,5.615234
2431,-0.068726,-0.233521,0.942993,-2.319336,-3.173828,4.943848
2441,-0.081177,-0.142456,0.922607,-1.708984,-3.234863,4.455566
2453,-0.123413,-0.295654,0.993042,-0.732422,-2.502441,4.211426
2463,-0.133057,-0.410889,0.900269,0.732422,-2.258301,4.699707
2473,-0.113525,-0.145264,0.979370,1.098633,-1.953125,5.065918
2483,-0.152100,-0.224609,0.974854,1.281738,-1.342773,5.981445
2492,-0.172363,-0.400757,0.868042,0.854492,-0.427246,6.286621
2502,-0.174194,-0.205200,0.896851,0.000000,0.122070,6.530762
2511,-0.123169,-0.054932,0.944580,-0.305176,0.671387,6.835937
2523,-0.144531,-0.215454,0.774048,0.000000,0.915527,6.408691
2533,-0.045532,0.017334,0.927979,-1.037598,1.464844,6.347656
2542,-0.006714,-0.068604,0.962280,-1.281738,1.892090,6.652832
2552,-0.069458,-0.235596,0.869995,-1.281738,1.586914,5.859375
2562,-0.046875,-0.132324,0.893921,-1.098633,1.770020,4.882812
2572,0.010498,0.081665,0.986816,-1.647949,1.220703,3.906250
2582,-0.015869,-0.082153,0.961792,-2.441406,1.159668,2.502441
2593,0.038208,0.120361,1.097656,-3.417969,0.366211,-0.671387
2603,0.093872,0.162842,1.192871,-4.699707,-0.122070,-2.319336
2613,0.093872,0.108398,1.157959,-4.272461,-0.854492,-4.211426
2622,0.130127,0.107056,1.143799,-3.601074,-1.342773,-5.371094
2632,0.159668,0.058594,1.180176,-2.807617,-0.915527,-5.371094
2642,0.171021,-0.047729,1.106445,-1.953125,-0.915527,-5.310059
2652,0.121216,-0.169312,0.928345,-1.464844,-1.281738,-5.554199
2663,0.155518,-0.052368,0.852539,-1.647949,-1.770020,-5.554199
2673,0.127808,-0.253540,0.828247,-3.845215,-3.356934,-6.225586
2683,0.098633,-0.209717,0.949463,-5.065918,-3.662109,-7.019043
2692,0.102051,0.055664,1.133301,-5.920410,-3.845215,-7.385254
2702,0.079224,-0.149048,1.176270,-5.493164,-3.906250,-8.544922
2712,0.021851,-0.331299,1.084473,-4.821777,-4.150391,-9.765625
2721,0.026733,-0.140747,1.057617,-3.967285,-3.417969,-10.742188
2733,-0.021240,-0.221436,0.909180,-3.479004,-2.868652,-11.474609
2743,-0.145508,-0.206665,0.857300,-3.295898,-2.319336,-10.925293
2753,-0.064087,-0.019653,0.884888,-3.234863,-1.647949,-10.192871
2763,-0.015503,-0.151245,0.934570,-3.173828,-0.732422,-9.155273
2773,-0.071533,-0.105957,0.922607,-3.723145,-0.305176,-8.239746
2782,0.002319,-0.053955,1.070435,-3.540039,0.549316,-6.896973
2792,-0.010864,0.026123,1.078857,-3.112793,0.976562,-5.615234
2803,-0.053955,-0.162354,0.923584,-2.075195,2.014160,-3.479004
2813,0.020508,0.031494,0.924194,-1.770020,3.356934,-2.563477
2823,-0.033325,-0.025024,1.033203,-1.098633,2.990723,-2.136230
2833,-0.109863,-0.110352,1.044434,-0.427246,3.295898,-2.197266
2843,-0.119263,-0.138916,1.072388,0.610352,3.479004,-2.929688
2853,-0.058228,-0.168091,1.064697,1.464844,3.967285,-3.356934
2862,-0.056763,-0.093140,1.020386,2.075195,4.211426,-3.784180
2873,0.019409,-0.259277,0.775757,2.441406,4.638672,-3.112793
2883,0.066772,-0.236694,0.753174,2.990723,5.187988,-1.770020
2892,0.037598,-0.310547,0.775146,1.892090,5.126953,-0.305176
2902,0.059937,-0.311279,0.700317,0.305176,5.065918,1.220703
2912,0.081177,-0.272827,0.702393,-1.464844,4.943848,2.502441
2922,0.047119,-0.143677,0.811890,-3.173828,5.187988,3.662109
2933,0.020752,-0.037354,0.897583,-5.371094,5.554199,4.943848
2943,0.019897,-0.015503,1.104126,-5.310059,5.615234,5.187988
2952,0.008057,-0.060059,1.190063,-4.577637,5.249023,5.126953
2962,0.002441,-0.218750,1.159912,-3.601074,4.943848,5.615234
2972,0.028320,-0.283325,1.047607,-2.685547,4.699707,6.225586
2982,-0.043091,-0.276733,1.098633,-2.197266,4.394531,7.690430
2992,-0.031616,-0.188110,1.000977,-2.197266,4.943848,9.765625
3005,0.001587,-0.121094,1.026367,-2.807617,6.164551,11.962891
3014,-0.052856,-0.243408,1.012573,-2.929688,5.310059,11.047363
3024,0.023315,-0.178345,0.998657,-3.540039,4.333496,9.033203
3033,0.035400,-0.045410,1.046631,-3.417969,3.295898,7.019043
3043,0.025879,0.003784,1.119141,-2.807617,3.173828,5.249023
3052,0.069458,0.011230,1.129272,-2.441406,2.807617,4.699707
3062,0.153931,0.067871,1.077148,-2.258301,2.746582,4.516602
3074,0.134644,-0.098267,1.003784,-1.525879,1.586914,5.859375
3084,0.135376,-0.011841,0.982056,-1.770020,1.770020,6.958008
3093,0.055298,0.104858,1.151001,-1.892090,1.586914,7.507324
3103,0.031616,0.014160,1.166260,-1.586914,1.220703,7.995605
3112,0.000000,-0.067383,1.033447,-1.037598,1.342773,8.239746
3122,-0.045654,-0.104858,0.988770,-1.037598,0.671387,8.361816
3133,-0.105347,-0.126343,0.947876,-1.159668,0.854492,8.422852
3142,-0.042358,-0.087158,0.947021,-2.563477,0.793457,9.582520
3152,-0.070923,0.035645,0.963379,-2.380371,0.671387,9.460449
3163,-0.081299,-0.099243,0.868286,-1.708984,1.281738,9.887695
3172,-0.026855,-0.244019,0.866333,-1.037598,2.014160,10.437012
3182,0.006592,-0.105591,0.955322,-0.732422,1.953125,10.925293
3192,0.021851,-0.034058,1.112793,-0.305176,2.624512,11.230469
3202,0.057129,-0.093140,1.145386,0.549316,2.258301,11.596680
3214,0.104858,-0.201782,1.120972,3.479004,0.366211,11.474609
3224,0.077637,-0.346802,1.008789,5.126953,-0.488281,11.413574
3233,0.100708,-0.366821,0.960083,5.798340,-0.915527,11.596680
3243,0.106934,-0.221313,0.876953,4.943848,-1.464844,12.023926
3252,0.084961,-0.129639,0.868042,4.272461,-1.464844,12.878418
3262,0.122925,-0.039063,0.943359,3.295898,-1.770020,13.366699
3272,0.048462,0.040894,1.043457,2.441406,-2.197266,13.244629
3282,0.049683,0.124756,1.173340,2.563477,-3.356934,11.901855
3293,0.070557,-0.172363,1.176758,3.723145,-5.493164,8.178711
3303,0.010498,-0.263062,1.036133,5.310059,-6.164551,6.652832
3312,0.000366,-0.214233,0.912720,5.493164,-5.859375,6.042480
3322,0.001953,-0.105835,0.877197,4.821777,-5.432129,5.920410
3333,0.032959,-0.132568,0.880493,3.540039,-5.676270,5.920410
3342,0.032593,-0.229370,0.816284,2.319336,-5.798340,5.065918
3355,0.058105,-0.167969,0.982666,-0.183105,-6.347656,1.892090
3364,0.061768,-0.158081,1.038330,-0.610352,-7.202148,-0.427246
3374,0.101074,-0.137085,1.010010,-1.159668,-7.934570,-2.746582
3384,0.111450,-0.111450,1.005371,-1.464844,-8.728027,-4.943848
3393,0.095947,-0.123169,0.974731,-2.258301,-9.216309,-6.530762
3403,0.055420,-0.131958,0.959229,-2.258301,-9.277344,-7.385254
3412,0.059814,-0.128906,0.953247,-1.953125,-9.277344,-7.812500
3422,0.022339,-0.183350,0.917358,-1.281738,-8.361816,-8.056641
3434,0.021606,-0.236328,0.890137,-0.915527,-7.507324,-7.995605
3443,-0.015259,-0.255371,0.927856,-1.281738,-6.774902,-7.934570
3453,-0.085815,-0.224243,0.944824,-1.342773,-6.530762,-8.056641
3463,-0.102173,-0.227783,0.993530,-0.732422,-5.798340,-8.300781
3472,-0.077271,-0.216675,1.004517,-0.488281,-5.859375,-8.483887
3482,-0.156982,-0.215454,0.987061,-0.732422,-5.004883,-8.544922
3495,-0.127930,-0.080566,1.018555,-2.258301,-2.136230,-6.164551
3505,-0.135986,-0.011719,1.053223,-2.563477,-0.732422,-5.004883
3515,-0.195557,-0.035400,1.071167,-2.075195,0.244141,-3.784180
3524,-0.138306,-0.050903,1.069824,-1.220703,1.159668,-2.685547
3534,-0.118408,-0.081421,1.042725,-0.610352,2.075195,-1.770020
3543,-0.091309,-0.130005,1.009399,-0.610352,2.807617,-0.610352
3553,-0.061035,-0.102295,0.995239,-1.586914,3.662109,1.220703
3562,-0.019775,0.062378,1.031494,-3.723145,3.479004,3.295898
3572,0.009521,0.134155,1.030273,-4.089355,3.356934,3.723145
3583,0.037598,0.143188,1.035034,-4.455566,3.112793,4.516602
3592,0.032471,0.018066,0.939697,-4.577637,2.929688,4.760742
3602,0.002808,-0.020630,0.991455,-4.333496,3.540039,4.882812
3612,-0.004761,0.009033,1.010132,-4.394531,3.356934,5.065918
3623,0.032715,-0.011597,1.023315,-3.662109,2.746582,4.882812
3632,0.001831,-0.040771,1.006836,-3.234863,2.197266,4.333496
3643,-0.004761,-0.315552,0.836304,-2.258301,2.136230,3.662109
3653,-0.022583,-0.340332,0.790894,-2.929688,1.770020,3.173828
3663,-0.025757,-0.171875,0.872314,-3.845215,2.014160,2.746582
3673,-0.054687,-0.062134,0.937866,-4.272461,1.403809,1.647949
3682,-0.087524,-0.037109,1.086182,-3.967285,1.708984,0.610352
3693,-0.033081,-0.154663,1.040894,-2.624512,1.953125,-0.122070
3702,-0.011353,-0.312988,0.975708,-1.037598,2.380371,-0.671387
3712,-0.126709,-0.296631,1.020996,-0.915527,2.624512,-0.549316
3722,-0.065674,-0.134766,0.947632,0.183105,3.234863,0.427246
3733,-0.068481,-0.175293,0.874390,0.854492,4.211426,1.098633
3742,-0.004517,-0.172485,0.952637,0.610352,5.004883,1.708984
3753,0.038208,-0.132202,0.970703,-0.610352,5.004883,2.441406
3762,0.008911,-0.054321,1.047729,-1.708984,5.310059,2.807617
3775,-0.003906,-0.101685,0.931274,-2.197266,4.577637,2.502441
3784,0.029175,-0.102905,0.890991,-2.075195,5.065918,2.197266
3794,0.077026,-0.014771,0.985474,-2.990723,4.882812,2.502441
3804,0.052124,0.039673,1.028076,-3.662109,5.310059,3.173828
3813,0.069824,-0.014282,0.996704,-3.662109,5.493164,3.601074
3823,0.010376,-0.116943,1.008179,-3.601074,4.333496,4.089355
3832,0.011597,-0.129272,0.986572,-3.295898,4.455566,4.394531
3845,0.023437,-0.014893,1.125977,-3.417969,3.906250,5.249023
3854,-0.008301,-0.094238,1.135742,-2.868652,4.089355,5.371094
3864,-0.016968,-0.129150,1.056641,-2.563477,4.211426,5.249023
3874,0.079224,-0.205200,0.965942,-2.075195,4.333496,5.249023
3883,-0.003906,-0.350342,0.933472,-1.647949,4.211426,5.432129
3892,0.010620,-0.342041,0.826294,-1.770020,4.028320,5.371094
3902,0.053223,-0.266113,0.825684,-2.258301,3.784180,5.859375
3915,0.057007,0.006592,1.064331,-3.051758,2.624512,5.554199
3924,0.089844,-0.042358,1.098145,-2.380371,2.624512,5.676270
3933,0.033203,-0.110474,1.015259,-1.281738,2.746582,5.432129
3943,-0.049561,-0.267700,0.964355,-0.549316,2.563477,5.493164
3952,0.026001,-0.240234,0.852051,-1.281738,2.319336,6.042480
3963,0.034546,-0.188721,0.849243,-2.258301,2.807617,7.141113
3973,0.029663,-0.124023,0.947632,-2.624512,2.441406,9.033203
3983,0.081177,-0.089478,0.944824,-2.319336,2.563477,9.704590
3992,0.004761,-0.008179,1.090332,-2.563477,2.136230,9.399414
4002,0.055908,0.013794,1.189209,-2.746582,1.892090,9.094238
4013,0.048706,0.063843,1.163086,-2.502441,1.403809,9.033203
4023,0.005615,-0.063477,1.046753,-1.953125,1.037598,9.521484
4032,0.010498,-0.020020,1.120605,-0.793457,1.098633,10.253906
4043,0.050293,-0.074951,0.996338,-0.366211,1.281738,12.023926
4052,0.001831,-0.064453,0.988525,-0.427246,1.342773,15.014648
4064,0.015015,-0.084106,0.917603,-0.366211,1.464844,16.235352
4073,-0.013672,-0.005249,0.938843,-0.366211,1.464844,16.662598
4083,-0.064209,-0.067871,0.937012,-0.488281,1.098633,16.662598
4093,-0.101685,-0.068481,1.079834,-0.610352,1.281738,16.296387
4102,-0.112671,-0.043091,1.081055,-0.854492,0.488281,15.869141
4113,-0.103516,-0.041504,1.033325,-0.976562,0.671387,15.625000
4122,-0.131836,-0.108154,0.982544,-1.281738,0.732422,15.869141
4134,0.028809,-0.103638,0.964966,-1.647949,0.854492,15.747070
4144,0.071777,-0.118164,0.999146,-1.708984,0.549316,15.686035
4153,0.128662,-0.056152,1.061279,-1.586914,-0.305176,15.319824
4163,0.168457,0.059814,1.066650,-1.281738,-1.281738,14.770508
4173,0.170776,-0.067261,1.073975,-0.122070,-2.319336,14.343262
4182,0.190063,-0.186157,1.041504,0.793457,-3.662109,13.610840
4195,0.152100,-0.070679,0.963623,0.122070,-5.798340,11.962891
4205,0.154785,-0.078613,0.930054,-0.366211,-6.530762,11.413574
4214,0.147461,-0.118042,0.821899,-0.976562,-7.324219,10.620117
4224,0.045898,-0.200928,0.814209,-1.342773,-8.239746,8.728027
4233,0.078003,-0.100098,0.905396,-2.197266,-8.972168,6.530762
4243,0.079224,-0.093872,1.005249,-2.441406,-9.460449,4.028320
4252,0.079590,-0.102661,0.968750,-2.197266,-10.559082,1.342773
4265,0.097290,-0.085815,1.056885,-1.647949,-11.413574,-2.685547
4274,0.050903,-0.089233,1.119263,-1.586914,-11.596680,-3.845215
4284,0.076660,-0.144531,1.023438,-0.915527,-11.596680,-4.943848
4293,0.040283,-0.295288,0.945923,-0.305176,-11.413574,-5.859375
4303,0.155884,-0.288452,0.955200,-1.098633,-11.047363,-6.652832
4313,0.046143,-0.199951,0.988647,-1.953125,-11.108398,-7.507324
4322,0.096313,-0.214355,0.981689,-1.953125,-11.840820,-8.605957
4335,0.036743,-0.257813,0.973022,-2.197266,-12.145996,-11.108398
4345,0.063843,-0.173462,0.978516,-2.380371,-11.596680,-12.207031
4354,0.038696,-0.149902,1.032349,-2.441406,-11.047363,-12.329102
4364,-0.012207,-0.115112,0.998779,-2.014160,-10.620117,-12.634277
4374,-0.076782,-0.286743,0.949341,-0.915527,-9.948730,-12.695313
4383,-0.054565,-0.170898,0.961426,-1.220703,-9.033203,-11.962891
4393,-0.111816,-0.074341,1.057373,-1.708984,-8.056641,-11.230469
4403,-0.135376,-0.073486,1.080078,-1.342773,-5.676270,-9.399414
4413,-0.150757,-0.172974,0.923462,-1.586914,-5.065918,-8.422852
4422,-0.113770,-0.200439,0.896973,-1.953125,-3.906250,-7.507324
4433,-0.086182,-0.163086,0.854980,-2.685547,-3.051758,-6.591797
4443,-0.061157,-0.155884,0.797485,-3.845215,-1.831055,-5.615234
4452,-0.096802,-0.199463,0.693848,-5.310059,-1.464844,-4.943848
4463,-0.042114,-0.206299,0.661621,-6.408691,-0.976562,-4.028320
4473,-0.044678,-0.057739,0.789673,-7.751465,0.122070,-2.563477
4482,-0.051880,0.004395,0.943848,-7.873535,0.671387,-2.075195
4493,-0.018799,-0.034058,0.980347,-7.568359,0.732422,-1.770020
4502,-0.073730,0.090698,1.001831,-7.324219,0.732422,-1.647949
4512,-0.060669,0.019043,0.974731,-6.652832,0.976562,-2.014160
4523,-0.060181,0.007202,1.045288,-5.981445,1.464844,-2.075195
4532,-0.073730,0.063965,1.154785,-5.615234,1.770020,-2.075195
4545,-0.020874,-0.092896,0.957764,-3.601074,2.319336,-1.586914
4554,0.010254,-0.113892,0.941895,-3.356934,2.746582,-1.098633
4564,0.042358,0.032959,1.058472,-3.845215,2.319336,-0.793457
4573,0.066284,-0.002197,1.062012,-3.356934,2.197266,-0.183105
4583,0.091675,-0.181152,0.955688,-2.319336,1.953125,0.305176
4593,0.047852,-0.226074,0.969971,-1.464844,1.953125,0.915527
4602,0.012939,-0.130737,1.063110,-1.831055,2.136230,1.159668
4615,-0.029053,-0.104858,1.026611,-2.929688,1.892090,1.342773
4625,-0.030396,-0.048462,0.990723,-3.234863,1.892090,1.220703
4634,-0.027588,-0.100342,1.052368,-3.234863,1.892090,1.342773
4644,-0.075317,-0.216919,1.111816,-2.929688,2.197266,1.342773
4654,-0.041748,-0.051636,1.151611,-3.723145,2.441406,1.403809
4663,-0.066650,-0.029419,1.214600,-3.906250,2.929688,1.770020
4673,-0.041992,-0.057983,1.188232,-3.540039,3.540039,2.136230
4682,-0.023682,-0.006470,1.096558,-3.173828,3.295898,2.075195
4694,0.010376,-0.022705,1.072998,-1.037598,3.051758,1.831055
4703,-0.056152,-0.082764,1.061035,0.183105,3.112793,1.586914
4712,-0.025879,-0.052979,0.995605,1.403809,3.540039,1.342773
4722,-0.053345,-0.190063,0.946533,3.173828,4.272461,1.220703
4733,-0.045654,-0.251587,0.874390,4.821777,4.089355,0.000000
4742,0.055176,-0.331665,0.884521,5.615234,4.089355,-0.427246
4755,0.062744,-0.352783,0.844727,4.943848,2.258301,-1.281738
4764,0.104004,-0.241089,0.872681,4.577637,2.014160,-0.976562
4773,0.098633,-0.215332,0.993408,4.333496,2.075195,-1.098633
4783,-0.005859,-0.062012,1.059937,4.028320,2.319336,-1.159668
4792,0.043945,-0.170654,1.098999,4.699707,2.990723,-1.281738
4802,0.015137,-0.215332,0.978882,4.943848,2.990723,-1.037598
4813,0.003784,-0.164551,0.912598,4.089355,2.990723,-0.305176
4822,0.068115,-0.021729,0.939453,3.479004,2.868652,3.601074
4834,0.050049,-0.190308,0.856323,3.295898,2.807617,6.164551
4843,0.137451,-0.079468,0.896484,2.014160,2.685547,8.483887
4852,0.116699,-0.035645,1.064087,0.915527,2.990723,10.131836
4863,0.042114,0.069702,1.151489,0.305176,2.258301,10.131836
4872,0.046143,0.092896,1.256958,0.732422,1.831055,10.192871
4883,-0.005249,-0.022339,1.375488,1.770020,0.915527,9.704590
4893,-0.009155,-0.034180,1.315918,4.150391,0.488281,10.253906
4904,-0.077148,-0.114746,1.095581,5.004883,0.854492,10.742188
4914,-0.093628,-0.239014,0.903687,5.249023,1.159668,11.352539
4923,-0.039185,-0.158325,0.784180,3.601074,0.732422,11.474609
4932,-0.018433,-0.066528,0.793335,1.281738,0.915527,10.681152
4943,0.042603,-0.083984,0.905151,-1.037598,0.915527,9.277344
4952,0.000854,-0.075562,0.973755,-2.746582,0.427246,7.934570
4965,0.034302,-0.163208,1.022583,-4.638672,-0.305176,4.272461
4975,0.042969,-0.279907,0.891357,-4.333496,-0.793457,2.807617
4984,0.048096,-0.226685,0.866699,-4.699707,-1.159668,2.075195
4994,0.080444,-0.134888,0.899292,-4.699707,-0.915527,1.586914
5003,0.034546,-0.076904,0.973145,-4.455566,-1.281738,1.281738
5013,-0.022583,-0.103516,1.036011,-3.906250,-1.342773,0.122070
5023,-0.011475,-0.058472,1.051758,-3.051758,-0.671387,-1.281738
5032,-0.046143,-0.095825,1.088135,-1.281738,-0.732422,-3.845215
5043,0.000854,-0.173096,0.965698,-1.159668,-0.366211,-4.577637
5053,-0.020020,-0.104004,0.988647,-1.281738,-0.244141,-5.065918
5063,-0.043701,-0.070923,0.959473,-1.159668,-0.061035,-5.493164
5073,-0.020508,-0.099365,0.926636,-1.037598,0.366211,-5.432129
5083,-0.029175,-0.056396,0.920776,-1.220703,0.488281,-5.554199
5094,0.008301,0.017090,0.992065,-0.793457,1.953125,-5.126953
5104,0.040649,-0.049316,0.910278,-0.366211,1.464844,-4.821777
5113,0.069092,-0.169800,0.902222,-0.366211,1.281738,-3.906250
5123,0.075806,-0.247070,0.888794,-0.793457,2.136230,-2.929688
5132,0.016113,-0.087036,0.995850,-2.197266,1.892090,-1.831055
5143,0.022217,0.039673,1.084106,-3.540039,1.953125,-0.793457
5153,-0.008179,0.072266,1.126465,-4.455566,2.075195,0.244141
5164,-0.024048,0.097534,1.120117,-4.333496,3.540039,2.258301
5174,-0.012207,0.026001,1.053467,-4.211426,3.906250,3.173828
5184,0.053711,0.044067,1.182617,-4.211426,3.723145,4.089355
5193,0.118042,0.043945,1.195068,-4.089355,3.845215,4.760742
5203,0.144531,0.026001,1.208374,-3.723145,2.746582,5.554199
5213,0.105103,-0.015747,1.116943,-3.295898,1.586914,6.042480
5223,0.080322,-0.046021,1.034668,-2.624512,1.342773,6.774902
5234,0.083618,-0.059082,1.008057,-1.708984,0.732422,8.178711
5244,0.057617,-0.229126,0.867920,-1.037598,0.610352,9.155273
5254,-0.006226,-0.261597,0.806396,-0.549316,0.610352,9.948730
5264,-0.049927,-0.275024,0.781616,-0.488281,0.549316,10.559082
5274,-0.043091,-0.169556,0.902466,-1.342773,0.488281,10.498047
5283,-0.033569,-0.115723,1.043579,-2.258301,0.427246,10.253906
5292,-0.083984,-0.154297,0.905518,-3.112793,0.244141,10.070801
5304,-0.113403,-0.153931,0.727295,-5.126953,0.671387,10.498047
5314,-0.079346,0.063477,0.886475,-6.164551,1.098633,11.108398
5323,-0.048706,0.122559,1.047974,-5.859375,1.403809,12.084961
5333,-0.046143,0.017944,1.104126,-4.211426,1.647949,12.939453
5343,-0.042358,-0.038330,1.121216,-3.112793,1.220703,13.244629
5353,-0.002075,0.013184,1.249390,-2.319336,1.403809,13.244629
5363,0.014282,0.037598,1.271484,-1.037598,1.525879,13.549805
5372,0.019165,-0.052490,1.178223,0.427246,1.281738,13.488770
5385,0.074219,-0.142212,1.129028,1.953125,0.061035,12.817383
5394,0.019287,-0.195679,1.102661,2.380371,-1.464844,11.657715
5404,0.038696,-0.181641,1.019165,2.136230,-2.136230,9.887695
5413,0.035889,-0.191895,0.920532,1.281738,-2.624512,8.666992
5422,0.085083,-0.170898,0.818848,0.183105,-2.868652,7.263184
5433,0.094116,-0.115601,0.775757,-1.098633,-2.746582,6.042480
5443,0.074341,-0.136475,0.801270,-2.197266,-2.868652,5.004883
5454,0.045166,-0.035767,0.998413,-2.929688,-4.516602,2.441406
5464,0.027222,-0.039063,1.024292,-4.150391,-4.638672,1.098633
5473,0.025146,-0.024658,1.024414,-4.821777,-4.760742,0.000000
5482,0.026855,0.015869,0.975830,-4.943848,-4.333496,-1.342773
5493,-0.023193,0.008911,0.974121,-5.432129,-4.333496,-2.197266
5503,0.017090,0.072876,1.019165,-5.676270,-4.333496,-2.868652
5514,0.010498,0.065186,1.142334,-4.028320,-4.638672,-4.821777
5524,0.040405,-0.002808,1.218140,-2.563477,-4.150391,-5.493164
5533,0.090088,-0.146729,1.064697,-0.610352,-3.723145,-6.225586
5543,0.086182,-0.176880,0.949585,0.671387,-3.723145,-6.286621
5552,0.100098,-0.144775,0.813721,0.793457,-3.967285,-6.286621
5563,0.067017,-0.243408,0.723389,0.061035,-3.967285,-6.042480
5573,0.066772,-0.275513,0.574463,-0.549316,-3.845215,-5.859375
5584,0.083740,-0.167725,0.714233,-2.990723,-3.662109,-5.798340
5594,0.035400,0.125366,1.273804,-3.540039,-4.089355,-5.859375
5604,-0.001465,0.014893,1.266724,-2.746582,-3.173828,-5.371094
5614,-0.012939,-0.153564,1.118286,-1.831055,-3.479004,-5.004883
5623,-0.020996,-0.138428,1.074585,-1.831055,-2.929688,-4.150391
5633,0.016357,-0.026855,1.081543,-1.892090,-2.075195,-2.746582
5643,0.020752,0.004395,1.037476,-1.953125,-1.892090,-1.403809
5654,0.023071,-0.042236,0.950806,-2.685547,-1.953125,-0.122070
5664,0.031250,0.094971,1.159790,-3.845215,-2.380371,-0.183105
5673,0.004028,0.239624,1.169678,-4.333496,-2.136230,-0.366211
5683,-0.001099,0.079224,1.092529,-2.990723,-1.831055,-0.061035
5693,0.008545,-0.060547,1.061768,-0.915527,-1.647949,0.366211
5703,0.028687,-0.156738,1.053955,0.854492,-1.098633,0.610352
5713,0.027710,-0.210327,1.062012,1.464844,-0.671387,0.915527
5722,0.014282,-0.128174,1.014771,1.159668,-1.220703,1.037598
5734,-0.030396,-0.000977,0.877075,0.366211,-0.915527,-0.305176
5744,-0.044434,0.036621,0.839966,-0.915527,-1.159668,-0.915527
5754,-0.055542,0.005859,0.847412,-0.854492,-1.098633,-1.464844
5763,-0.061035,-0.118530,0.814453,-0.976562,-0.915527,-1.525879
5773,-0.066528,-0.026978,0.925049,-1.770020,-0.305176,-1.098633
5783,-0.045532,0.040283,1.039185,-2.990723,0.366211,-0.305176
5793,-0.002563,0.063965,1.138184,-3.784180,1.098633,0.366211
5804,0.005127,0.083740,1.157349,-3.479004,1.525879,1.159668
5813,0.025513,0.087158,1.144165,-1.098633,1.342773,1.525879
5823,0.014282,0.095947,1.111084,0.610352,1.159668,1.647949
5833,0.054077,0.015381,1.085938,2.258301,1.220703,1.770020
5842,0.043457,-0.338379,0.656738,3.784180,0.976562,2.441406
5853,0.018799,-0.646973,0.164185,3.662109,0.854492,2.868652
5863,0.032471,-0.055908,0.640991,-1.098633,0.549316,2.990723
5874,-0.023437,0.305542,1.133911,-5.432129,-15.014648,2.624512
5883,-0.091309,0.156372,0.948242,-8.117676,-0.793457,2.563477
5893,-0.078369,0.030518,0.968384,-6.774902,-0.183105,2.868652
5902,-0.043701,0.232422,1.239990,-5.432129,1.098633,3.967285
5913,-0.037231,0.211304,1.332153,-3.906250,2.258301,5.859375
5922,-0.084839,-0.083618,1.179565,-1.831055,2.807617,7.446289
5934,-0.022461,-0.248413,0.985352,-2.624512,2.563477,8.178711
5944,-0.021118,0.066040,0.858276,-4.516602,2.319336,7.995605
5953,0.014893,0.145508,0.879639,-6.286621,1.220703,7.629395
5962,-0.003296,0.203369,0.986938,-7.690430,1.342773,8.300781
5973,0.013184,0.188843,1.157471,-7.934570,1.770020,8.728027
5982,-0.018433,0.133179,1.275146,-6.835937,1.892090,9.399414
5993,-0.009399,0.041260,1.315308,-5.249023,2.197266,9.582520
6003,-0.039551,0.023682,1.255005,-3.173828,2.197266,9.582520
6013,0.035645,0.006958,1.138184,-1.037598,1.953125,8.117676
6024,0.013306,-0.100098,0.938599,-1.525879,0.549316,7.141113
6034,0.025757,-0.078979,0.905029,-2.136230,0.061035,5.249023
6043,-0.040649,0.019531,0.896484,-2.319336,-0.854492,3.906250
6052,-0.021484,0.051880,0.969238,-2.258301,-1.037598,2.563477
6063,-0.059326,-0.053833,0.972290,-1.708984,-0.976562,1.403809
6072,-0.004272,-0.154175,1.077393,-1.342773,-0.610352,0.793457
6084,0.062988,-0.014771,1.075439,-1.770020,-0.671387,-1.037598
6094,0.044678,0.021973,0.984863,-2.380371,-0.549316,-2.075195
6103,0.091309,0.008789,0.900269,-2.075195,-1.037598,-2.868652
6113,0.066284,0.005859,0.984619,-1.770020,-0.976562,-3.479004
6123,0.053101,0.271484,1.074951,-2.014160,-1.647949,-4.211426
6133,0.026611,0.133911,0.955200,-0.305176,-1.586914,-4.455566
6143,0.072632,-0.059937,0.870850,1.892090,-0.915527,-4.028320
6154,0.055298,-0.115112,1.076904,2.929688,-0.427246,-2.624512
6164,0.052856,-0.239868,0.973389,5.126953,-0.427246,-2.380371
6173,0.016357,-0.036865,1.012329,3.540039,-0.610352,-2.746582
6183,0.023682,0.047485,0.961548,2.014160,-1.281738,-2.868652
6193,0.015015,-0.012207,0.910400,1.464844,-1.220703,-2.502441
6203,-0.038330,-0.033081,0.932739,1.953125,-1.037598,-1.342773
6214,-0.067627,-0.067505,0.960571,3.723145,0.122070,0.976562
6224,0.012329,0.057129,1.094604,3.356934,0.671387,2.319336
6234,0.031738,0.052368,1.076904,2.563477,1.098633,3.723145
6243,0.055664,0.046143,1.024658,2.563477,1.342773,4.760742
6252,-0.008667,-0.005859,0.992798,3.295898,1.586914,5.187988
6263,-0.001221,0.017578,1.040894,4.028320,1.220703,5.432129
6273,-0.002930,0.031372,1.158691,3.723145,0.915527,5.859375
6284,-0.017212,-0.015381,1.146240,1.770020,1.281738,7.019043
6294,-0.041138,-0.014526,1.050781,2.319336,1.708984,8.056641
6303,-0.001953,0.133057,1.052734,3.234863,1.892090,8.361816
6313,0.016724,0.058350,1.124878,3.845215,1.342773,8.300781
6323,0.037598,-0.151611,1.037109,3.356934,1.281738,8.300781
6333,0.012939,-0.081665,0.934448,1.342773,0.244141,7.934570
6342,0.034424,0.124390,0.946289,0.000000,0.488281,7.812500
6353,0.013062,0.017700,0.858276,-0.061035,0.793457,7.934570
6364,-0.011353,0.068604,1.036987,0.244141,-0.549316,6.835937
6374,-0.015747,-0.067993,1.029663,-0.854492,-0.366211,6.408691
6383,-0.019653,-0.039795,0.952881,-1.831055,-0.549316,6.042480
6392,-0.021973,0.007202,0.937988,-1.953125,-0.122070,6.225586
6403,-0.000244,0.059326,0.914062,-1.525879,0.122070,5.920410
6413,-0.043579,-0.036255,0.885742,-0.915527,0.305176,5.676270
6424,-0.015625,-0.044312,0.964722,-2.258301,-0.183105,4.150391
6434,-0.028442,0.111816,0.963013,-3.051758,-0.488281,3.723145
6443,-0.015015,0.097656,1.017578,-2.990723,-0.122070,3.540039
6453,-0.000488,0.041504,0.949341,-1.953125,0.061035,3.662109
6462,0.012451,0.013306,0.984375,-0.427246,0.122070,4.028320
6473,0.062988,-0.034058,1.047974,0.122070,-0.122070,4.089355
6483,0.073730,-0.071655,0.991943,-0.488281,-0.427246,4.150391
6493,0.068604,0.031860,0.951050,-1.403809,-0.366211,4.394531
6505,0.013062,-0.029541,0.847412,-1.464844,-0.976562,4.394531
6514,-0.011719,0.047607,0.974609,-0.732422,-1.037598,4.943848
6523,-0.035034,-0.110962,0.992432,-0.732422,-1.342773,5.065918
6533,-0.015137,-0.078857,0.988647,-1.647949,-1.159668,5.187988
6543,0.017090,0.003906,0.994385,-2.990723,-0.549316,5.432129
6553,-0.013062,0.015259,0.915771,-3.967285,-0.671387,5.493164
6563,0.011108,0.038086,0.924072,-4.028320,-0.671387,5.249023
6574,0.027100,0.026978,1.023438,-3.784180,-1.159668,4.211426
6583,0.021729,-0.057983,1.009277,-6.347656,-1.647949,3.479004
6593,0.042114,0.136475,1.090088,-7.690430,-1.464844,2.929688
6603,0.001343,0.098267,1.082397,-7.690430,-1.647949,2.502441
6613,0.019409,0.102661,1.092041,-6.652832,-1.525879,1.892090
6623,0.039307,0.061401,1.146118,-5.249023,-1.708984,1.342773
6634,0.018066,-0.113525,1.007324,-4.760742,-1.831055,0.305176
6644,0.034546,-0.033081,0.913574,-5.249023,-2.014160,0.183105
6654,0.038330,0.120361,0.970337,-5.371094,-2.014160,-0.610352
6663,0.051270,0.006592,0.911499,-5.249023,-2.319336,-1.647949
6673,0.043579,0.057373,0.995972,-4.760742,-2.807617,-2.502441
6683,0.024536,-0.060425,0.953369,-4.028320,-3.112793,-3.479004
6693,0.044922,0.030640,1.062378,-4.028320,-3.173828,-4.272461
6704,0.047363,-0.009033,0.984497,-4.028320,-2.746582,-5.126953
6714,0.031128,0.002441,0.942749,-3.479004,-2.441406,-5.615234
6724,0.033325,0.024658,0.986450,-2.990723,-2.502441,-5.737305
6733,-0.008423,-0.043457,0.905151,-2.563477,-2.807617,-5.859375
6743,0.030762,-0.071655,0.887573,-2.685547,-2.380371,-6.042480
6753,0.021240,-0.063843,0.990723,-3.173828,-2.197266,-5.981445
6763,0.040649,0.028809,1.022095,-3.723145,-2.197266,-5.493164
6773,-0.014526,0.009766,0.920898,-4.150391,-2.075195,-4.516602
6783,0.031860,0.170654,1.093750,-3.906250,-1.098633,-3.784180
6793,0.005981,0.135498,1.078003,-2.990723,-0.488281,-3.112793
6803,-0.000977,-0.014404,0.985107,-2.319336,-0.366211,-2.197266
6813,0.027100,0.096558,1.125854,-1.770020,-0.549316,-1.403809
6823,0.011108,-0.070679,1.028809,-1.403809,-0.610352,-0.976562
6833,0.013184,0.043823,1.079102,-1.647949,-0.305176,-0.610352
6844,-0.011230,-0.112671,0.956177,-1.403809,-0.183105,0.488281
6854,-0.014893,-0.085083,1.018677,-0.732422,0.244141,1.159668
6864,-0.021240,0.143188,1.134033,-0.488281,0.305176,1.464844
6873,-0.052246,-0.032471,1.046875,0.000000,0.244141,2.197266
6883,-0.031128,0.103638,1.093140,0.183105,0.671387,2.746582
6894,-0.049805,-0.044678,0.969360,0.976562,1.464844,3.234863
6903,-0.029785,0.101196,1.044189,1.403809,1.281738,3.662109
6914,-0.029297,-0.046387,0.884888,2.563477,1.586914,4.638672
6924,-0.042114,-0.084229,0.891235,2.563477,1.586914,4.882812
6933,-0.053833,-0.036011,0.909912,1.953125,1.953125,5.126953
6942,-0.034424,-0.005005,0.948120,1.159668,1.831055,5.310059
6953,-0.056152,-0.052124,0.887939,0.915527,1.892090,5.493164
6963,-0.027466,-0.023926,0.909302,0.427246,2.502441,5.920410
6973,-0.021118,-0.046509,0.973145,0.244141,2.685547,6.286621
6983,-0.016846,-0.042114,0.907959,0.122070,2.929688,6.530762
6994,0.006226,0.013794,0.897217,-0.549316,2.502441,7.446289
7003,0.015015,0.081177,0.855713,-2.319336,2.319336,8.239746
7013,0.006470,0.078247,0.862915,-3.234863,2.075195,9.094238
7023,-0.009399,0.121338,0.962891,-3.906250,2.563477,10.192871
7033,-0.005127,0.091797,0.961182,-4.089355,2.929688,11.230469
7043,-0.013184,0.091064,1.016357,-4.028320,3.051758,12.207031
7053,-0.010620,0.083862,1.089722,-3.845215,2.990723,12.939453
7064,-0.026611,0.044556,1.099487,-3.417969,2.502441,13.610840
7074,-0.016724,0.116333,1.147949,-2.502441,2.441406,13.793945
7083,-0.030640,-0.019897,1.085815,-1.281738,2.807617,14.160156
7093,-0.011841,0.052124,1.147705,-0.793457,2.502441,13.977051
7103,-0.001221,-0.050537,1.061035,-0.122070,2.136230,13.488770
7113,-0.001465,-0.066772,1.031738,-0.427246,1.464844,12.634277
7123,0.024414,0.051392,1.079468,-0.305176,1.220703,11.596680
7134,0.019531,0.030396,1.068237,-0.366211,0.122070,9.582520
7143,0.010742,0.023193,1.083374,-0.976562,0.305176,8.850098
7153,0.006470,-0.032837,1.040527,-1.037598,0.244141,7.995605
7163,0.002441,0.050415,1.072510,-0.732422,-0.061035,7.202148
7173,0.002808,-0.026367,1.021729,-0.610352,-0.671387,6.225586
7183,0.054443,-0.091919,0.976440,-0.183105,-0.976562,4.882812
7193,0.046021,-0.037842,0.981323,-0.244141,-1.770020,1.647949
7205,0.051025,-0.060303,0.915405,-1.525879,-2.380371,0.366211
7214,0.048584,-0.028076,0.914917,-2.197266,-2.868652,-1.159668
7224,0.082642,-0.001831,0.964355,-2.685547,-2.624512,-2.075195
7234,0.067139,-0.034302,0.955078,-2.685547,-2.929688,-2.746582
7244,0.075684,-0.005493,0.929321,-2.929688,-3.356934,-3.295898
7254,0.061401,-0.063721,0.872559,-2.990723,-3.601074,-3.967285
7263,0.090820,-0.081421,0.828003,-3.417969,-3.356934,-4.638672
7273,0.078735,0.055786,0.927612,-5.554199,-3.601074,-4.821777
7283,0.049316,0.007568,0.900757,-5.676270,-3.601074,-5.065918
7293,0.034058,0.161987,1.067139,-5.920410,-3.356934,-5.065918
7303,0.056152,0.162476,1.098389,-5.371094,-3.356934,-5.187988
7313,0.057861,0.061768,1.045288,-4.211426,-3.479004,-5.187988
7323,0.043091,0.047852,1.051392,-3.662109,-3.601074,-5.004883
7334,0.048828,0.049194,1.069702,-3.479004,-2.990723,-4.333496
7344,0.043213,-0.084595,0.938477,-3.295898,-3.051758,-4.028320
7353,0.052246,0.008911,0.962646,-3.051758,-2.685547,-4.272461
7363,0.028687,0.033569,1.013794,-2.746582,-3.173828,-4.394531
7373,0.020874,-0.006348,1.012085,-2.075195,-3.540039,-4.577637
7383,0.037964,-0.066040,0.999023,-1.281738,-3.540039,-5.065918
7393,0.025757,-0.047729,1.034912,-1.037598,-3.540039,-5.187988
7404,0.013184,-0.041382,1.016602,-0.427246,-2.807617,-4.882812
7414,-0.018311,-0.018066,0.977783,-0.427246,-2.502441,-4.760742
7423,-0.016724,0.088135,1.059937,-0.366211,-2.502441,-4.760742
7433,-0.058350,0.054932,0.982666,-0.122070,-2.319336,-4.638672
7444,-0.025391,-0.053223,1.034912,0.122070,-2.258301,-4.638672
7453,-0.041260,-0.004150,1.024536,-0.061035,-2.258301,-4.394531
7464,0.000122,0.022827,1.073975,-0.122070,-1.403809,-3.540039
7473,-0.036011,-0.023682,0.989380,-0.061035,-0.305176,-2.136230
7485,-0.001953,-0.042236,0.999634,-0.732422,0.000000,-1.708984
7494,0.025513,0.000122,1.004761,-0.976562,-0.549316,-1.403809
7504,0.032227,0.012451,1.031250,-1.159668,-0.366211,-0.976562
7513,0.011475,-0.011353,0.970581,-1.281738,0.000000,-0.793457
7524,0.021729,0.005127,1.028809,-1.586914,0.061035,-0.244141
7533,0.001953,0.062256,0.980225,-1.831055,0.549316,0.305176
7545,-0.031738,0.052002,1.037231,-2.746582,0.366211,1.342773
7555,-0.041138,0.038452,0.991333,-3.356934,0.549316,2.014160
7564,-0.026367,0.030518,1.019043,-3.417969,0.244141,2.319336
7574,-0.071045,0.073364,0.961304,-3.662109,0.366211,2.868652
7583,-0.029785,0.139282,1.062256,-3.112793,1.220703,3.356934
7594,-0.013550,0.100098,1.064941,-2.502441,1.586914,3.723145
7603,-0.036377,0.069702,0.983643,-2.197266,1.831055,4.089355
7616,0.020630,-0.032104,0.971436,-2.197266,2.075195,3.662109
7625,-0.009888,0.043701,0.936401,-2.197266,1.770020,3.356934
7634,0.006470,0.017700,0.990601,-1.770020,1.159668,2.807617
7644,-0.004639,-0.041626,0.974365,-1.403809,0.915527,2.380371
7653,0.006836,-0.018921,0.995850,-1.281738,1.220703,2.014160
7664,0.007080,0.026611,0.995972,-1.342773,1.220703,2.136230
7673,-0.012085,-0.040894,0.902710,-0.732422,1.403809,2.502441
7686,0.024536,-0.013306,0.954712,0.061035,1.525879,3.051758
7695,0.006958,-0.037231,0.936890,0.183105,1.525879,3.417969
7704,-0.001953,-0.022217,0.914795,-0.183105,1.220703,3.845215
7714,0.003296,0.004517,1.011719,-0.488281,1.464844,4.211426
7724,0.002563,0.090942,1.064453,-0.915527,1.464844,4.577637
7733,-0.028198,0.066162,1.029907,-0.793457,1.953125,5.065918
7744,-0.009277,-0.049194,1.050537,-0.183105,1.770020,5.310059
7753,-0.009277,-0.016724,1.002075,0.183105,1.525879,5.859375
7764,-0.005615,-0.023804,1.034668,0.488281,1.892090,6.042480
7774,0.014404,-0.000732,1.039185,0.793457,2.075195,6.347656
7783,0.005737,0.050293,1.013672,0.671387,2.014160,6.652832
7793,0.014526,0.006958,1.028198,0.427246,2.014160,6.713867
7804,0.026611,-0.071655,1.027588,0.366211,1.892090,6.469727
7813,0.027100,-0.050659,1.040283,0.244141,1.281738,6.408691
7824,0.027710,-0.115723,1.047485,0.488281,0.793457,5.737305
7833,0.002930,0.007935,1.018066,0.305176,0.671387,5.432129
7844,-0.001831,0.022583,1.084473,0.122070,0.976562,5.187988
7854,-0.018677,-0.017700,1.034546,-0.122070,0.915527,4.943848
7864,-0.048340,0.068604,1.027832,-0.793457,1.159668,4.577637
7873,-0.003296,0.119141,1.070801,-1.098633,1.281738,4.089355
7884,-0.014893,0.035889,1.026733,-1.098633,1.098633,3.540039
7895,0.001587,0.030151,1.028442,-0.854492,1.342773,3.112793
7904,0.029419,0.001831,1.026367,-0.366211,0.793457,2.258301
7914,0.008301,-0.001709,0.981567,-0.671387,0.244141,1.831055
7923,0.050293,0.011841,0.942383,-0.915527,0.122070,1.525879
7933,0.060791,0.011841,0.924561,-0.610352,-0.183105,1.281738
7943,0.065430,0.033081,0.942017,-0.732422,0.427246,1.220703
7954,0.039917,0.039551,0.974976,-0.610352,0.305176,1.403809
7965,0.010498,0.020630,0.984375,-0.732422,0.244141,2.136230
7974,0.025391,0.011108,0.979980,-1.342773,0.732422,2.685547
7984,0.019897,-0.029785,0.954712,-1.342773,0.549316,3.173828
7993,0.014771,-0.009521,0.946289,-1.342773,0.732422,3.723145
8004,0.006470,0.003418,0.931641,-1.708984,0.183105,4.150391
8014,0.039063,-0.032959,0.961914,-1.586914,0.183105,4.394531
8023,0.005493,0.002686,0.961060,-2.014160,0.183105,4.638672
8036,-0.008179,0.033813,0.993774,-2.258301,0.854492,5.432129
8045,0.004517,0.011597,0.995117,-1.892090,1.464844,5.859375
8055,0.002686,-0.014771,0.997803,-1.647949,1.464844,5.981445
8064,0.002930,-0.001831,1.002075,-1.525879,0.854492,5.920410
8074,0.019897,-0.027100,0.985474,-1.525879,0.183105,5.737305
8083,0.016235,-0.026855,0.996460,-1.586914,0.427246,5.432129
8094,-0.005615,-0.020630,0.993530,-1.403809,0.427246,5.554199
8103,-0.002563,-0.075806,0.990723,-0.976562,0.427246,5.126953
8115,-0.008789,-0.047485,1.006104,-0.793457,0.549316,5.065918
8125,-0.014038,-0.038086,0.985474,-1.220703,0.366211,4.821777
8134,0.011719,-0.072021,0.996826,-0.793457,0.488281,4.699707
8143,-0.000610,-0.031494,0.988770,-0.671387,0.366211,4.455566
8154,0.016479,-0.057129,0.996826,-0.305176,0.366211,4.333496
8163,-0.007080,-0.048828,1.002930,-0.244141,0.244141,4.455566
8175,-0.008789,0.001953,0.974731,-0.122070,0.427246,5.310059
8185,-0.002319,-0.004272,0.950073,-0.061035,0.488281,5.859375
8194,0.002930,-0.012939,0.954834,-0.183105,0.366211,6.225586
8204,0.029663,-0.035645,0.959717,-0.610352,0.488281,6.286621
8213,-0.014526,0.017944,0.990479,-1.342773,0.610352,6.713867
8224,0.002197,0.042236,0.997681,-1.831055,1.281738,7.202148
8233,-0.036499,0.091431,1.005249,-2.197266,1.525879,7.629395
8243,-0.024048,0.045532,1.011230,-1.953125,1.159668,8.300781
8254,-0.002930,0.018433,1.031738,-1.647949,1.586914,8.544922
8264,-0.006348,0.047729,1.029053,-1.708984,1.708984,8.850098
8274,-0.014038,0.004272,0.980469,-1.525879,1.525879,9.338379
8283,0.007446,0.068970,0.988525,-1.403809,1.831055,9.704590
8294,0.012817,0.003052,1.013794,-1.098633,1.953125,10.070801
8303,0.035522,0.021484,1.041016,-0.732422,2.014160,10.253906
8316,0.051270,0.026733,1.067749,-0.671387,1.953125,10.620117
8325,0.002930,0.054321,1.045532,-0.732422,1.159668,10.925293
8334,0.038330,-0.003174,1.021606,-0.549316,1.403809,11.291504
8344,-0.015381,-0.016235,0.995605,-0.427246,1.586914,11.413574
8354,0.014771,-0.098267,1.007813,-0.366211,1.586914,11.474609
8363,-0.025269,-0.062988,0.964966,-0.305176,1.831055,11.474609
8374,-0.009155,-0.084839,0.912598,-0.732422,1.464844,11.291504
8383,-0.012329,-0.040894,0.912231,-1.403809,0.854492,10.620117
8393,-0.005859,-0.044922,0.938354,-1.892090,0.793457,10.009766
8404,0.010742,-0.044556,0.979492,-2.441406,0.610352,9.521484
8413,0.026855,0.005737,0.973877,-2.990723,0.793457,8.972168
8424,0.024780,0.088257,1.040405,-2.990723,0.671387,8.605957
8433,0.031006,0.060425,1.042114,-2.441406,0.915527,8.239746
8444,-0.013306,0.096802,1.080566,-2.014160,1.159668,8.056641
8453,0.020386,0.033569,1.068970,-1.770020,0.549316,7.080078
8465,0.019287,-0.025879,0.989014,-1.220703,0.366211,6.530762
8474,0.057617,0.007202,0.998291,-1.098633,0.305176,5.920410
8483,0.053345,0.020508,0.991089,-0.793457,0.244141,5.432129
8494,0.058105,-0.032349,0.973022,-0.732422,0.061035,5.249023
8503,0.081665,-0.007446,1.010742,-0.732422,-0.183105,4.638672
8514,0.060669,-0.025513,1.005737,-0.976562,-0.488281,4.272461
8523,0.078125,-0.013306,0.986328,-0.793457,-0.915527,3.662109
8535,0.078979,-0.052368,0.986084,-0.366211,-0.915527,3.051758
8544,0.036743,-0.022339,0.984619,-0.305176,-1.892090,2.380371
8554,0.036987,-0.039063,0.997070,-0.366211,-1.586914,1.647949
8564,0.067871,-0.076660,0.980957,-0.427246,-1.708984,1.220703
8574,0.039063,-0.013916,0.995483,-0.488281,-2.380371,0.610352
8583,0.053467,-0.064087,0.956421,-0.183105,-2.136230,0.183105
8596,0.052246,-0.012817,0.972656,-0.305176,-2.563477,-0.610352
8606,0.054810,-0.042725,0.979004,-0.427246,-2.929688,-0.976562
8615,0.037231,0.037842,0.998779,-0.610352,-2.807617,-1.220703
8625,0.022217,0.012695,0.991943,-1.037598,-2.075195,-1.403809
8634,0.017944,0.043457,0.994141,-1.342773,-2.929688,-1.342773
8644,-0.020508,0.037842,0.989014,-0.915527,-2.380371,-1.037598
8653,-0.010742,0.033569,1.011719,-0.793457,-1.831055,-0.671387
8665,0.004883,0.028442,1.015381,-0.915527,-1.892090,-0.488281
8675,0.015137,0.027588,0.987671,-1.342773,-2.075195,-0.305176
8684,0.028198,0.013550,0.988403,-1.159668,-1.342773,0.061035
8694,0.029175,-0.000488,1.017944,-0.976562,-1.098633,0.305176
8703,0.020630,0.006226,0.991943,-1.464844,-1.708984,0.305176
8713,0.011841,0.026855,1.013306,-1.647949,-1.586914,0.610352
8724,0.025391,0.009888,1.007080,-1.708984,-1.281738,0.610352
8734,0.021118,0.042358,1.022583,-1.464844,-1.281738,0.732422
8743,0.005005,-0.017090,1.007935,-1.525879,-1.342773,0.854492
8754,0.012817,0.053101,1.011841,-1.647949,-1.098633,1.037598
8763,0.013794,-0.007080,0.984375,-1.403809,-1.464844,1.464844
8774,-0.004639,0.024292,0.989624,-1.586914,-0.549316,1.770020
8784,-0.016357,0.020508,1.008179,-1.464844,-0.732422,2.014160
8794,-0.006714,-0.014404,0.990845,-1.159668,-0.427246,2.563477
8804,-0.020874,-0.004517,0.988403,-0.976562,0.305176,3.112793
8813,-0.013184,-0.024902,0.994751,-0.793457,1.037598,3.417969
8823,-0.003784,-0.024292,0.967285,-1.037598,-0.244141,3.479004
8834,0.011963,-0.003784,1.007813,-0.915527,0.122070,3.845215
8843,0.034058,-0.006470,0.970947,-0.671387,0.244141,4.272461
8854,0.019775,0.010864,0.992187,-0.915527,0.305176,4.394531
8863,0.011108,0.005859,0.994995,-0.854492,0.061035,4.699707
8876,-0.018311,0.061768,1.015259,-0.915527,1.159668,5.676270
8885,-0.007080,0.002686,0.994995,-0.671387,1.464844,6.042480
8895,-0.006958,-0.029297,0.976440,-0.488281,0.793457,6.103516
8904,0.009155,0.038208,1.025757,-0.854492,0.854492,6.408691
8914,0.012695,0.019043,0.993408,-1.403809,0.915527,6.591797
8923,0.010864,-0.017212,0.941772,-1.464844,1.220703,6.408691
8934,0.004395,0.072632,1.020508,-1.647949,1.464844,6.774902
8943,0.006104,-0.000977,1.017456,-1.098633,1.647949,7.446289
8955,-0.035034,0.069092,1.068237,-1.953125,1.525879,7.690430
8964,-0.004761,0.032593,0.996582,-2.014160,1.342773,7.995605
8974,0.003174,-0.023315,0.949585,-1.708984,2.685547,8.605957
8983,0.012695,0.054321,1.040283,-1.525879,2.685547,8.789063
8993,0.000854,-0.049438,0.982056,-1.220703,2.014160,8.605957
9004,0.007935,-0.022949,1.040405,-1.647949,1.831055,8.483887
9013,-0.000488,0.074341,1.025146,-2.197266,2.624512,8.728027
9023,0.002563,0.020996,0.988770,-1.647949,3.112793,9.094238
9034,0.023560,-0.018799,0.988037,-1.525879,2.563477,9.460449
9043,0.026733,-0.014282,1.017944,-1.708984,1.525879,9.399414
9053,0.038940,-0.037231,0.975464,-1.647949,1.831055,9.277344
9063,0.043457,0.022705,1.005005,-2.136230,1.892090,9.155273
9073,0.033081,0.048218,0.981445,-2.258301,1.831055,9.155273
9083,0.020996,-0.043945,0.954468,-1.770020,1.953125,8.483887
9095,0.021729,-0.036621,1.006470,-1.342773,1.831055,8.422852
9104,0.028442,-0.013550,0.988525,-1.953125,1.647949,8.483887
9114,0.036987,-0.036987,0.921021,-1.647949,1.708984,8.361816
9123,0.049316,0.020630,0.963135,-1.831055,1.342773,8.300781
9134,0.030762,0.019653,0.983643,-1.647949,1.342773,8.178711
9144,0.021729,-0.041748,0.995850,-1.586914,1.281738,8.178711
9154,0.030273,0.011597,1.043579,-2.624512,1.342773,8.178711
9163,0.021606,0.051270,0.993286,-2.441406,1.708984,8.056641
9173,0.036621,-0.000488,0.957520,-2.258301,1.647949,8.056641
9184,0.039795,0.055298,1.051025,-2.075195,1.281738,7.629395
9194,0.016235,-0.003662,1.000122,-1.953125,1.220703,7.263184
9203,0.015747,0.034180,1.040771,-2.624512,1.342773,7.141113
9214,0.005493,0.006470,0.977539,-2.502441,1.647949,7.324219
9223,0.025391,0.094482,1.036499,-2.685547,1.892090,7.385254
9235,0.041748,0.000854,1.052979,-1.892090,1.525879,7.019043
9244,0.056396,-0.064331,1.005859,-1.953125,1.281738,6.347656
9254,0.069702,0.005005,1.056274,-2.258301,1.037598,5.798340
9263,0.067627,-0.018921,0.973999,-2.136230,1.525879,5.371094
9274,0.078735,0.011841,1.013428,-2.502441,1.281738,4.943848
9283,0.065552,-0.038330,0.966064,-2.014160,0.976562,4.943848
9296,0.059692,-0.060547,0.958130,-1.892090,0.549316,4.272461
9305,0.065308,-0.016602,1.036621,-1.953125,0.610352,3.967285
9315,0.060913,-0.056763,0.966431,-1.831055,0.244141,3.662109
9324,0.042969,0.048096,1.031860,-2.197266,-0.122070,3.173828
9334,0.041016,-0.017090,0.941895,-2.014160,-0.244141,2.929688
9343,0.055542,0.011230,1.001709,-1.953125,-0.244141,2.441406
9354,0.081665,-0.036865,0.936035,-1.647949,-0.244141,1.953125
9363,0.093872,0.017090,0.959473,-1.464844,-0.061035,1.647949
9375,0.097900,-0.026367,1.014282,-1.770020,-0.366211,1.403809
9384,0.079834,-0.012207,1.038086,-2.136230,-0.976562,0.915527
9394,0.064819,0.037354,0.985840,-2.136230,-1.037598,0.427246
9403,0.041382,0.096069,1.009766,-2.075195,-1.464844,-0.183105
9413,0.061523,0.002930,0.925537,-1.281738,-1.708984,-0.366211
9423,0.032959,0.036621,1.003174,-1.220703,-1.525879,-0.610352
9436,0.020386,0.005005,0.983398,-2.136230,-1.647949,-0.549316
9445,0.013794,0.043701,1.040039,-2.136230,-1.037598,-0.549316
9455,0.034302,-0.020874,0.973267,-1.831055,-1.037598,-0.671387
9464,-0.003174,0.024292,1.035278,-1.953125,-0.854492,-0.732422
9474,0.024780,0.012939,0.988403,-1.831055,-0.610352,-1.220703
9483,0.027344,-0.042114,0.948853,-1.525879,-1.159668,-1.403809
9494,0.004272,0.041748,1.023438,-1.831055,-0.854492,-1.647949
9503,0.032349,-0.005859,0.943359,-2.258301,-0.488281,-1.892090
9515,0.009888,0.020996,1.013672,-2.319336,0.061035,-2.136230
9524,0.017700,-0.023804,0.980713,-1.831055,-0.122070,-2.197266
9534,0.003662,0.056152,1.064209,-2.380371,-0.427246,-2.319336
9543,0.063965,0.005249,0.966675,-2.319336,-0.366211,-2.502441
9554,0.051392,0.003174,0.989624,-1.831055,0.305176,-2.014160
9564,0.050903,0.054565,1.037720,-1.892090,0.061035,-2.014160
9573,0.057739,-0.010620,0.953125,-1.647949,0.610352,-0.915527
9585,0.037720,0.083984,1.000732,-2.319336,0.976562,-0.305176
9594,0.032104,0.007813,0.933716,-1.953125,1.037598,0.549316
9604,-0.017212,0.061768,1.025757,-2.014160,0.976562,0.915527
9613,0.035767,0.079590,1.028198,-1.953125,1.098633,0.732422
9624,0.028564,-0.002075,0.954712,-1.770020,1.403809,0.854492
9633,0.019653,0.028564,1.020386,-2.258301,0.976562,0.549316
9646,0.077515,0.007813,0.965088,-2.319336,0.427246,-0.671387
9655,0.061646,0.037476,1.017944,-2.319336,0.122070,-0.915527
9665,0.135864,0.117310,1.082520,-2.502441,0.427246,-1.770020
9674,0.094238,0.033936,0.972412,-2.319336,0.549316,-1.831055
9683,0.061768,-0.007690,0.961060,-2.136230,0.000000,-1.892090
9694,0.099121,0.098633,1.083252,-2.380371,-0.488281,-2.441406
9703,0.086792,0.046631,1.026855,-2.014160,-0.061035,-2.807617
9716,0.034180,0.083740,0.978638,-2.197266,-0.061035,-2.624512
9725,0.056152,0.147705,1.020752,-2.319336,-0.305176,-2.502441
9734,0.030396,0.062134,0.975220,-1.831055,-0.549316,-2.197266
9744,0.024414,-0.020264,0.976440,-1.525879,0.122070,-1.464844
9753,0.048340,-0.017700,1.094482,-2.014160,-0.061035,-1.220703
9764,-0.100342,0.181396,0.902100,-2.197266,-0.549316,-1.220703
9773,0.008789,0.151733,0.834717,-1.770020,-0.183105,-1.098633
9786,0.046753,-0.053101,1.085938,-1.953125,1.281738,-0.183105
9795,-0.039551,0.114258,1.037231,-2.929688,1.525879,0.000000
9805,0.012085,0.029663,1.130005,-2.868652,2.075195,0.305176
9814,0.024780,-0.077881,1.004517,-1.831055,2.624512,0.244141
9823,-0.012939,-0.084106,0.943848,-1.159668,1.037598,-0.305176
9834,0.020630,-0.046143,0.988647,-0.854492,0.793457,-0.793457
9843,0.050537,-0.009277,1.003052,-0.854492,0.915527,-1.281738
9856,0.025513,0.028320,0.922241,-1.525879,1.647949,-1.525879
9865,0.018311,0.034058,0.953979,-1.586914,1.831055,-1.770020
9875,0.036255,0.021973,0.995239,-1.708984,1.647949,-2.502441
9884,0.042969,0.051025,1.053711,-1.770020,1.525879,-3.662109
9894,0.041626,0.053345,1.070679,-1.770020,1.770020,-4.516602
9903,0.041748,0.000244,1.026611,-1.525879,1.220703,-5.004883
9914,0.052490,-0.003052,1.017090,-1.464844,1.281738,-5.371094
9923,0.085083,0.007813,1.003906,-1.342773,0.976562,-5.798340
9934,0.113403,0.010498,0.983765,-2.014160,0.671387,-6.042480
9944,0.097534,0.033691,1.021240,-2.197266,0.976562,-6.286621
9953,0.067017,0.004395,1.017334,-2.075195,0.732422,-6.408691
9964,0.022583,0.007202,1.020630,-1.708984,1.586914,-6.347656
9974,-0.009277,0.015869,1.020752,-1.464844,1.586914,-6.408691
9985,-0.037476,0.018188,0.997070,-1.647949,0.976562,-6.774902
9994,-0.055420,0.023315,0.967896,-1.708984,2.014160,-6.835937
10004,-0.068237,0.049927,0.988647,-1.831055,2.197266,-7.019043
10013,-0.043091,0.032227,1.000488,-1.892090,2.380371,-7.019043
10023,-0.018555,0.011597,1.006592,-1.708984,3.417969,-6.469727
10034,0.022339,0.007935,1.014526,-1.831055,3.356934,-5.920410
10043,0.046997,0.022461,1.009644,-1.708984,3.479004,-5.493164
10054,0.053711,0.032959,0.998901,-1.770020,3.479004,-4.943848
10064,0.055420,0.020508,0.984985,-1.464844,4.089355,-3.845215
10075,0.054565,0.044556,0.989136,-1.770020,3.784180,-3.540039
10084,0.032959,0.059204,0.996948,-1.647949,4.272461,-3.173828
10093,0.016235,0.072510,0.996704,-1.647949,4.089355,-3.173828
10104,0.010986,0.081055,0.996216,-1.281738,4.577637,-2.929688
10113,0.005737,0.079346,1.003296,-1.098633,4.516602,-2.807617
10124,-0.000732,0.069580,1.007935,-1.037598,4.821777,-2.685547
10135,0.016968,0.070068,0.999512,-1.159668,5.065918,-3.234863
10144,0.032837,0.086304,0.991089,-1.403809,5.310059,-3.540039
10154,0.031006,0.101074,0.999512,-1.586914,5.371094,-3.967285
10163,0.030029,0.098755,1.011230,-1.525879,5.249023,-4.394531
10174,0.047485,0.115234,1.029663,-1.586914,5.371094,-4.394531
10183,0.076416,0.110718,1.057983,-1.770020,5.737305,-4.272461
10194,0.091187,0.157593,1.036621,-1.647949,5.371094,-3.967285
10205,0.138794,0.160767,1.057495,-1.403809,5.310059,-2.319336
10214,0.225098,0.042480,1.100464,-0.244141,5.249023,-0.854492
10224,0.216919,-0.032349,1.080078,0.061035,5.310059,0.305176
10234,0.202881,-0.094482,1.101563,0.183105,4.760742,1.159668
10243,0.171753,-0.164307,1.022583,0.305176,3.906250,1.464844
10253,0.115601,-0.205078,0.959229,0.549316,3.295898,1.098633
10263,0.218750,-0.254395,0.962524,0.488281,2.563477,0.244141
10275,0.104858,-0.135620,0.926636,-0.854492,1.220703,-0.610352
10285,0.130859,-0.136475,0.920166,-1.098633,0.732422,-1.098633
10294,0.128052,-0.124634,0.945190,-1.098633,0.732422,-1.647949
10303,0.114014,-0.108521,0.957520,-1.342773,0.366211,-1.892090
10314,0.088257,-0.104492,0.956543,-1.220703,0.549316,-1.770020
10324,0.044189,-0.064209,0.950806,-1.220703,1.220703,-1.281738
10333,-0.004639,-0.026489,0.945679,-1.220703,1.892090,-0.854492
10346,-0.047241,-0.031616,0.962891,-0.976562,2.929688,-0.915527
10355,-0.054565,-0.016724,0.979248,-0.793457,3.112793,-1.403809
10365,-0.066650,-0.036865,0.991089,-0.610352,3.173828,-1.770020
10374,-0.056030,-0.048096,0.985474,-0.244141,3.356934,-2.136230
10384,-0.042969,-0.054932,0.976929,0.000000,4.150391,-2.380371
10393,-0.007568,-0.065430,0.983032,0.122070,4.882812,-1.892090
10404,0.023682,-0.063232,0.989014,0.061035,4.638672,-1.159668
10413,0.068970,-0.065918,1.000122,0.000000,5.371094,0.793457
10424,0.150635,-0.091919,1.007935,0.061035,5.432129,2.075195
10434,0.184082,-0.095947,1.011108,-0.122070,4.638672,3.112793
10444,0.203735,-0.102295,1.012451,-0.183105,4.272461,3.845215
10454,0.235840,-0.090576,1.018921,-0.061035,3.845215,4.394531
10464,0.177734,-0.283569,0.944946,-0.305176,3.479004,4.943848
10473,0.222534,0.296387,1.047852,-1.525879,3.173828,5.554199
10485,0.204224,-0.325928,1.031860,-0.061035,3.051758,5.798340
10495,0.145508,-0.170532,1.101440,-0.732422,2.441406,5.432129
10504,0.138672,-0.004883,1.250854,-0.915527,1.892090,5.920410
10513,0.165649,0.042358,1.422852,0.244141,2.258301,5.187988
10524,0.148071,0.050781,1.303101,0.915527,1.342773,3.967285
10534,0.109985,0.189453,1.208374,1.892090,-0.061035,2.807617
10543,0.215942,0.091553,1.289307,3.723145,-0.793457,2.136230
10555,0.102539,0.316406,0.824341,3.356934,-1.037598,0.854492
10565,0.144165,0.167114,0.809204,2.990723,-0.122070,2.502441
10574,0.178711,-0.068848,0.928589,5.065918,0.244141,1.098633
10583,0.150146,-0.072754,0.969971,3.662109,0.305176,0.671387
10593,0.098267,-0.171021,1.027588,3.234863,-0.122070,1.159668
10604,0.132202,-0.416382,1.026001,4.821777,-0.793457,-0.305176
10613,0.039673,-0.339478,0.908813,3.784180,-1.403809,-1.220703
10625,0.007080,-0.408081,0.770264,2.807617,-1.403809,-2.014160
10634,-0.011353,-0.258789,0.742554,1.892090,-1.098633,-3.173828
10644,-0.049316,-0.212891,0.789917,0.854492,-0.183105,-2.868652
10653,-0.031982,-0.177979,0.852051,0.671387,-0.122070,-4.028320
10664,-0.014893,-0.219849,0.904053,0.610352,0.366211,-4.882812
10673,-0.001465,-0.262329,0.892456,0.671387,1.281738,-4.760742
10683,0.019165,-0.251587,0.915161,-0.305176,0.549316,-5.493164
10695,0.055908,-0.092285,0.927979,-1.098633,1.037598,-4.882812
10704,0.078247,-0.070557,0.930542,-1.647949,1.892090,-4.516602
10714,0.092896,-0.102539,0.957520,-1.281738,1.342773,-4.394531
10723,0.089966,-0.134399,0.991821,-0.976562,1.220703,-4.333496
10734,0.094238,-0.129761,1.016113,-1.098633,1.098633,-4.272461
10743,0.107300,-0.107544,1.031372,-1.098633,1.220703,-4.455566
10754,0.104858,-0.075195,1.013184,-1.037598,1.342773,-4.028320
10763,0.097778,-0.049683,0.997192,-0.976562,1.159668,-2.380371
10774,0.099609,-0.113159,1.008667,-0.976562,1.159668,-1.586914
10784,0.100586,-0.136230,1.009277,-0.732422,1.770020,-1.098633
10793,0.106567,-0.154907,1.007813,-0.976562,1.464844,-0.549316
10803,0.107178,-0.143188,0.999390,-1.098633,1.342773,-0.427246
10813,0.103149,-0.129395,0.989868,-1.281738,1.281738,-0.122070
10823,0.099487,-0.136597,0.979370,-1.098633,0.732422,0.305176
10836,0.101074,-0.160522,0.976685,-1.220703,0.976562,0.976562
10845,0.105225,-0.162354,0.983398,-1.220703,1.525879,1.403809
10854,0.109009,-0.164795,0.985718,-1.464844,0.854492,1.708984
10863,0.114258,-0.170898,0.976196,-1.464844,0.793457,1.953125
10874,0.115601,-0.177856,0.962891,-1.403809,0.610352,2.319336
10883,0.120117,-0.185791,0.951538,-1.586914,0.549316,2.746582
10894,0.128418,-0.195557,0.957764,-1.464844,0.488281,3.112793
10903,0.123291,-0.201538,0.971680,-1.708984,0.488281,3.295898
10915,0.083496,-0.207642,0.993042,-1.586914,0.610352,3.356934
10924,0.070801,-0.218506,0.988281,-1.464844,0.427246,2.990723
10933,0.064453,-0.238892,0.975586,-1.647949,0.366211,2.258301
10944,0.039063,-0.230103,0.974976,-1.708984,0.183105,1.098633
10953,0.040405,-0.234375,0.973755,-1.647949,0.610352,0.305176
10964,0.059570,-0.229004,0.971436,-1.525879,0.671387,-0.488281
10973,0.085693,-0.223389,0.975586,-1.525879,0.183105,-0.366211
10984,0.119873,-0.278076,0.942627,-1.403809,0.671387,0.488281
10994,0.125244,-0.232056,0.994995,-1.403809,1.159668,0.915527
11003,0.144165,-0.256836,0.974976,-1.342773,0.366211,1.953125
11014,0.122559,-0.272583,0.972534,-1.403809,0.061035,1.770020
11024,0.108398,-0.242920,0.983032,-1.525879,0.122070,1.037598
11033,0.118530,-0.237915,0.985107,-1.525879,-0.122070,0.305176
11045,0.120972,-0.249756,0.973511,-1.525879,-0.732422,-1.831055
11055,0.111938,-0.234131,0.976318,-1.953125,-1.037598,-2.807617
11064,0.107056,-0.192505,0.998535,-1.831055,-0.671387,-3.356934
11074,0.110718,-0.175537,1.004639,-1.586914,-1.037598,-3.662109
11083,0.127930,-0.205322,0.993652,-1.464844,-0.915527,-3.662109
11094,0.110474,-0.226318,0.965698,-1.647949,-1.464844,-3.356934
11103,0.151611,-0.250000,0.961182,-1.770020,-1.159668,-3.234863
11115,0.138550,-0.197021,0.979614,-2.197266,-2.197266,-4.272461
11125,0.138672,-0.156128,1.013428,-2.441406,-2.746582,-4.882812
11134,0.153076,-0.169434,1.030884,-2.197266,-2.624512,-5.249023
11144,0.161743,-0.217773,1.003296,-1.708984,-2.685547,-5.187988
11153,0.121826,-0.236572,0.966797,-1.831055,-2.685547,-5.004883
11164,0.091675,-0.234863,0.945679,-2.136230,-2.746582,-5.004883
11173,0.089966,-0.236084,0.948853,-2.319336,-2.807617,-4.699707
11186,0.080078,-0.161621,1.026611,-2.380371,-2.868652,-5.004883
11195,0.085937,-0.211548,1.009033,-2.014160,-2.929688,-5.065918
11204,0.076904,-0.268433,0.978516,-1.892090,-3.234863,-5.126953
11214,0.063232,-0.277954,0.948975,-2.075195,-3.356934,-5.310059
11223,0.063477,-0.237183,0.959961,-2.624512,-3.112793,-5.310059
11233,0.080322,-0.167725,1.002075,-2.624512,-2.807617,-5.798340
11243,0.124390,-0.180542,1.011353,-2.258301,-2.868652,-6.103516
11256,0.116211,-0.284058,0.949829,-1.953125,-3.967285,-6.591797
11265,0.120239,-0.266113,0.943726,-2.441406,-4.089355,-6.530762
11274,0.155396,-0.183105,0.979492,-2.807617,-4.211426,-6.347656
11284,0.178833,-0.179321,0.997559,-2.563477,-4.211426,-5.554199
11293,0.165527,-0.249390,0.980103,-2.319336,-4.089355,-4.516602
11304,0.149292,-0.308594,0.955200,-2.319336,-4.272461,-3.723145
11313,0.128174,-0.270386,0.988525,-2.746582,-4.211426,-3.295898
11323,0.132935,-0.205322,0.999023,-3.051758,-4.821777,-3.356934
11334,0.103271,-0.269287,0.922607,-2.441406,-5.493164,-3.356934
11344,0.095703,-0.270874,0.960205,-2.441406,-5.371094,-3.356934
11353,0.111816,-0.248291,0.992065,-2.563477,-5.737305,-3.417969
11363,0.115601,-0.278320,0.961304,-2.563477,-5.737305,-3.295898
11373,0.085327,-0.253540,0.969971,-2.563477,-5.981445,-3.356934
11383,0.076294,-0.206543,0.996338,-2.807617,-6.286621,-3.479004
11395,0.047119,-0.281250,0.934204,-2.380371,-5.859375,-3.662109
11404,0.049316,-0.247192,0.982422,-2.624512,-5.493164,-4.150391
11414,0.073486,-0.262207,0.970581,-2.685547,-5.859375,-4.699707
11423,0.108154,-0.261719,0.930542,-2.624512,-5.798340,-4.821777
11433,0.094238,-0.231201,0.981323,-3.051758,-6.530762,-4.943848
11443,0.083374,-0.225342,0.985962,-3.112793,-6.164551,-4.638672
11453,0.054565,-0.255371,0.986084,-2.624512,-6.042480,-4.272461
11465,0.003052,-0.275757,0.967651,-2.563477,-5.432129,-4.333496
11475,-0.020020,-0.255737,0.953003,-2.563477,-5.493164,-4.699707
11484,-0.038696,-0.252319,0.952759,-2.441406,-5.004883,-5.187988
11494,-0.082642,-0.228271,0.968506,-2.380371,-4.272461,-6.042480
11503,-0.036255,-0.212524,0.983154,-2.563477,-4.394531,-6.591797
11513,-0.003540,-0.200684,0.985962,-2.502441,-4.577637,-6.286621
11523,0.010132,-0.163208,1.031982,-2.197266,-4.333496,-5.798340
11535,0.034180,-0.159424,1.001831,-2.136230,-3.295898,-2.563477
11545,0.069458,-0.145386,0.998047,-2.075195,-2.807617,-0.854492
11554,0.092041,-0.158203,0.962891,-1.953125,-3.723145,0.915527
11564,0.065430,-0.100708,1.026123,-1.953125,-3.173828,2.746582
11573,0.059937,-0.129028,0.965210,-1.892090,-3.112793,4.699707
11583,0.018677,-0.057617,1.034180,-1.831055,-2.380371,6.530762
11593,-0.023193,-0.055298,0.994873,-1.770020,-1.831055,8.972168
11603,-0.091187,-0.041138,1.004150,-1.770020,-1.220703,11.108398
11614,-0.138794,-0.012573,0.957520,-1.892090,0.915527,15.563965
11623,-0.153198,0.041260,0.996460,-2.014160,1.525879,17.272949
11633,-0.131958,-0.026611,0.980591,-1.708984,2.990723,19.104004
11643,-0.159668,0.012817,1.015747,-1.708984,3.967285,20.751953
11653,-0.110229,0.015137,1.004761,-2.014160,4.394531,22.766113
11663,-0.158081,0.014526,1.007080,-1.770020,5.249023,24.597168
11673,-0.146851,0.044678,1.043579,-1.892090,5.615234,28.808594
11684,-0.175049,0.007446,1.012085,-1.403809,7.202148,30.944824
11693,-0.134766,-0.019043,0.995483,-1.525879,8.117676,33.142090
11703,-0.135742,-0.062866,0.928955,-1.525879,9.704590,35.156250
11713,-0.119141,-0.039429,0.967651,-1.525879,9.887695,37.048340
11724,-0.070068,-0.116821,0.962769,-2.075195,10.498047,38.940430
11733,-0.086060,-0.109619,1.012573,-2.136230,11.230469,40.039062
11743,-0.007446,-0.109619,1.048340,-2.380371,11.535645,40.466309
11754,0.002075,-0.127686,1.017700,-1.831055,11.291504,39.978027
11763,0.105713,-0.163208,0.984619,-1.586914,11.047363,39.550781
11773,0.099854,-0.136353,0.961548,-1.464844,10.742188,39.978027
11783,0.080566,-0.112793,0.936890,-1.586914,10.925293,40.588379
11793,0.084229,-0.113159,0.945679,-1.586914,10.986328,41.687012
11803,0.052246,-0.085937,1.000977,-1.708984,11.291504,42.968750
11814,0.081421,-0.097778,1.020752,-1.464844,11.535645,45.593262
11823,0.039185,-0.054687,1.028076,-1.281738,10.986328,46.325684
11833,0.063599,-0.052002,1.011353,-0.976562,10.742188,47.180176
11843,-0.002808,-0.041382,0.984131,-0.732422,11.108398,47.912598
11854,0.047852,-0.057983,0.949585,-0.549316,10.986328,49.011230
11863,0.028809,-0.027954,0.958618,-0.610352,11.779785,50.903320
11873,0.033691,-0.016235,0.958740,-0.732422,11.962891,52.917480
11883,0.030273,0.004150,0.988037,-1.037598,12.084961,57.739258
11894,0.071533,-0.026611,1.013062,-0.732422,13.244629,60.119629
11903,0.025024,-0.005981,1.033691,-0.671387,13.732910,62.011719
11913,0.059204,-0.003906,1.004883,-0.549316,13.732910,63.659668
11923,0.025269,0.004150,1.005493,-0.427246,14.160156,66.040039
11934,0.016235,0.034912,0.995728,-0.183105,14.038086,68.115234
11943,0.035034,-0.012817,0.963745,-0.183105,14.465332,70.739746
11955,0.069214,0.023315,0.987549,-0.915527,15.319824,76.293945
11964,0.036499,0.032959,1.027344,-0.732422,16.174316,79.040527
11973,0.052612,0.040283,1.017578,-0.244141,16.296387,80.871582
11983,0.089722,0.007813,1.024658,0.122070,16.418457,82.824707
11993,0.091187,0.017578,0.989624,0.427246,16.418457,84.045410
12003,0.133057,-0.019165,0.989258,0.915527,16.357422,85.388184
12014,0.101318,0.005493,0.960327,1.159668,16.357422,86.791992
12023,0.082031,-0.013184,0.961548,1.403809,16.784668,89.172363
12034,0.140381,-0.016724,0.977295,1.831055,16.967773,89.843750
12043,0.133057,-0.063843,0.999634,1.892090,16.052246,89.843750
12054,0.136719,-0.068115,0.987061,1.953125,15.930176,89.111328
12063,0.163330,-0.042725,1.024536,2.075195,15.319824,88.317871
12073,0.122314,-0.056396,1.013428,2.624512,14.770508,87.158203
12083,0.134766,-0.041504,0.987793,3.112793,14.160156,85.632324
12093,0.153931,-0.037231,0.987305,3.295898,14.160156,84.350586
12104,0.182983,-0.031128,1.001099,4.028320,13.000488,83.618164
12113,0.151855,-0.053345,1.000732,3.967285,12.573242,83.129883
12123,0.188232,-0.039429,1.009155,4.272461,12.268066,82.275391
12133,0.205444,-0.049927,1.011475,4.638672,12.329102,81.420898
12143,0.211426,-0.022705,1.011719,4.577637,11.596680,79.956055
12153,0.205688,-0.074341,1.004150,5.004883,11.169434,78.369141
12163,0.204712,-0.074463,1.003784,5.493164,10.375977,75.134277
12174,0.174194,-0.083862,1.009888,5.920410,8.239746,73.547363
12183,0.162842,-0.047729,1.019287,5.920410,7.141113,71.899414
12193,0.170288,-0.086792,1.014038,6.347656,6.652832,70.251465
12203,0.166870,-0.074951,1.003662,6.591797,6.652832,68.481445
12213,0.157104,-0.100586,1.011597,6.469727,6.164551,66.528320
12224,0.175659,-0.111938,0.995850,6.469727,5.859375,63.964844
12233,0.196411,-0.132935,1.008667,6.591797,4.821777,57.189941
12247,0.217285,-0.135132,1.000366,6.652832,4.028320,52.307129
12256,0.250854,-0.109497,1.013184,6.713867,2.685547,47.180176
12266,0.320679,-0.084961,1.031738,6.652832,0.488281,41.442871
12275,0.350098,-0.095215,1.008545,6.958008,-1.953125,35.522461
12284,0.361084,-0.068970,0.982056,7.324219,-3.967285,29.357910
12293,0.417358,-0.026978,0.995239,7.690430,-6.225586,23.803711
12303,0.418091,-0.012695,0.997681,7.934570,-8.483887,14.343262
12314,0.437744,-0.034668,0.975830,7.873535,-9.582520,10.253906
12324,0.416748,-0.015747,0.948486,7.446289,-10.681152,6.408691
12333,0.378174,-0.021240,1.001587,7.141113,-11.840820,2.136230
12343,0.338745,-0.046753,1.025024,6.835937,-13.244629,-2.441406
12353,0.353882,-0.067993,1.001709,6.958008,-14.099121,-7.141113
12363,0.323242,-0.114258,1.033203,6.958008,-15.136719,-11.840820
12373,0.313232,-0.081787,0.998291,6.469727,-17.395020,-22.766113
12384,0.254639,-0.085083,1.009155,5.981445,-20.568848,-28.015137
12394,0.273926,-0.105957,0.960083,5.432129,-21.667480,-33.142090
12403,0.297241,-0.111328,0.978027,4.699707,-21.728516,-37.292480
12413,0.302368,-0.050049,1.005493,3.906250,-21.911621,-40.527344
12423,0.380371,0.008789,0.948364,3.234863,-22.094727,-43.701172
12433,0.302002,-0.015381,0.952637,3.295898,-22.399902,-46.264648
12443,0.313232,-0.057739,0.970093,3.356934,-22.949219,-51.269531
12454,0.411377,-0.134155,0.923706,3.723145,-24.841309,-53.527832
12464,0.383911,-0.137207,0.978394,3.845215,-25.573730,-56.152344
12473,0.336548,-0.113159,0.915771,3.784180,-26.428223,-59.265137
12483,0.215942,-0.116455,0.952515,3.479004,-28.198242,-63.232422
12493,0.188354,-0.111938,0.906982,3.112793,-29.846191,-68.237305
12503,0.319580,-0.072266,0.905029,2.380371,-29.541016,-71.472168
12515,0.227905,-0.026733,0.959229,1.159668,-28.259277,-74.707031
12525,0.243286,-0.070190,0.929932,1.708984,-27.343750,-75.134277
12534,0.185059,-0.078857,1.004517,2.075195,-26.550293,-75.195312
12543,0.087280,-0.067871,0.970093,1.831055,-26.733398,-75.988770
12552,0.041748,-0.119019,0.906982,1.525879,-27.282715,-77.514648
12563,0.001709,-0.011353,0.958862,0.305176,-27.221680,-78.857422
12573,-0.017822,0.046021,0.938965,-0.549316,-26.611328,-80.200195
12583,0.069824,-0.010132,0.919312,-0.671387,-22.766113,-78.552246
12594,0.125122,-0.037476,1.050537,-0.976562,-22.033691,-77.819824
12604,0.185913,-0.124268,1.011475,-0.732422,-21.423340,-76.660156
12613,0.218262,-0.070435,1.025269,-1.220703,-21.423340,-75.195312
12623,0.137939,-0.056763,0.956909,-1.342773,-22.155762,-74.157715
12633,0.160278,-0.093262,0.891357,-0.671387,-21.850586,-73.059082
12643,0.167725,-0.094971,0.959351,-0.671387,-21.118164,-71.044922
12655,0.105225,-0.067627,0.956787,-0.915527,-20.080566,-68.115234
12665,0.089966,-0.007446,1.014771,-1.281738,-19.531250,-66.711426
12674,0.044800,-0.067871,0.993652,-1.159668,-19.287109,-65.979004
12684,0.082764,-0.030762,0.969727,-1.098633,-18.554687,-65.002441
12693,0.057251,-0.029053,1.004150,-0.915527,-17.944336,-63.598633
12703,-0.030518,-0.029907,0.941772,-0.976562,-17.578125,-62.438965
12713,-0.045288,-0.038940,0.908936,-0.854492,-16.906738,-61.096191
12723,-0.067627,-0.040283,1.011353,-1.159668,-14.892578,-57.556152
12732,0.013184,-0.072266,0.917969,-1.525879,-13.305664,-54.870605
12743,-0.030273,0.000977,1.024292,-1.525879,-12.329102,-52.062988
12752,-0.086548,-0.066162,0.973877,-1.037598,-11.169434,-49.438477
12763,-0.048950,-0.073730,1.010864,-0.671387,-11.230469,-46.752930
12773,0.018799,-0.095703,1.060913,-0.854492,-11.047363,-43.884277
12783,0.020874,-0.118286,0.966309,-0.671387,-10.986328,-40.710449
12792,-0.031616,-0.092651,0.973633,-0.671387,-10.070801,-37.109375
12804,-0.015869,-0.109375,0.929810,-0.610352,-7.751465,-28.747559
12813,-0.062622,-0.078735,1.059814,-0.732422,-6.103516,-24.169922
12823,-0.076538,-0.081543,1.026489,-0.549316,-4.699707,-20.507812
12833,-0.046265,-0.118042,0.931274,-0.549316,-4.333496,-17.089844
12842,-0.071167,-0.021729,1.025513,-0.549316,-3.662109,-13.793945
12853,-0.063843,-0.025513,0.867920,-0.305176,-3.662109,-11.291504
12863,-0.081665,-0.198120,0.862671,0.488281,-1.708984,-7.629395
12873,-0.093018,-0.237671,0.971680,0.610352,-1.464844,-6.408691
12883,-0.167480,-0.206177,1.012329,-0.244141,-0.793457,-5.493164
12893,-0.002319,-0.100708,1.231934,-0.976562,-0.549316,-5.859375
12902,-0.139282,-0.320801,1.029907,-0.061035,-0.549316,-6.652832
12913,0.076416,-0.158081,1.100708,-0.549316,-1.037598,-7.629395
12923,0.107422,-0.016602,1.031128,-1.098633,-2.441406,-8.422852
12932,-0.095337,0.130493,0.560913,-0.854492,-3.906250,-9.094238
12944,0.267578,-0.434692,1.170776,-0.610352,-0.793457,-8.178711
12954,0.188721,-0.313965,1.135010,-1.831055,0.671387,-7.446289
12964,-0.205078,-0.131714,1.092285,-2.197266,0.305176,-7.202148
12973,-0.080078,-0.279785,0.925171,-0.488281,-1.037598,-6.958008
12983,-0.089966,-0.283569,1.026001,0.610352,-1.464844,-7.507324
12992,-0.087646,-0.209473,0.981567,0.976562,-1.342773,-7.934570
13004,-0.189941,-0.210449,0.876709,-0.427246,0.061035,-7.019043
13013,-0.139893,-0.189209,0.930542,-0.671387,-0.122070,-7.202148
13023,-0.037231,-0.135498,1.046265,-0.976562,0.122070,-6.286621
13032,0.136108,-0.159790,1.064697,-0.793457,1.098633,-4.272461
13043,0.187622,-0.260376,1.106689,0.427246,1.342773,-2.502441
13052,0.179687,-0.199463,1.098877,0.122070,1.037598,-1.464844
13063,0.148560,-0.181641,0.986816,-0.183105,-0.122070,-1.281738
13075,0.075317,-0.095337,0.960937,-0.915527,-1.708984,-1.220703
13085,0.026489,-0.106934,0.942749,-0.976562,-1.708984,-0.610352
13094,0.010986,-0.196289,0.999390,-1.098633,-1.708984,-0.244141
13104,-0.002686,-0.195801,0.979126,-1.403809,-1.342773,-0.061035
13113,-0.010864,-0.129028,1.006226,-1.586914,-1.525879,-0.427246
13123,-0.074341,-0.101440,0.983032,-1.464844,-2.075195,-1.586914
13133,-0.079956,-0.165039,0.969360,-1.098633,-2.685547,-2.319336
13142,-0.067871,-0.156860,0.966675,-0.671387,-2.380371,-2.380371
13152,-0.015137,-0.155884,0.967529,-0.793457,-1.953125,0.671387
13162,-0.003540,-0.151855,0.971680,-0.305176,-1.770020,2.807617
13173,-0.049438,-0.215332,0.947144,-0.183105,-1.220703,5.249023
13183,-0.070801,-0.233276,0.945679,-0.488281,-0.793457,6.958008
13192,-0.082764,-0.155884,0.958862,-0.671387,-0.244141,7.507324
13203,-0.072266,-0.148926,1.013550,-0.427246,0.183105,7.202148
13212,-0.042114,-0.264893,1.052124,0.061035,-0.305176,6.164551
13224,0.036377,-0.236694,1.006104,-0.488281,-1.220703,4.028320
13234,0.006714,-0.185059,0.994995,-0.549316,-1.525879,3.967285
13243,-0.023071,-0.224365,0.970947,-0.061035,-1.586914,4.333496
13253,-0.030273,-0.264526,0.989014,-0.122070,-1.220703,5.004883
13262,-0.033447,-0.282837,0.969116,-0.488281,-1.098633,5.798340
13273,-0.044922,-0.182129,1.016357,-0.549316,-1.220703,6.469727
13283,-0.084839,-0.174316,0.988159,-0.244141,-0.854492,7.324219
13292,-0.102295,-0.219849,0.996094,0.000000,-0.488281,7.507324
13303,-0.139160,-0.279297,0.985107,-0.305176,0.061035,7.385254
13312,-0.127075,-0.226318,0.952148,-0.366211,0.122070,7.324219
13323,-0.078735,-0.215576,1.000366,-0.549316,0.488281,7.263184
13332,-0.104980,-0.250610,0.964355,-0.732422,0.732422,6.896973
13343,-0.080566,-0.184326,1.000610,-0.732422,0.427246,5.920410
13353,-0.105225,-0.288574,0.941162,-0.671387,0.305176,4.028320
13364,-0.079468,-0.282837,0.920654,-1.037598,0.244141,3.234863
13374,-0.037720,-0.219604,0.952271,-1.342773,0.488281,3.112793
13383,-0.037720,-0.288574,0.924438,-1.464844,0.488281,3.234863
13393,-0.013550,-0.295532,0.967529,-1.770020,0.488281,3.173828
13402,-0.009033,-0.273071,0.965210,-1.708984,0.488281,3.173828
13413,0.009277,-0.302124,0.991455,-1.586914,0.366211,3.051758
13422,0.000244,-0.327271,0.973267,-1.892090,0.122070,2.441406
13434,-0.052490,-0.316772,0.978760,-2.197266,-0.305176,1.586914
13443,-0.056396,-0.351440,0.950684,-2.258301,-0.122070,1.098633
13453,-0.075195,-0.287842,0.987183,-2.319336,0.366211,0.793457
13463,-0.055908,-0.301270,0.976562,-2.014160,0.305176,0.366211
13472,-0.034058,-0.328125,0.945435,-2.075195,1.037598,0.122070
13483,-0.017944,-0.273560,0.975220,-2.319336,0.549316,-0.244141
13493,0.000610,-0.300903,0.997803,-2.197266,0.610352,-1.525879
13504,-0.001709,-0.274658,0.998779,-2.197266,0.061035,-2.258301
13514,-0.000488,-0.327881,0.982666,-2.197266,-0.122070,-2.929688
13523,-0.001221,-0.325806,0.994995,-2.258301,-0.427246,-3.295898
13533,-0.020386,-0.296631,0.981689,-2.136230,-0.305176,-4.028320
13543,-0.013672,-0.352661,0.967285,-2.197266,-0.122070,-4.699707
13553,-0.009888,-0.321533,0.994385,-2.319336,-0.183105,-5.371094
13563,0.008911,-0.227661,1.010864,-2.258301,-0.244141,-5.859375
13572,0.020630,-0.282715,1.017212,-2.014160,-0.549316,-6.103516
13583,0.007813,-0.280273,1.007690,-2.014160,-0.976562,-6.042480
13592,0.019409,-0.244873,1.037354,-1.525879,-1.220703,-6.103516
13602,-0.001343,-0.221069,1.040283,-1.098633,-1.159668,-6.103516
13613,-0.027100,-0.284424,0.991821,-0.976562,-0.671387,-5.615234
13623,-0.054077,-0.304932,0.943115,-0.610352,-0.122070,-4.943848
13632,-0.072388,-0.237915,0.950806,-0.610352,0.305176,-4.333496
13644,-0.090820,-0.287354,0.977173,-0.549316,1.037598,-3.234863
13654,-0.095459,-0.287598,0.979736,-0.793457,1.159668,-2.929688
13663,-0.086548,-0.244019,0.988037,-0.732422,1.098633,-2.258301
13673,-0.088135,-0.167480,1.020508,-0.610352,1.159668,-1.586914
13682,-0.088013,-0.197510,1.011963,-0.549316,1.647949,-0.732422
13693,-0.093018,-0.151245,0.976685,-0.610352,1.831055,0.305176
13703,-0.081909,-0.211914,0.969116,-0.671387,2.136230,2.258301
13712,-0.087158,-0.217407,0.948608,-0.305176,3.417969,3.234863
13722,-0.104736,-0.239136,0.958984,-0.427246,4.150391,4.455566
13733,-0.115723,-0.175903,0.963135,-0.671387,4.577637,5.310059
13742,-0.126465,-0.208130,0.971313,-0.732422,5.187988,6.164551
13753,-0.136597,-0.166382,0.966309,-0.854492,5.371094,7.080078
13762,-0.142212,-0.185181,0.981079,-0.427246,6.164551,8.483887
13775,-0.107178,-0.172974,0.999390,-0.610352,6.469727,12.207031
13784,-0.089111,-0.115112,1.000366,-0.549316,7.812500,14.465332
13794,-0.117310,-0.095581,0.999268,-0.671387,8.544922,17.272949
13803,-0.116943,-0.159790,0.931030,-0.488281,9.033203,19.958496
13813,-0.140381,-0.141968,0.918213,-0.915527,8.911133,22.216797
13822,-0.122559,-0.149902,0.933350,-0.854492,9.460449,24.353027
13833,-0.140869,-0.122925,0.971191,-0.976562,10.253906,26.489258
13843,-0.164429,-0.165405,0.977051,-1.220703,10.620117,28.869629
13854,-0.216309,-0.184692,0.942139,-1.342773,11.962891,32.958984
13864,-0.182983,-0.179199,0.950195,-1.403809,12.573242,34.484863
13873,-0.164673,-0.172729,0.948975,-1.525879,12.939453,35.949707
13883,-0.169189,-0.198242,0.933472,-1.281738,13.854980,37.353516
13892,-0.179687,-0.056152,0.979614,-1.708984,14.099121,38.574219
13903,-0.147827,-0.137573,0.962402,-1.953125,14.099121,39.489746
13912,-0.118164,-0.150269,0.953369,-2.380371,14.038086,40.039062
13924,-0.042480,-0.070679,0.982666,-2.746582,13.488770,40.527344
13934,-0.009033,-0.102905,0.995972,-2.868652,12.939453,40.588379
13943,0.000244,-0.031860,1.009644,-2.868652,12.695313,40.466309
13953,0.010376,-0.031372,1.015259,-2.868652,12.084961,40.222168
13962,0.024658,-0.076782,1.006836,-2.868652,11.718750,39.550781
13972,0.029541,-0.076782,0.989868,-2.929688,10.986328,38.574219
13984,0.041992,-0.155029,1.008789,-2.685547,9.521484,35.766602
13993,0.076904,-0.124268,1.067139,-2.319336,8.483887,34.790039
14003,0.115234,-0.098389,1.050781,-2.197266,7.507324,34.057617
14013,-0.017090,-0.066040,1.022949,-1.953125,6.408691,33.813477
14022,0.074829,-0.084717,0.968872,-1.708984,5.737305,33.325195
14033,0.107300,-0.155762,0.953491,-1.464844,5.676270,33.203125
14042,0.101440,-0.236328,0.981201,-1.098633,5.615234,33.142090
14052,0.101074,-0.138306,1.000610,-1.281738,5.371094,32.470703
14064,0.041626,-0.154053,1.005737,-0.549316,4.455566,30.151367
14073,0.014038,-0.214600,1.028809,-0.305176,3.540039,28.137207
14083,0.032227,-0.217773,1.008545,-0.366211,2.502441,25.878906
14092,-0.000610,-0.164429,0.996704,-0.610352,1.892090,23.437500
14103,0.031006,-0.241333,1.001831,-0.305176,1.220703,21.118164
14112,0.050903,-0.212891,0.977417,0.183105,0.732422,18.676758
14122,0.099243,-0.293457,0.978516,0.244141,0.122070,16.906738
14134,0.145142,-0.224854,0.955078,0.061035,-1.892090,13.916016
14143,0.123413,-0.115479,0.986572,0.122070,-2.502441,12.573242
14152,0.086304,-0.132812,1.027954,0.000000,-2.929688,11.352539
14163,0.075928,-0.164795,1.020386,0.122070,-3.173828,9.643555
14172,0.020996,-0.212402,1.008057,0.000000,-3.295898,7.995605
14183,0.033203,-0.171753,1.031860,-0.244141,-3.051758,5.737305
14192,0.027100,-0.112915,1.028931,-0.915527,-3.723145,3.051758
14204,0.132812,-0.071167,1.033325,-1.098633,-5.126953,-2.258301
14213,0.157593,-0.105957,1.023438,-1.342773,-6.103516,-4.638672
14223,0.180298,-0.069214,1.032593,-1.647949,-7.080078,-6.652832
14232,0.155273,-0.115479,1.027710,-1.708984,-7.385254,-8.178711
14243,0.181396,-0.118774,1.020874,-1.831055,-7.690430,-9.460449
14253,0.186768,-0.141113,1.005005,-1.586914,-8.117676,-11.108398
14263,0.210449,-0.125977,1.006348,-1.586914,-9.216309,-14.465332
14272,0.168457,-0.128296,1.047485,-1.220703,-9.521484,-16.357422
14282,0.151733,-0.156128,0.996582,-1.281738,-10.498047,-18.310547
14293,0.168701,-0.182251,1.003174,-1.464844,-10.925293,-19.958496
14302,0.110352,-0.179443,0.963501,-1.464844,-11.047363,-21.667480
14312,0.123047,-0.189941,0.977661,-1.586914,-10.559082,-23.193359
14323,0.104492,-0.162231,0.954712,-1.770020,-10.498047,-24.291992
14332,0.098267,-0.215698,0.925171,-2.136230,-10.498047,-25.146484
14342,0.081665,-0.186768,0.965454,-2.075195,-10.986328,-26.489258
14353,0.020996,-0.215210,1.005249,-1.831055,-10.620117,-27.099609
14363,0.014893,-0.292603,0.988403,-1.464844,-10.070801,-27.038574
14372,0.028198,-0.305298,0.927246,-1.159668,-9.277344,-26.733398
14383,0.045532,-0.277954,0.938843,-0.976562,-9.277344,-26.245117
14393,0.045410,-0.239014,0.929443,-1.037598,-8.728027,-25.512695
14402,0.057739,-0.217896,0.936768,-0.915527,-7.995605,-24.780273
14414,-0.004883,-0.244507,0.974243,-1.037598,-6.835937,-22.521973
14424,-0.023926,-0.212036,0.980103,-1.220703,-6.652832,-21.423340
14433,-0.042603,-0.163208,0.960571,-1.281738,-5.859375,-19.836426
14443,-0.035400,-0.204834,0.947266,-1.037598,-4.394531,-18.127441
14452,-0.062500,-0.182373,0.941040,-1.037598,-3.540039,-16.601562
14463,-0.058594,-0.218872,0.934692,-1.037598,-2.868652,-15.380859
14473,-0.072876,-0.203613,0.946777,-1.098633,-2.319336,-13.305664
14482,-0.075928,-0.222900,0.959351,-1.220703,-1.098633,-11.901855
14492,-0.039551,-0.239502,0.908691,-1.037598,-0.122070,-10.314941
14503,-0.010864,-0.219482,0.924316,-1.159668,0.488281,-9.094238
14513,-0.012573,-0.211670,0.986206,-1.281738,1.037598,-7.995605
14522,-0.017944,-0.178223,1.011108,-1.342773,1.159668,-7.507324
14533,-0.051270,-0.174805,1.047363,-1.464844,0.854492,-6.896973
14543,-0.061646,-0.149292,1.036377,-1.464844,2.014160,-5.249023
14554,-0.015625,-0.171631,0.993164,-0.671387,2.563477,-3.845215
14564,-0.003540,-0.219849,0.928467,-0.610352,2.746582,-2.502441
14573,0.007813,-0.223877,0.912231,-0.732422,3.173828,-1.342773
14583,0.028198,-0.228882,0.920410,-1.098633,3.234863,0.000000
14592,0.023193,-0.206177,0.965820,-1.525879,2.746582,0.793457
14603,0.043335,-0.211426,0.960327,-1.708984,3.051758,1.831055
14612,0.012573,-0.209595,0.939209,-1.770020,3.295898,2.441406
14624,0.001465,-0.250732,0.937134,-1.953125,3.479004,3.967285
14633,-0.006592,-0.183960,0.971436,-2.258301,3.540039,4.333496
14643,-0.024536,-0.246704,0.963989,-2.319336,3.479004,4.394531
14652,-0.018433,-0.239868,0.947876,-2.685547,3.356934,4.516602
14663,0.036987,-0.200684,0.970581,-2.929688,3.417969,4.394531
14673,0.054932,-0.251709,0.972778,-2.990723,3.051758,4.272461
14682,0.079712,-0.219971,0.996338,-2.929688,2.929688,4.516602
14693,0.077881,-0.183105,0.986084,-3.112793,2.258301,3.540039
14703,0.076050,-0.223389,1.012573,-2.502441,2.014160,2.746582
14712,0.088379,-0.150146,1.099854,-2.441406,1.403809,1.892090
14723,0.094971,-0.240479,1.041992,-2.197266,0.976562,0.671387
14732,0.098389,-0.221313,0.987427,-2.380371,0.183105,-1.220703
14743,0.104858,-0.144287,1.013550,-2.075195,-0.549316,-2.929688
14752,0.123779,-0.203735,1.035889,-2.014160,-0.976562,-4.760742
14764,0.143433,-0.204102,1.010864,-2.441406,-2.441406,-7.934570
14773,0.136353,-0.107544,1.007690,-2.502441,-3.356934,-9.216309
14783,0.128784,-0.200684,0.968262,-2.380371,-3.295898,-10.742188
14793,0.129883,-0.127930,1.088013,-2.380371,-3.967285,-12.084961
14802,0.120972,-0.124756,1.072510,-2.136230,-4.089355,-13.793945
14813,0.144897,-0.213989,0.975098,-1.831055,-4.699707,-15.747070
14823,0.169800,-0.250732,0.915405,-2.075195,-6.164551,-18.920898
14832,0.179687,-0.137817,0.940063,-3.173828,-6.530762,-19.714355
14842,0.097534,-0.167358,0.883057,-2.746582,-6.225586,-19.714355
14853,0.085327,-0.210327,0.856934,-3.234863,-5.432129,-19.287109
14863,0.070068,-0.085327,0.929810,-4.028320,-4.699707,-18.737793
14872,0.043945,-0.009521,0.972534,-4.516602,-4.150391,-18.554687
14883,0.039795,-0.101196,0.978638,-4.150391,-4.150391,-18.676758
14893,0.041748,-0.110596,0.981201,-3.967285,-4.150391,-19.348145
14902,0.047485,-0.055786,1.021484,-4.211426,-4.333496,-19.775391
14913,-0.010864,-0.074097,0.974854,-4.394531,-4.699707,-19.531250
14923,-0.005493,-0.034058,1.015015,-3.906250,-4.211426,-18.798828
14933,0.040405,-0.049316,1.018311,-3.540039,-3.356934,-17.272949
14942,-0.031982,-0.068115,1.003296,-2.990723,-2.319336,-15.258789
14953,-0.027466,-0.072632,1.025879,-2.441406,-1.037598,-13.000488
14963,-0.025269,-0.157715,1.063965,-1.831055,0.244141,-8.422852
14973,-0.086548,-0.163940,1.036377,-1.464844,0.732422,-6.591797
14984,-0.100708,-0.234619,0.924805,-1.098633,0.854492,-4.882812
14993,-0.055298,-0.152100,0.887451,-0.976562,1.770020,-3.051758
15003,-0.065430,-0.135254,0.840088,-1.281738,2.014160,-0.793457
15012,-0.052856,-0.174316,0.844116,-1.892090,2.624512,1.586914
15023,-0.094238,-0.144653,0.906128,-2.258301,3.601074,4.455566
15033,-0.032959,-0.084839,0.994385,-2.929688,5.249023,10.070801
15044,-0.090942,-0.013428,1.041138,-3.356934,6.347656,12.817383
15054,-0.084351,-0.003540,1.079834,-2.990723,7.263184,15.258789
15064,-0.120483,-0.072632,1.047852,-2.685547,7.507324,16.845703
15073,-0.152100,-0.117920,1.035156,-2.563477,7.080078,18.005371
15083,-0.184448,-0.082642,0.989746,-2.807617,6.896973,19.104004
15093,-0.156128,-0.098267,0.943848,-2.380371,7.507324,20.568848
15102,-0.130371,-0.124756,0.941528,-2.136230,8.300781,22.216797
15114,-0.043213,-0.093750,0.999146,-2.014160,7.690430,25.573730
15123,-0.006958,-0.141235,0.978882,-2.014160,7.873535,27.404785
15133,-0.023926,-0.101440,0.952393,-1.953125,7.995605,29.418945
15142,-0.031128,-0.053345,0.951172,-1.953125,8.178711,31.066895
15153,-0.047607,-0.130737,1.014404,-1.647949,8.178711,32.409668
15163,-0.058594,-0.196167,1.007568,-1.403809,7.690430,33.081055
15173,-0.075439,-0.183960,0.949463,-2.197266,7.141113,33.142090
15182,-0.041748,-0.182129,0.957275,-2.563477,6.347656,32.775879
15193,-0.008301,-0.137329,1.082642,-2.685547,5.432129,31.982422
15202,0.006226,-0.102295,1.069092,-2.563477,4.638672,31.616211
15213,0.011597,-0.138550,1.005005,-2.380371,4.333496,31.738281
15222,0.057495,-0.183594,0.967651,-1.953125,4.089355,31.799316
15233,0.084106,-0.228516,0.936157,-2.136230,3.845215,31.372070
15245,0.102417,-0.181763,0.982056,-3.112793,1.281738,29.052734
15255,0.091064,-0.094116,1.065063,-3.662109,0.061035,26.977539
15264,0.058838,-0.130981,1.075928,-3.417969,-0.732422,24.230957
15274,0.078003,-0.215942,1.008911,-3.234863,-2.319336,20.996094
15283,0.055054,-0.245850,0.932373,-3.356934,-3.417969,17.456055
15293,0.094971,-0.278198,0.933472,-3.967285,-4.760742,13.732910
15303,0.091187,-0.112305,0.987671,-4.211426,-5.126953,11.413574
15315,0.123169,-0.210083,0.991089,-2.624512,-6.347656,7.202148
15325,0.098145,-0.317017,1.001343,-1.953125,-7.690430,5.615234
15334,0.023071,-0.329224,0.945557,-2.441406,-8.666992,3.906250
15344,0.044556,-0.239624,0.986450,-2.624512,-8.117676,2.624512
15353,0.053467,-0.144043,1.021118,-2.014160,-7.873535,2.014160
15363,0.018555,-0.240234,0.941406,-0.854492,-8.117676,1.647949
15372,-0.003540,-0.317139,0.948364,-0.976562,-8.483887,1.403809
15385,-0.027222,-0.249390,0.988525,-2.136230,-8.117676,1.342773
15395,-0.010864,-0.195068,0.985718,-2.380371,-8.422852,1.220703
15404,0.026367,-0.190063,0.975220,-2.075195,-8.178711,0.915527
15414,-0.032471,-0.239014,0.932495,-1.770020,-7.873535,0.549316
15423,-0.041382,-0.257690,1.003296,-1.892090,-7.263184,-0.244141
15433,-0.081055,-0.195312,1.017090,-2.136230,-7.141113,-1.159668
15443,-0.062378,-0.113892,1.106201,-1.708984,-7.202148,-1.892090
15453,-0.092773,-0.154663,1.044312,-1.098633,-7.080078,-1.831055
15464,-0.060425,-0.263550,0.976074,-0.305176,-6.347656,-1.342773
15474,-0.034790,-0.228638,0.997437,-0.732422,-5.737305,-0.671387
15484,-0.035278,-0.180542,0.979004,-1.098633,-5.615234,-0.366211
15493,-0.034668,-0.267578,0.971802,-1.220703,-5.371094,-0.061035
15503,-0.069214,-0.203979,0.880005,-1.403809,-4.272461,0.549316
15513,-0.139282,-0.187134,0.907471,-1.831055,-2.990723,1.892090
15523,-0.160767,-0.231445,0.865845,-3.112793,-0.427246,3.845215
15533,-0.123779,-0.125000,1.098999,-3.540039,-1.525879,1.708984
15543,-0.090332,-0.099121,1.154053,-3.356934,-2.075195,-1.708984
15553,0.030029,-0.050415,1.147705,-2.441406,-3.234863,-5.371094
15563,0.087769,-0.058105,1.153809,-1.403809,-3.601074,-7.141113
15573,0.037598,-0.063232,1.056274,-0.610352,-3.784180,-7.690430
15582,-0.014404,-0.090942,0.954590,-0.305176,-3.662109,-7.202148
15595,-0.077759,-0.015991,0.955811,-0.122070,-0.244141,-2.319336
15605,-0.107300,-0.017944,1.014648,-0.244141,0.427246,0.549316
15615,-0.156616,0.000977,1.062134,-0.244141,0.427246,3.112793
15624,-0.199463,0.042847,1.021240,0.000000,1.220703,4.821777
15634,-0.160522,-0.068115,0.969971,0.122070,2.380371,5.554199
15643,-0.106689,-0.071777,0.944580,-0.183105,2.136230,5.126953
15653,-0.019409,0.033569,1.037964,-0.427246,1.953125,4.272461
15665,0.028931,-0.060913,0.999146,0.305176,0.732422,2.990723
15675,0.069580,-0.074219,1.071167,0.732422,1.281738,3.051758
15684,0.072876,-0.051392,1.065063,1.159668,0.976562,3.234863
15694,0.024536,-0.175049,1.012573,2.014160,1.159668,2.929688
15703,0.000000,-0.372925,0.826904,2.807617,0.793457,1.831055
15713,-0.053955,-0.257813,0.937134,2.563477,1.220703,0.488281
15724,-0.036865,-0.159546,0.976196,2.014160,0.793457,-0.854492
15733,-0.054565,-0.251343,0.924438,2.075195,0.427246,-2.990723
15744,0.013672,-0.254517,0.990845,1.525879,-0.427246,-4.699707
15754,0.034424,-0.238037,0.921997,1.281738,-0.915527,-6.347656
15764,0.061890,-0.282715,0.946289,0.976562,-1.098633,-7.263184
15773,0.102295,-0.179199,0.991333,0.793457,-0.061035,-7.995605
15783,0.071045,-0.135498,1.065796,0.427246,-0.305176,-9.094238
15793,0.038330,-0.088867,1.039185,0.366211,-1.037598,-10.681152
15805,0.123291,-0.117432,0.974365,0.305176,-0.793457,-13.610840
15815,0.118408,-0.093262,0.883667,0.183105,-1.342773,-14.831543
15825,0.116699,-0.137329,0.907959,-0.854492,-2.014160,-15.502930
15834,0.078125,-0.060303,0.900757,-1.831055,-1.953125,-15.014648
15844,0.088867,-0.057739,0.978638,-2.380371,-1.403809,-13.671875
15854,0.071899,-0.068970,0.921021,-2.929688,-0.610352,-12.390137
15863,0.053101,-0.067261,1.015869,-3.295898,-0.366211,-10.681152
15873,0.010620,-0.020996,1.073120,-2.929688,0.061035,-8.300781
15883,0.007568,-0.073975,0.981689,-2.685547,0.305176,-7.568359
15893,0.027588,-0.215210,0.910400,-2.746582,0.122070,-6.835937
15903,-0.006470,-0.180420,0.972168,-2.990723,0.366211,-6.347656
15913,-0.042236,-0.142212,0.995850,-3.112793,0.549316,-5.615234
15923,-0.068115,-0.114746,1.022217,-2.258301,0.976562,-4.577637
15933,-0.028564,-0.199219,1.000000,-1.770020,1.770020,-3.356934
15945,-0.022217,-0.247070,0.999390,-1.770020,1.892090,-2.258301
15954,-0.070435,-0.063721,1.037720,-3.112793,2.075195,0.000000
15964,-0.075562,-0.053345,1.025269,-2.868652,2.929688,1.220703
15974,-0.033325,-0.011719,1.136597,-2.319336,4.211426,2.258301
15983,0.009521,-0.062744,1.103027,-1.647949,4.882812,3.295898
15993,-0.044189,-0.082397,1.131714,-1.098633,4.638672,3.967285
16004,-0.057251,-0.138672,1.092651,-0.793457,4.333496,3.906250
16013,-0.036011,-0.132446,0.978882,-0.488281,3.967285,3.356934
16025,-0.040771,-0.203979,1.045776,-0.671387,3.723145,3.356934
16034,-0.036621,-0.172729,1.038818,-0.854492,3.601074,2.868652
16043,-0.057007,-0.152954,1.052734,-0.854492,3.295898,2.014160
16053,-0.102783,-0.237061,0.973877,-0.976562,2.990723,1.586914
16063,-0.092163,-0.270264,0.953613,-1.220703,3.967285,1.770020
16073,-0.032715,-0.189941,1.004028,-1.403809,5.432129,2.746582
16083,-0.030762,-0.191895,0.913452,-2.319336,4.943848,5.249023
16094,0.028564,-0.208740,1.014648,-2.014160,5.249023,5.310059
16104,0.045288,-0.225464,0.970825,-2.075195,4.821777,4.516602
16113,0.029907,-0.328613,0.996582,-1.831055,4.333496,2.502441
16123,0.063110,-0.157593,1.057739,-1.892090,3.784180,-0.061035
16133,0.095703,-0.220093,0.873779,-1.403809,2.929688,-2.624512
16143,0.149292,-0.309082,0.849731,-1.586914,2.624512,-4.333496
16155,0.189087,-0.189331,0.870605,-2.075195,2.441406,-6.835937
16164,0.190430,-0.133301,0.932983,-2.502441,0.793457,-7.629395
16174,0.219971,-0.183350,0.920532,-2.319336,0.427246,-8.239746
16183,0.214966,-0.241211,0.894165,-2.502441,0.122070,-8.544922
16194,0.197510,-0.053345,0.964478,-2.990723,-0.732422,-8.300781
16203,0.162720,-0.086182,0.941772,-2.746582,-1.159668,-8.178711
16213,0.128784,-0.102539,0.996826,-2.136230,-0.793457,-7.812500
16224,0.099365,-0.192383,0.968384,-0.976562,-0.732422,-7.080078
16234,0.113281,-0.103638,1.020874,-0.061035,-0.976562,-4.943848
16243,0.100098,-0.110229,1.063477,0.183105,-1.525879,-3.234863
16253,0.044434,-0.028076,1.095215,0.610352,-1.586914,-0.976562
16263,0.026245,-0.150146,1.017090,1.403809,-0.854492,1.281738
16273,-0.047607,-0.055298,1.069580,1.403809,-0.305176,2.990723
16283,-0.073120,-0.135986,1.056885,1.647949,0.122070,4.211426
16293,-0.111816,-0.037109,1.111206,1.342773,0.427246,5.554199
16304,-0.140991,-0.034546,1.004639,1.281738,0.976562,5.615234
16314,-0.174927,-0.017090,0.968384,1.159668,1.525879,5.432129
16323,-0.085449,-0.063965,1.005981,0.976562,1.892090,5.310059
16333,-0.146362,-0.059082,0.977173,0.915527,2.197266,5.004883
16344,-0.067871,-0.172485,0.981812,0.549316,2.624512,4.821777
16353,0.009277,-0.094971,1.035156,0.427246,3.051758,5.004883
16365,0.061035,-0.138794,1.103027,-0.976562,3.479004,5.737305
16375,0.077271,-0.149048,0.982910,-1.647949,3.234863,6.286621
16384,0.124023,-0.210815,0.914307,-2.258301,2.563477,6.652832
16393,0.100708,-0.039063,1.027832,-3.295898,2.014160,6.958008
16403,0.029053,-0.069336,0.918945,-3.662109,1.464844,7.446289
16413,-0.023804,-0.177490,0.905029,-3.967285,1.525879,8.483887
16423,-0.029419,0.014648,1.008911,-4.333496,2.380371,8.972168
16433,-0.019165,-0.057251,1.028442,-4.272461,2.136230,9.765625
16444,-0.033813,-0.053711,1.006226,-3.479004,2.197266,10.253906
16454,-0.062378,-0.074951,1.016602,-2.868652,1.770020,10.314941
16463,-0.014160,-0.061768,1.046997,-2.502441,1.953125,10.498047
16473,0.011353,-0.149902,1.001953,-1.892090,1.647949,10.803223
16483,0.053345,-0.088501,1.011475,-1.647949,1.403809,10.742188
16493,0.022949,-0.113403,0.958496,-1.586914,0.976562,10.986328
16505,0.011230,-0.103638,0.966064,-0.793457,1.342773,11.169434
16515,-0.030762,-0.158081,0.973145,-0.122070,1.098633,11.413574
16524,-0.023560,-0.239258,0.810059,0.366211,1.159668,11.230469
16534,-0.044800,-0.389404,0.808594,0.244141,0.488281,11.718750
16543,-0.017700,-0.257813,0.800781,-0.732422,0.610352,12.023926
16553,0.001587,-0.139648,0.870361,-1.770020,0.732422,12.390137
16563,0.028320,-0.079468,0.850098,-2.441406,0.122070,13.427734
16573,0.013306,-0.055542,1.033691,-2.258301,-0.305176,15.747070
16584,0.024414,-0.191406,1.089478,-1.281738,0.061035,16.723633
16594,0.037231,-0.245483,1.034790,-1.403809,-0.305176,16.967773
16604,-0.011963,-0.231567,0.985840,-1.892090,0.000000,16.662598
16613,-0.047974,-0.148926,1.012695,-2.136230,-0.427246,16.052246
16623,-0.023560,-0.199219,0.958008,-2.258301,-0.854492,14.404297
16634,-0.008667,-0.177612,1.047241,-2.441406,-1.708984,12.634277
16643,0.030273,-0.226440,0.954224,-3.173828,-2.929688,9.765625
16653,0.033691,-0.140259,1.008057,-3.479004,-3.051758,8.850098
16663,0.078735,-0.072510,1.105469,-3.967285,-3.662109,7.934570
16673,0.049072,-0.115479,1.050171,-3.906250,-3.906250,7.141113
16684,0.036499,-0.140015,0.997314,-3.662109,-4.516602,6.042480
16693,0.003662,-0.132080,1.053467,-3.784180,-4.943848,4.943848
16703,0.075195,-0.202026,1.038696,-3.845215,-5.004883,3.845215
16713,0.056885,-0.121948,1.044922,-4.516602,-5.371094,1.464844
16724,0.015259,-0.096313,1.014893,-4.333496,-5.798340,0.488281
16734,0.043091,-0.175415,0.970825,-4.333496,-6.286621,-0.427246
16743,0.031128,-0.194946,0.949463,-4.150391,-6.286621,-0.915527
16753,-0.016846,-0.084229,0.918335,-3.784180,-5.798340,-0.915527
16763,-0.081665,-0.160400,0.905518,-3.540039,-5.432129,-0.671387
16774,-0.078857,-0.189209,0.961304,-3.356934,-4.516602,-0.305176
16783,-0.130615,-0.258301,0.919067,-3.601074,-4.211426,-0.854492
16795,-0.139648,-0.195557,0.958740,-3.051758,-3.417969,-0.732422
16804,-0.097168,-0.102783,1.018677,-2.868652,-2.990723,-0.610352
16814,-0.096558,-0.226196,0.911377,-2.868652,-2.380371,-0.793457
16824,-0.086304,-0.009277,1.019165,-3.234863,-1.831055,-0.976562
16833,-0.088623,-0.121582,0.992187,-3.173828,-1.525879,-1.159668
16843,-0.119873,-0.054687,1.032471,-2.929688,-0.244141,-1.159668
16853,-0.096069,-0.157715,0.930542,-2.990723,0.000000,-1.708984
16865,-0.061890,-0.040039,0.959473,-2.929688,0.671387,-1.892090
16874,-0.036011,0.043213,1.005249,-3.112793,0.854492,-1.586914
16884,-0.025269,-0.038208,1.018311,-2.502441,1.281738,-1.098633
16893,-0.021240,-0.034424,1.062134,-1.953125,1.037598,-1.037598
16903,-0.046021,-0.031372,1.012085,-1.403809,1.464844,-0.854492
16913,0.020264,-0.054077,0.968628,-0.976562,2.258301,-0.122070
16925,0.100830,-0.226196,0.928467,-0.671387,2.258301,0.183105
16934,0.088745,0.017456,1.009644,-1.342773,1.098633,0.122070
16943,0.092285,-0.058228,0.883545,-1.708984,0.854492,0.122070
16953,0.098022,-0.035156,0.918335,-1.770020,0.305176,0.183105
16963,0.090698,-0.135376,0.901733,-1.770020,0.427246,0.488281
16974,0.061401,-0.113281,0.976807,-2.075195,0.488281,0.549316
16983,-0.035034,-0.104736,0.980713,-2.746582,0.732422,0.793457
16993,-0.038330,-0.167603,1.025391,-2.868652,0.671387,0.610352
17004,-0.015991,-0.155273,1.111694,-2.075195,0.427246,0.061035
17014,-0.117432,-0.158691,0.992554,-1.586914,0.915527,-0.122070
17024,-0.144897,-0.073853,1.182007,-1.281738,1.037598,0.244141
17033,-0.069824,-0.223633,1.141846,-0.305176,2.136230,-0.183105
17043,-0.057983,-0.171143,1.066650,0.183105,2.136230,-0.793457
17053,-0.143555,-0.179687,0.952759,0.488281,2.380371,-1.586914
17065,-0.085937,-0.250854,0.918823,1.525879,4.211426,-1.525879
17075,-0.061157,-0.208740,0.877441,1.342773,3.967285,-2.807617
17085,0.003662,-0.137817,0.868774,0.671387,3.662109,-3.845215
17095,0.107544,-0.172485,0.875610,-0.122070,3.173828,-4.211426
17105,0.200317,-0.141846,0.873047,-1.037598,2.441406,-4.211426
17114,0.211792,-0.152344,0.905518,-1.525879,3.112793,-4.028320
17124,0.177246,-0.023315,1.022339,-2.258301,1.586914,-4.882812
17133,0.140259,-0.125854,0.944458,-2.258301,1.647949,-5.859375
17143,0.065918,-0.225464,1.030396,-1.831055,1.770020,-6.347656
17154,-0.014282,-0.122437,1.016235,-1.831055,1.403809,-6.530762
17163,-0.028931,-0.168701,0.926392,-1.586914,1.464844,-6.591797
17173,-0.024536,-0.147461,0.965820,-1.586914,2.136230,-5.859375
17183,-0.065796,-0.212646,0.908325,-1.708984,2.990723,-3.784180
17193,-0.069946,-0.101929,1.028076,-1.770020,4.577637,-1.586914
17205,-0.020874,-0.057129,0.940918,-1.708984,6.042480,3.173828
17214,-0.031616,-0.170166,1.060669,-1.403809,5.920410,4.577637
17224,-0.012695,-0.125977,1.103516,-1.098633,6.042480,5.859375
17233,-0.043701,-0.106323,1.079956,-0.610352,6.530762,6.835937
17243,-0.033081,-0.244385,0.930420,-0.244141,5.981445,6.958008
17254,-0.016113,-0.254517,0.934937,0.000000,6.042480,7.202148
17263,0.007935,-0.299561,0.928101,-0.610352,5.493164,8.056641
17275,0.037231,-0.092407,0.971924,-1.770020,5.737305,9.643555
17285,0.028564,-0.000244,1.069458,-1.403809,6.347656,10.192871
17294,-0.003052,-0.217407,0.995117,-0.610352,6.652832,10.620117
17304,-0.010254,-0.091919,1.111694,-0.732422,6.042480,10.131836
17313,0.001587,-0.143433,1.030029,-0.305176,6.164551,9.033203
17323,-0.015259,-0.123535,1.006958,-0.122070,5.554199,7.934570
17333,0.027466,-0.081909,1.064697,0.244141,5.798340,7.324219
17345,0.113281,-0.204468,0.940430,0.549316,3.845215,5.187988
17354,0.116699,-0.427246,0.824585,-0.061035,3.417969,4.272461
17363,0.145142,-0.271118,0.880005,-1.647949,2.929688,3.356934
17373,0.167603,-0.157349,0.886353,-3.295898,2.380371,2.746582
17383,0.189575,0.002319,0.998535,-4.272461,2.258301,1.892090
17393,0.181641,-0.115845,0.999390,-4.272461,1.647949,1.342773
17405,0.151855,-0.030396,1.112305,-3.479004,0.488281,-0.427246
17414,0.125244,-0.076904,1.064697,-3.173828,-0.122070,-1.342773
17424,0.099609,-0.054321,1.074951,-2.624512,-0.244141,-1.281738
17433,0.120239,-0.140137,0.965332,-1.831055,-0.854492,-0.427246
17443,0.137085,-0.098389,1.011597,-0.976562,-0.488281,0.915527
17454,0.142578,-0.234863,0.826904,-0.854492,-0.183105,3.112793
17463,0.116089,-0.020386,1.010254,-1.098633,-0.061035,5.493164
17475,0.104492,-0.166870,0.953125,-1.770020,0.244141,9.155273
17484,-0.001099,0.094727,1.105225,-1.708984,0.244141,10.070801
17495,-0.039063,-0.087524,1.008179,-1.159668,0.000000,10.131836
17504,-0.070923,0.086914,1.093506,-0.366211,-0.122070,10.131836
17514,-0.112061,-0.172119,0.968872,0.244141,-0.305176,10.192871
17523,-0.087280,-0.015991,0.981201,0.061035,0.183105,10.437012
17534,-0.053223,-0.106079,0.986694,0.305176,0.549316,11.047363
17543,-0.069092,-0.184570,0.919678,0.366211,0.732422,11.474609
17553,-0.045044,-0.106445,0.981323,-0.183105,0.976562,12.084961
17564,-0.038452,-0.057251,1.050171,-0.366211,1.403809,11.779785
17573,0.015503,-0.216919,0.948242,-0.305176,1.159668,11.108398
17583,-0.002319,-0.111206,1.045532,0.000000,0.793457,10.009766
17594,0.079956,-0.193726,0.987671,0.488281,0.427246,9.338379
17603,0.126465,-0.167603,0.944946,0.671387,-0.549316,8.850098
17615,0.137573,-0.172729,1.000244,-0.061035,-1.770020,8.605957
17624,0.154175,-0.038330,1.035034,-1.037598,-2.319336,8.789063
17634,0.136841,-0.184692,1.003540,-1.403809,-2.319336,9.094238
17643,0.062866,0.027710,1.049072,-1.708984,-2.441406,9.399414
17653,0.081055,-0.053955,1.068481,-1.708984,-2.563477,9.094238
17664,0.004761,-0.152710,0.964844,-1.708984,-3.234863,8.483887
17673,0.039551,-0.001465,1.116455,-1.892090,-3.173828,8.300781
17683,-0.041138,-0.266724,0.960205,-1.708984,-3.173828,8.422852
17693,-0.040527,0.031250,1.029907,-1.708984,-1.953125,9.216309
17704,-0.066772,-0.099976,0.923462,-1.037598,-1.953125,10.253906
17714,-0.049561,-0.105835,1.025879,-0.427246,-1.159668,11.291504
17724,-0.050781,-0.355347,0.887695,-0.366211,-1.037598,12.084961
17733,-0.059448,-0.180054,0.945923,-0.732422,-1.098633,12.878418
17743,-0.044678,-0.161377,0.893555,-0.976562,-1.464844,13.183594
17754,-0.026367,-0.113770,0.996948,-1.647949,-2.136230,11.901855
17764,0.005981,-0.130371,1.010376,-1.159668,-2.380371,10.559082
17775,-0.015259,-0.102661,1.114990,-0.854492,-2.868652,9.704590
17784,-0.008911,-0.340942,0.936279,-0.244141,-2.868652,8.666992
17794,0.021240,-0.096313,0.976440,-0.671387,-3.112793,7.934570
17803,0.031860,-0.088623,1.006226,-1.098633,-2.746582,7.873535
17813,-0.004639,-0.263184,0.903687,-1.098633,-2.685547,7.934570
17825,0.075073,0.026489,1.104126,-0.915527,-2.441406,7.690430
17834,0.092773,-0.222900,0.927246,-1.098633,-3.051758,6.652832
17845,0.074463,-0.012207,1.063965,-1.464844,-3.662109,5.554199
17854,0.007324,-0.310913,0.868530,-1.708984,-4.516602,4.943848
17864,-0.018311,-0.043945,1.025391,-2.136230,-4.699707,4.333496
17873,-0.070068,-0.098755,1.067505,-1.892090,-4.333496,4.089355
17883,-0.120728,-0.292480,1.018921,-1.403809,-3.723145,4.211426
17895,-0.077026,-0.068726,1.133789,-1.159668,-3.234863,3.051758
17904,-0.082764,-0.172974,1.028076,-0.610352,-2.929688,2.441406
17914,-0.094116,-0.123047,1.032715,0.000000,-2.929688,2.197266
17923,0.010864,-0.261841,0.949707,0.122070,-2.136230,1.770020
17934,-0.072510,-0.083496,0.965210,-0.305176,-1.647949,2.014160
17943,-0.009277,-0.089600,1.088501,-0.427246,-1.220703,2.380371
17954,-0.101563,-0.206177,0.979126,-0.305176,-0.305176,2.746582
17963,-0.028320,0.009521,1.072632,-0.183105,0.366211,2.929688
17974,-0.028931,-0.128174,1.029785,-0.122070,0.427246,2.624512
17984,-0.016724,0.015137,1.115723,0.488281,0.915527,2.319336
17993,0.025391,-0.046875,1.109619,1.037598,0.671387,2.014160
18004,0.001709,-0.208496,0.911865,1.159668,-0.183105,1.098633
18014,0.010254,0.063354,0.986328,1.159668,-0.671387,0.427246
18023,0.030518,-0.105957,0.950806,1.342773,-0.732422,0.366211
18036,0.008911,0.179810,1.050415,0.366211,0.732422,1.220703
18045,0.042847,-0.101440,1.003906,0.671387,1.464844,1.220703
18054,0.009399,-0.166748,0.926025,0.854492,1.770020,0.976562
18063,0.051392,0.021484,1.049438,1.098633,1.159668,-0.122070
18074,0.031128,-0.306763,0.851318,1.220703,0.122070,-1.464844
18083,0.065430,-0.043335,0.953979,0.793457,-0.061035,-2.380371
18094,0.059937,-0.167725,0.892090,0.671387,0.000000,-2.624512
18103,0.041016,-0.261108,0.827393,0.610352,0.488281,-2.807617
18115,0.068726,-0.277100,0.766479,-1.159668,0.549316,-1.586914
18124,0.056030,-0.185913,0.810791,-2.136230,0.366211,-1.220703
18134,-0.000732,-0.231934,0.823120,-3.173828,0.427246,-0.610352
18143,0.005371,0.011841,0.998291,-4.272461,0.793457,0.549316
18154,-0.011719,-0.049194,1.087158,-3.967285,1.647949,0.976562
18163,-0.065796,-0.181519,1.046509,-3.051758,1.770020,0.854492
18175,-0.136597,-0.016846,1.086914,-1.586914,2.868652,0.366211
18185,-0.059326,-0.109375,0.976807,-1.892090,3.845215,0.610352
18194,-0.008423,0.053101,1.114136,-1.831055,3.906250,1.342773
18203,-0.057861,-0.161621,0.868774,-1.708984,3.723145,2.136230
18213,-0.023560,-0.081543,0.915161,-2.136230,4.272461,3.845215
18224,0.005737,-0.008057,0.988281,-2.441406,5.249023,5.615234
18234,-0.033447,-0.083008,0.976929,-3.051758,5.615234,7.080078
18243,-0.055908,0.134033,1.122925,-3.295898,5.493164,8.300781
18255,-0.090332,-0.210327,1.052734,-2.563477,6.652832,10.620117
18264,-0.064209,-0.014160,1.171875,-2.563477,6.896973,11.352539
18274,-0.108521,-0.208252,1.106567,-2.380371,7.202148,11.840820
18283,-0.092773,-0.098145,1.031494,-2.441406,7.324219,12.512207
18294,-0.062256,0.021973,1.120972,-2.197266,7.629395,13.427734
18304,-0.052246,-0.305054,0.960815,-1.770020,8.239746,14.709473
18316,0.064453,-0.100830,1.053955,-2.380371,8.300781,15.869141
18326,0.027100,-0.420288,0.884155,-2.624512,7.934570,16.906738
18335,0.061523,-0.123047,0.989502,-3.295898,7.568359,17.272949
18345,0.103027,-0.087402,0.997559,-3.540039,7.019043,17.456055
18354,0.062500,-0.239990,0.860474,-3.784180,6.591797,17.333984
18364,0.052979,-0.121948,0.942871,-3.906250,5.920410,16.784668
18373,0.004517,-0.368286,0.780396,-4.333496,5.310059,16.174316
18385,0.044556,-0.247803,0.722046,-6.164551,4.516602,15.502930
18394,0.053223,-0.139893,0.786133,-7.263184,3.967285,15.502930
18405,0.041260,-0.025757,0.934692,-7.629395,3.906250,15.258789
18414,0.058716,-0.057983,0.974243,-7.080078,3.723145,14.770508
18423,0.037598,-0.090942,1.031494,-6.042480,3.601074,13.549805
18434,0.020874,-0.222656,1.017944,-5.004883,2.624512,11.901855
18443,0.021118,-0.229370,0.954712,-4.089355,2.380371,9.704590
18456,0.099976,-0.154053,1.037598,-2.746582,1.525879,7.507324
18465,0.119385,-0.202515,1.034424,-2.014160,0.732422,7.080078
18475,0.134033,-0.019043,1.055298,-1.525879,-0.244141,6.958008
18484,0.165649,-0.149536,1.034546,-0.915527,0.122070,7.385254
18494,0.117065,-0.317505,0.965210,-0.793457,-0.244141,8.056641
18504,0.105713,-0.132324,1.081421,-1.037598,-0.732422,8.422852
18514,0.106934,0.075195,1.128418,-0.915527,-0.793457,9.094238
18524,0.121826,-0.086548,1.076782,0.122070,-0.976562,9.826660
18535,0.067627,-0.058228,1.087646,0.549316,-1.953125,10.375977
18545,0.036133,-0.006592,1.088745,0.732422,-2.014160,10.986328
18554,-0.023804,-0.127319,1.042480,0.793457,-1.586914,12.329102
18564,-0.045288,-0.134033,1.000610,-0.122070,-1.770020,13.549805
18574,-0.049072,-0.047852,0.995728,-1.098633,-0.488281,14.587402
18584,-0.089966,-0.019287,1.014038,-2.136230,-0.183105,15.808105
18594,-0.096191,-0.010498,1.019775,-2.807617,1.281738,16.784668
18605,-0.071167,-0.022705,1.036011,-3.784180,1.098633,16.784668
18615,-0.051270,0.029663,1.048584,-3.906250,0.427246,16.540527
18624,-0.011719,0.061646,1.137329,-3.234863,0.427246,16.174316
18634,0.062134,-0.064697,1.088745,-2.380371,0.183105,16.418457
18644,0.100952,-0.139648,1.079834,-1.708984,-0.122070,16.418457
18654,0.149536,-0.054077,1.022217,-1.220703,-0.549316,16.052246
18664,0.181152,0.027100,1.092407,14.892578,-2.075195,15.625000
18675,0.198853,-0.177734,0.996460,1.342773,-2.685547,14.648438
18685,0.243530,-0.047974,1.068604,2.563477,-3.601074,13.183594
18694,0.207275,-0.219727,0.931274,4.211426,-5.004883,11.657715
18704,0.164307,-0.375854,0.785767,5.126953,-6.530762,10.192871
18714,0.142456,-0.127808,0.904419,5.676270,-7.690430,8.605957
18725,0.140259,-0.175537,0.910889,5.798340,-8.178711,7.263184
18734,0.110107,-0.334961,0.797485,5.615234,-8.789063,5.187988
18746,0.096680,-0.179932,0.874512,5.249023,-8.605957,4.211426
18755,0.045288,-0.297852,0.962280,4.211426,-8.972168,3.173828
18765,0.050171,-0.205688,1.104004,3.234863,-9.094238,1.342773
18774,0.035156,-0.001099,1.239136,3.051758,-9.033203,-1.342773
18784,0.046509,0.007935,1.220215,3.845215,-10.131836,-4.211426
18794,0.086060,-0.178833,1.139648,4.943848,-11.047363,-6.835937
18804,0.099731,-0.326050,0.979004,4.821777,-11.474609,-9.826660
18816,0.099854,-0.107300,0.949707,4.211426,-10.803223,-10.070801
18825,0.074463,-0.344849,0.811279,3.112793,-9.948730,-9.521484
18834,0.063721,-0.224609,0.764038,1.892090,-8.972168,-8.850098
18844,0.039429,-0.117920,0.848633,0.915527,-6.530762,-7.934570
18855,0.013794,-0.339111,0.724487,-0.244141,-7.873535,-7.202148
18864,0.029053,-0.130127,0.848267,-1.586914,-7.568359,-6.530762
18874,0.013794,-0.134644,0.887939,-2.868652,-6.713867,-3.723145
18886,0.024780,-0.086670,0.911377,-4.333496,-6.835937,-1.831055
18895,0.020020,-0.141602,0.861328,-4.577637,-5.737305,-0.122070
18904,-0.064697,-0.141602,0.852539,-5.187988,-5.432129,1.708984
18914,-0.045044,0.014038,1.028809,-5.737305,-4.638672,3.173828
18925,-0.052856,-0.100464,1.088867,-5.310059,-3.967285,3.601074
18934,-0.063965,-0.296753,1.002075,-4.943848,-4.211426,2.746582
18944,-0.107544,-0.263794,1.040161,-5.126953,-3.784180,0.915527
18956,-0.078613,-0.062622,1.164185,-5.065918,-3.417969,0.427246
18965,-0.116699,-0.080078,1.023682,-5.371094,-3.234863,0.000000
18975,-0.176270,0.018921,1.008179,-5.432129,-2.197266,0.061035
18984,-0.118042,0.086914,1.115234,-5.126953,-0.732422,0.854492
18994,-0.115234,-0.027344,1.042236,-5.004883,0.061035,1.647949
19004,-0.130005,-0.030396,1.025024,-4.699707,1.098633,2.746582
19016,-0.043701,0.024048,1.132690,-3.967285,1.770020,3.784180
19025,-0.052246,-0.103882,1.054932,-2.502441,2.746582,6.835937
19034,-0.040283,-0.042358,1.092896,-2.258301,3.417969,8.422852
19044,-0.031738,0.066650,1.160645,-2.319336,3.417969,10.253906
19054,-0.053711,0.007446,1.052490,-2.258301,3.906250,11.901855
19064,-0.076172,-0.117188,0.915283,-2.319336,4.150391,12.695313
19074,-0.126831,-0.227905,0.844482,-3.234863,3.784180,13.244629
19086,-0.055542,0.011597,0.947632,-3.845215,4.028320,13.305664
19095,-0.054932,-0.221558,0.800903,-5.615234,3.967285,13.000488
19105,0.009644,0.025269,0.928711,-6.286621,3.967285,12.512207
19114,0.001465,-0.096313,0.895630,-6.042480,3.845215,11.474609
19124,0.001587,-0.060791,0.886597,-5.920410,3.173828,10.437012
19134,0.041992,0.146240,1.021729,-5.615234,3.051758,9.277344
19144,0.008911,-0.171143,0.882202,-4.638672,2.624512,8.728027
19156,-0.000610,0.027954,1.071533,-2.746582,2.624512,7.995605
19166,-0.018921,-0.195312,1.028076,-1.770020,2.807617,7.995605
