timestamp,accX,accY,accZ,gyrX,gyrY,gyrZ
13,-0.000366,-0.126221,0.937378,-2.319336,3.784180,16.479492
23,0.012451,-0.117432,0.933960,-2.685547,4.028320,17.333984
32,-0.005981,-0.052856,1.008667,-3.234863,4.150391,18.371582
42,-0.029541,-0.049072,1.036621,-2.990723,4.699707,19.104004
51,-0.060791,-0.101807,1.004272,-2.441406,4.821777,19.165039
61,-0.019531,-0.155884,1.007935,-2.563477,4.028320,18.554687
70,-0.026123,-0.096680,1.014526,-2.563477,3.662109,17.211914
82,0.005249,-0.100464,1.015747,-2.319336,3.173828,15.686035
91,0.056152,-0.129883,0.966309,-2.014160,2.929688,15.197754
100,0.056519,-0.108765,0.969727,-1.892090,2.502441,14.831543
111,0.079956,-0.112061,1.000610,-2.014160,2.075195,14.892578
120,0.058228,-0.119507,1.015137,-2.502441,1.831055,15.014648
131,0.073975,-0.070923,1.017944,-2.563477,1.403809,15.075684
140,0.059082,-0.064941,1.035156,-2.563477,1.098633,15.502930
153,-0.005981,-0.042603,1.035156,-2.624512,0.305176,14.587402
162,-0.055176,0.048340,1.099365,-2.685547,0.305176,14.770508
171,-0.067017,-0.012817,1.099243,-2.807617,0.854492,14.343262
181,-0.040161,0.026855,1.059204,-2.990723,1.098633,13.732910
190,-0.029541,-0.029785,1.028076,-2.807617,0.854492,13.000488
200,0.002930,-0.038696,1.002319,-3.234863,0.305176,12.023926
211,0.006592,-0.022705,1.023926,-3.295898,-0.122070,11.413574
221,0.016113,-0.038452,1.007568,-3.601074,-0.244141,11.596680
230,-0.009033,-0.034790,0.988281,-3.601074,0.244141,11.901855
241,-0.017456,-0.043579,0.978394,-3.173828,0.122070,12.145996
250,0.021118,-0.074829,0.971191,-2.990723,0.122070,12.268066
261,0.041138,-0.058594,0.977905,-2.929688,-0.183105,12.329102
270,0.068970,-0.109009,0.954590,-2.624512,-0.366211,12.390137
281,0.093872,-0.124512,0.930542,-2.319336,-0.549316,12.145996
290,0.111816,-0.131714,0.923706,-2.441406,-1.403809,12.084961
301,0.167725,-0.115234,0.953491,-2.197266,-1.953125,12.512207
311,0.164062,-0.105957,0.978638,-2.136230,-2.441406,12.512207
320,0.174927,-0.164307,0.952637,-2.014160,-3.662109,12.329102
331,0.141602,-0.132202,0.990601,-2.014160,-4.760742,11.352539
340,0.150879,-0.097656,1.012573,-1.953125,-5.798340,9.887695
351,0.112793,0.097900,0.897949,-2.014160,-6.591797,7.690430
360,-0.000732,-0.207886,1.231201,-1.953125,-6.469727,4.150391
370,-0.253906,-0.311279,0.937500,-2.258301,-2.014160,3.051758
381,0.293945,-0.004639,0.915771,-0.549316,-3.295898,-0.549316
391,0.116211,-0.107056,0.761230,1.281738,-8.911133,-5.432129
400,-0.201416,-0.211670,0.683472,0.732422,-14.526367,-8.789063
411,-0.387207,-0.071045,1.031982,-1.586914,-14.160156,-9.033203
421,-0.191406,0.152100,1.294067,-3.540039,-9.094238,-7.263184
430,0.178223,0.218994,1.172241,-3.051758,13.427734,2.563477
442,0.312378,-0.264648,0.884521,0.671387,-3.051758,1.281738
451,0.104248,-0.273071,1.001221,-0.366211,-7.324219,-1.098633
461,0.059570,-0.063965,1.209717,-1.464844,-8.361816,-2.502441
471,-0.063232,-0.017090,1.140747,-1.098633,-8.178711,-4.455566
480,-0.128662,-0.146484,1.016357,-0.549316,-8.178711,-2.624512
490,-0.085327,-0.244873,0.849487,0.061035,-8.117676,-1.586914
501,0.021606,-0.179077,0.840210,-1.586914,-5.065918,2.502441
511,0.045532,-0.103027,0.983643,-1.953125,-3.784180,5.126953
521,-0.013672,-0.194336,0.997070,-1.770020,-3.234863,6.958008
530,-0.091064,-0.278687,0.914307,-1.647949,-3.845215,7.995605
540,-0.164185,-0.242554,0.884888,-1.281738,-4.272461,7.019043
551,-0.084595,-0.187866,1.033936,-1.403809,-3.906250,6.591797
561,0.025146,-0.059937,1.125488,-0.976562,-3.479004,6.591797
571,0.046631,-0.184570,1.020020,-0.976562,-4.577637,5.065918
580,0.068604,-0.142212,0.978149,-0.976562,-4.760742,3.967285
591,0.070190,-0.142944,1.078857,-0.610352,-4.760742,2.807617
601,0.130005,-0.198853,1.019653,0.183105,-4.882812,1.464844
610,0.130371,-0.195801,0.942505,0.000000,-5.554199,0.183105
621,0.079834,-0.151978,0.930420,-0.610352,-7.019043,-0.854492
630,0.036621,-0.104858,0.980835,-1.159668,-7.263184,-1.220703
640,0.026611,-0.016113,1.085449,-1.342773,-7.263184,-0.732422
650,0.066650,-0.013916,1.082520,-1.037598,-6.469727,-0.488281
661,0.080200,-0.151245,0.964844,-0.915527,-7.080078,-0.854492
670,0.006470,-0.105835,0.972412,-1.525879,-7.690430,-1.892090
680,0.018677,-0.062134,1.030518,-1.647949,-7.934570,-3.051758
691,0.039307,-0.188232,1.048218,-1.464844,-7.995605,-3.906250
700,0.074707,-0.156494,0.989258,-1.403809,-7.812500,-4.150391
710,0.007202,-0.140869,0.967407,-1.464844,-8.605957,-3.906250
720,-0.002197,-0.150269,0.945190,-2.075195,-8.422852,-2.014160
731,0.004639,-0.208008,0.983887,-2.746582,-8.239746,-1.098633
740,0.006104,-0.099487,1.037598,-2.990723,-7.873535,-0.488281
750,0.027710,-0.119751,1.016113,-2.502441,-7.385254,-0.305176
760,0.096680,-0.247559,0.989868,-2.136230,-7.385254,-1.525879
771,0.082886,-0.294067,1.038940,-1.770020,-8.422852,-4.272461
781,0.041870,-0.225830,1.018188,-1.464844,-10.192871,-11.474609
790,0.028564,-0.113403,1.003784,-1.220703,-10.253906,-15.014648
800,0.098755,-0.254517,0.920288,-0.915527,-10.620117,-17.883301
810,0.066284,-0.259277,0.908569,-1.037598,-11.413574,-20.263672
820,0.086304,-0.129150,1.003784,-1.281738,-11.596680,-22.033691
830,0.108765,-0.133667,1.056030,-1.281738,-11.474609,-23.620605
840,0.111206,-0.144165,1.003662,-1.098633,-11.413574,-25.085449
852,0.096558,-0.205322,0.971680,-0.610352,-11.718750,-27.770996
861,0.058716,-0.110229,0.957886,-0.793457,-11.840820,-28.930664
871,0.011230,-0.079224,1.045776,-0.793457,-12.023926,-29.357910
881,-0.002075,-0.077637,1.017090,-0.915527,-11.169434,-29.663086
891,0.001587,-0.108643,1.014038,-0.244141,-10.192871,-29.052734
900,-0.014404,-0.088379,0.979980,0.061035,-9.155273,-28.198242
911,-0.011597,-0.017822,1.024536,-0.061035,-8.850098,-27.526855
920,-0.042114,-0.006958,1.078369,0.000000,-7.568359,-25.146484
930,-0.059570,-0.004150,1.009766,0.183105,-6.958008,-23.864746
940,-0.125854,-0.116943,0.974243,0.549316,-5.798340,-22.277832
950,-0.152466,-0.061035,0.969482,0.732422,-4.455566,-20.690918
960,-0.186890,-0.026978,1.068726,0.732422,-3.173828,-19.409180
970,-0.212158,0.030273,1.056030,0.671387,-2.136230,-18.371582
980,-0.223389,0.008667,1.054443,0.671387,-1.098633,-17.272949
993,-0.197388,-0.098999,0.956787,1.098633,0.366211,-16.723633
1003,-0.150024,-0.110596,0.994019,1.281738,1.342773,-16.479492
1012,-0.128174,-0.059692,0.953613,1.403809,2.197266,-15.563965
1022,-0.082153,-0.018555,0.992310,1.281738,3.173828,-14.099121
1032,-0.072021,-0.030151,0.960937,1.281738,4.028320,-12.329102
1041,-0.033081,-0.064819,0.951050,1.281738,4.882812,-10.437012
1050,-0.027954,-0.137207,1.017334,1.342773,5.126953,-8.544922
1063,-0.015869,-0.124390,1.006348,1.098633,6.042480,-5.432129
1073,-0.037598,-0.091064,0.983887,0.854492,6.286621,-4.028320
1082,-0.055298,-0.048706,0.945679,0.671387,6.042480,-2.868652
1092,-0.073608,-0.151489,1.002075,0.549316,6.652832,-1.708984
1101,-0.045044,-0.144531,1.034302,0.366211,6.896973,-0.671387
1111,-0.024658,-0.072876,1.021973,-0.061035,7.141113,-0.244141
1121,-0.093018,-0.149170,1.018677,-0.244141,6.591797,-0.427246
1130,-0.069946,-0.129639,0.950928,0.244141,6.530762,-0.793457
1142,0.000977,-0.157104,0.842896,0.915527,6.347656,-1.464844
1152,0.030884,-0.435303,0.518433,0.549316,5.615234,-2.014160
1161,0.033325,-0.409668,0.523071,-1.586914,5.249023,-1.525879
1171,0.007324,-0.074463,0.896118,-4.760742,5.554199,0.244141
1180,-0.031616,0.087036,1.104126,-4.943848,6.164551,2.197266
1191,-0.070923,0.009521,1.202026,-3.295898,6.774902,3.173828
1200,-0.061768,0.067993,1.355957,-1.831055,7.629395,0.793457
1212,-0.057861,-0.230835,1.016235,0.122070,6.286621,-1.892090
1221,-0.015991,-0.230713,0.911499,-0.122070,5.371094,-3.906250
1231,-0.010010,-0.205444,0.927246,-0.732422,5.187988,-4.272461
1240,0.092773,-0.094971,0.944458,-0.732422,5.493164,-3.479004
1250,0.101074,-0.110962,0.953491,-0.732422,5.187988,-1.586914
1260,0.029053,-0.162109,0.943359,-0.976562,5.493164,0.183105
1270,0.004639,-0.159058,0.987915,-1.281738,5.493164,1.159668
1282,0.066040,-0.046753,1.060425,-1.586914,5.310059,0.610352
1291,0.082764,-0.115723,1.018433,-1.403809,4.821777,-0.549316
1301,0.065430,-0.210571,1.030273,-1.403809,4.089355,-1.586914
1310,0.022095,-0.169434,1.034668,-1.403809,3.234863,-2.624512
1321,0.005981,-0.148804,1.036499,-1.464844,3.173828,-3.479004
1330,-0.001709,-0.119507,0.998169,-1.770020,3.051758,-3.601074
1340,-0.007080,-0.089722,0.973999,-2.075195,3.051758,-2.441406
1352,-0.014893,-0.110352,1.014282,-2.014160,4.516602,-1.159668
1362,-0.001953,-0.085083,0.999390,-2.075195,4.394531,-0.122070
1372,-0.009888,-0.153076,0.992432,-2.136230,4.333496,0.183105
1381,-0.015503,-0.173096,1.001709,-2.136230,4.333496,-0.122070
1391,-0.021118,-0.129395,1.070679,-2.197266,3.723145,-1.220703
1400,-0.018555,-0.133789,1.048218,-1.953125,3.356934,-2.624512
1410,-0.037109,-0.182129,0.944092,-1.892090,3.051758,-4.211426
1422,0.048218,-0.198730,0.977661,-2.136230,2.746582,-6.408691
1431,0.039063,-0.067139,1.052612,-2.319336,2.685547,-6.835937
1441,-0.000854,-0.125488,1.050903,-2.258301,2.746582,-7.324219
1451,-0.029907,-0.175781,1.049927,-2.014160,2.685547,-7.995605
1460,-0.028564,-0.114502,1.036987,-1.464844,3.173828,-8.666992
1471,-0.023682,-0.157104,0.932495,-1.403809,3.479004,-9.582520
1480,0.036011,-0.209961,0.938477,-1.342773,3.234863,-10.314941
1492,0.028198,-0.104614,0.968506,-1.464844,3.234863,-10.314941
1501,-0.013794,-0.165771,0.959351,-1.403809,3.234863,-10.192871
1511,0.034302,-0.117554,0.957520,-1.464844,3.784180,-9.643555
1520,0.052002,-0.130005,1.027100,-1.525879,4.272461,-9.155273
1531,0.030029,-0.125610,0.982910,-1.525879,4.272461,-8.911133
1540,0.002808,-0.121216,0.930298,-1.525879,4.394531,-9.033203
1553,0.044800,0.227905,1.076782,-1.342773,4.394531,-8.544922
1562,-0.008057,-0.067871,1.082642,0.915527,4.394531,-8.239746
1572,-0.012085,-0.337769,0.926514,2.990723,4.455566,-8.056641
1581,0.024170,-0.231323,0.952881,2.807617,4.699707,-7.446289
1591,-0.029419,-0.085937,0.977905,2.868652,4.882812,-6.591797
1600,0.000854,-0.235596,1.078491,3.417969,5.554199,-5.493164
1611,0.067139,-0.208496,0.997559,3.356934,6.164551,-3.784180
1620,0.037842,-0.157715,0.936035,1.708984,6.469727,-0.488281
1632,0.021973,0.085449,1.030640,0.732422,6.774902,1.220703
1641,-0.013306,-0.041992,0.940552,1.647949,6.591797,3.234863
1650,-0.007202,-0.137329,0.953735,1.464844,6.530762,5.004883
1661,-0.018188,-0.034302,1.061035,0.915527,6.835937,6.835937
1670,-0.085815,0.017334,1.049561,0.366211,6.896973,8.850098
1681,-0.063477,0.003906,1.010986,0.488281,7.629395,10.986328
1690,-0.055298,0.021851,1.046509,0.915527,8.300781,13.427734
1702,-0.095215,-0.083008,1.009888,1.281738,9.338379,17.333984
1711,-0.104248,-0.079956,0.952271,1.098633,9.887695,18.432617
1721,-0.079590,-0.037354,1.049194,0.976562,9.704590,19.226074
1731,-0.075562,-0.022827,0.966431,1.159668,9.582520,19.958496
1740,-0.081055,-0.096558,0.967773,1.525879,9.338379,20.446777
1750,-0.066040,-0.104858,0.986938,1.281738,8.789063,21.362305
1763,0.011475,-0.164062,0.865112,-0.122070,8.422852,23.864746
1772,0.026367,-0.140869,0.887573,-0.549316,8.605957,25.451660
1782,0.088379,-0.129883,1.010986,-0.610352,9.155273,27.587891
1791,0.082031,-0.158936,1.006226,-0.549316,8.972168,29.357910
1801,0.100464,-0.163696,1.009521,-1.037598,8.239746,30.395508
1811,0.005493,-0.092041,0.960083,-2.197266,7.385254,31.066895
1821,-0.042358,0.010986,1.000122,-3.051758,6.103516,31.250000
1830,-0.129517,-0.038940,0.884277,-2.319336,5.493164,32.043457
1840,-0.088379,-0.150146,0.866821,-2.441406,6.164551,32.409668
1850,-0.091431,-0.009644,1.069458,-2.075195,6.286621,33.142090
1861,-0.104370,-0.218140,0.924927,-1.525879,5.737305,32.958984
1870,-0.097168,-0.023926,1.033447,-2.319336,5.310059,32.043457
1881,-0.113159,-0.176880,0.986572,-1.708984,5.187988,32.348633
1890,-0.075195,-0.269409,0.861084,-0.732422,4.760742,31.372070
1900,0.033081,-0.335571,0.964722,-1.525879,3.662109,28.747559
1912,0.074585,-0.093018,1.052002,-3.051758,2.258301,27.709961
1921,0.136963,-0.255005,0.944946,-2.624512,1.159668,26.184082
1931,0.087280,-0.241821,0.913330,-2.136230,0.488281,25.024414
1940,0.139160,-0.245972,0.958862,-2.075195,-0.122070,23.376465
1950,0.110107,-0.291138,0.998291,-2.624512,-1.098633,21.545410
1961,0.121460,-0.173828,1.088501,-3.051758,-1.892090,19.531250
1970,0.067017,-0.097656,1.029907,-3.112793,-3.295898,14.282227
1982,0.054565,-0.280151,0.971069,-2.685547,-4.577637,11.718750
1992,0.083618,-0.115112,1.024902,-3.112793,-5.065918,8.728027
2001,0.094604,-0.072754,0.971924,-3.662109,-5.737305,6.347656
2011,0.023193,-0.125366,1.046387,-4.089355,-6.469727,4.150391
2020,0.072144,-0.001831,1.022827,-3.906250,-7.446289,1.342773
2031,0.053467,-0.126587,0.956787,-3.601074,-7.934570,-1.220703
2044,0.150146,-0.049438,0.994019,-3.173828,-8.483887,-5.310059
2054,0.092041,-0.114990,0.968262,-3.112793,-8.972168,-6.530762
2064,0.061157,-0.149902,0.996338,-3.173828,-9.155273,-7.568359
2074,0.056396,-0.101318,1.067261,-3.112793,-9.216309,-8.666992
2083,0.056030,-0.155273,0.991821,-3.051758,-8.972168,-9.826660
2093,0.043335,-0.174927,0.970947,-3.723145,-9.399414,-11.901855
2103,0.092773,-0.106812,1.006348,-3.662109,-9.216309,-11.901855
2112,0.057739,-0.175781,0.967773,-3.967285,-8.666992,-12.329102
2122,0.069092,-0.100708,1.012817,-4.089355,-8.605957,-12.390137
2132,0.045166,-0.126831,0.988892,-3.723145,-8.056641,-12.084961
2141,0.025269,-0.156616,0.949585,-3.417969,-7.507324,-11.779785
2151,0.008423,-0.156372,1.015503,-3.173828,-7.080078,-11.474609
2161,-0.018555,-0.172241,0.969360,-2.746582,-6.652832,-10.986328
2170,-0.017578,-0.166748,0.972534,-2.502441,-6.103516,-10.742188
2180,-0.046387,-0.126343,0.984253,-2.319336,-5.187988,-8.911133
2190,-0.057983,-0.193359,0.937622,-1.953125,-3.723145,-7.995605
2201,-0.046021,-0.109741,0.971313,-2.624512,-3.356934,-7.385254
2210,-0.073486,-0.118042,0.899048,-2.441406,-2.563477,-6.530762
2220,-0.083618,-0.186279,0.908081,-2.197266,-1.708984,-5.493164
2231,-0.124390,-0.101074,0.906860,-2.868652,-1.037598,-4.516602
2241,-0.118164,-0.048828,0.984497,-3.479004,-0.305176,-3.540039
2250,-0.049072,0.015137,1.099121,-3.112793,0.732422,-2.624512
2262,-0.067749,0.003784,1.075317,-2.990723,0.915527,-3.295898
2271,-0.059448,0.021484,1.105835,-2.075195,1.098633,-3.967285
2281,-0.015869,-0.067993,1.009155,-0.732422,0.915527,-5.371094
2290,-0.043823,-0.085571,1.003174,-0.061035,0.610352,-6.530762
2300,-0.031250,-0.116943,0.956055,0.305176,1.159668,-6.958008
2310,-0.017334,-0.118408,0.957642,0.000000,1.953125,-6.713867
2320,-0.011230,-0.066772,0.936768,-0.976562,2.319336,-5.493164
2330,0.008789,-0.059204,0.887451,-2.014160,3.601074,-4.089355
2340,0.024902,0.018799,0.975952,-2.197266,4.272461,-2.990723
2350,0.098267,-0.036499,1.035522,-2.319336,4.089355,-1.647949
2361,0.083862,-0.005249,1.120361,-2.502441,3.662109,-0.549316
2370,0.059937,-0.000366,1.087158,-1.953125,3.479004,0.488281
2381,0.055786,-0.045898,1.003540,-1.586914,3.479004,1.037598
2390,0.010376,-0.051147,0.981567,-0.854492,3.479004,3.723145
2401,-0.013428,-0.110840,0.950684,-0.732422,3.906250,4.943848
2411,-0.050049,-0.105225,0.984009,-0.854492,4.699707,6.042480
2420,-0.125488,-0.145996,0.977051,-1.037598,4.699707,7.019043
2431,-0.087402,-0.087280,1.015259,-1.098633,4.943848,7.568359
2440,-0.101563,-0.120117,0.966919,-0.854492,5.615234,8.056641
2450,-0.050781,-0.213501,0.953735,-0.488281,5.493164,8.483887
2461,-0.088379,-0.148560,1.013428,-0.732422,6.164551,9.338379
2471,-0.027710,-0.147339,0.954956,-0.793457,6.225586,9.521484
2480,-0.057617,-0.084473,0.968750,-1.037598,6.103516,9.277344
2491,-0.062500,-0.139282,0.949707,-0.915527,6.408691,9.094238
2500,-0.042969,-0.080933,0.969238,-1.159668,6.469727,8.728027
2511,-0.011841,-0.087891,0.963501,-0.915527,6.591797,8.605957
2520,-0.039063,-0.123779,0.968872,-1.098633,6.225586,8.605957
2533,-0.051270,-0.071411,0.922485,-1.647949,6.591797,8.605957
2542,-0.012573,-0.077881,0.953369,-1.586914,7.446289,8.911133
2552,0.014771,-0.064575,0.982544,-1.953125,7.263184,8.972168
2561,0.036255,-0.125000,1.021973,-2.197266,6.896973,8.911133
2571,0.018188,-0.058716,1.081055,-2.319336,6.896973,8.666992
2580,0.023804,-0.045654,0.996094,-2.319336,6.652832,8.544922
2590,0.037598,-0.119629,0.950928,-2.197266,6.591797,8.239746
2603,0.032837,-0.115356,1.026245,-1.953125,6.164551,7.873535
2612,0.050049,-0.066895,1.030518,-1.831055,6.042480,7.507324
2622,0.055908,-0.126221,1.001709,-2.014160,5.798340,7.324219
2631,0.057983,-0.136475,1.034058,-1.831055,5.920410,7.568359
2641,0.037354,-0.065186,1.048828,-1.831055,5.920410,7.690430
2650,0.029175,-0.175171,1.000732,-1.892090,5.371094,8.117676
2660,0.001465,-0.092285,1.021484,-1.831055,5.126953,8.544922
2670,0.052490,-0.099487,0.991211,-1.647949,5.371094,10.253906
2682,0.018677,-0.118896,1.041626,-1.098633,5.615234,11.291504
2691,-0.004639,-0.175049,1.007202,-0.854492,5.798340,11.962891
2701,0.022339,-0.116089,0.988892,-0.915527,5.798340,12.512207
2710,0.013062,-0.186401,0.892212,-0.976562,5.981445,12.817383
2721,0.020874,-0.136719,0.991089,-1.525879,6.042480,13.000488
2730,-0.014404,-0.119873,1.010254,-1.586914,5.737305,13.183594
2740,-0.018921,-0.101196,1.006226,-1.403809,5.371094,13.122559
2752,-0.009644,-0.173218,0.958984,-1.281738,6.042480,13.244629
2761,-0.006226,-0.114746,1.013916,-1.220703,6.042480,13.427734
2771,0.001587,-0.100220,0.993042,-1.342773,5.554199,13.488770
2780,0.004883,-0.066162,1.063354,-1.586914,5.187988,13.610840
2791,0.021362,-0.091919,1.016846,-1.403809,5.187988,13.427734
2800,0.041626,-0.111938,0.985107,-1.220703,5.310059,13.305664
2813,0.021973,-0.153809,0.952881,-0.488281,4.821777,12.817383
2822,0.051880,-0.129395,1.059204,-0.671387,4.211426,12.695313
2832,0.058105,-0.126465,1.013428,-0.793457,4.516602,12.634277
2841,0.031006,-0.074829,1.027100,-0.793457,4.455566,12.695313
2851,0.001099,-0.129272,0.939087,-0.671387,3.906250,12.451172
2860,0.038574,-0.107788,0.961914,-0.488281,3.784180,12.268066
2870,0.083374,-0.086182,1.045776,-0.610352,3.540039,12.634277
2881,0.052856,-0.056030,1.041260,-0.488281,3.540039,13.916016
2891,0.038574,-0.057739,1.023682,0.000000,3.417969,14.404297
2901,0.048462,-0.034546,1.059204,0.366211,3.295898,14.770508
2910,0.048828,-0.078125,1.045654,0.732422,3.540039,15.258789
2921,0.020264,-0.044312,1.035767,1.098633,3.234863,15.808105
2930,0.007080,-0.054810,0.977051,1.281738,3.601074,16.418457
2941,0.004272,-0.008057,1.022583,1.770020,3.601074,17.272949
2950,0.016479,-0.051514,1.017944,2.014160,3.784180,18.432617
2961,-0.012695,-0.069946,0.948975,1.647949,3.723145,18.737793
2971,-0.061035,-0.101563,0.935547,1.464844,3.723145,18.493652
2980,-0.010986,-0.047119,0.996704,1.159668,3.540039,18.615723
2991,-0.038696,-0.087036,0.983398,0.671387,3.417969,18.615723
3000,-0.016724,-0.042236,0.980835,0.732422,3.540039,18.676758
3011,-0.064941,-0.107788,0.890381,0.732422,3.540039,19.042969
3020,-0.034302,-0.096558,0.946899,0.671387,4.089355,19.714355
3032,0.024658,-0.152466,0.962280,0.061035,4.211426,20.385742
3041,0.001465,-0.074585,0.975586,-0.122070,4.028320,21.057129
3050,0.041748,-0.128174,0.933594,-0.183105,3.906250,21.423340
3060,0.091797,-0.122192,1.001709,0.122070,3.784180,21.789551
3070,0.088501,-0.149170,0.986572,-0.061035,3.295898,22.338867
3081,0.075928,-0.150146,0.994019,-0.671387,2.685547,22.705078
3090,0.084229,-0.092529,0.960571,-0.793457,1.953125,23.864746
3102,0.059692,-0.067017,1.060547,-0.244141,1.831055,24.291992
3111,0.069580,-0.082642,1.052124,0.000000,1.831055,24.719238
3120,0.067871,-0.025635,1.045288,-0.061035,1.220703,24.841309
3131,0.051392,-0.191406,0.975952,-0.061035,0.610352,24.719238
3140,0.066406,-0.048096,1.045166,-0.305176,-0.061035,23.681641
3150,0.080322,-0.075317,1.030273,-0.183105,-0.610352,23.193359
3161,0.081421,-0.031128,1.020630,-0.366211,-2.197266,20.935059
3171,0.062500,-0.112305,1.004639,-0.305176,-2.868652,20.263672
3180,0.071655,-0.066650,0.998413,-0.549316,-2.868652,19.836426
3190,0.084106,-0.186157,0.890015,-0.793457,-3.112793,19.104004
3200,0.096680,-0.069580,0.923218,-1.220703,-3.723145,18.554687
3211,0.075073,-0.150391,0.925171,-1.037598,-3.906250,17.700195
3220,0.061890,-0.039063,1.046021,-1.342773,-4.638672,16.479492
3230,0.075073,-0.140869,1.062378,-1.281738,-5.371094,15.197754
3241,0.082275,-0.114868,1.008667,-1.037598,-5.859375,12.145996
3251,0.062012,-0.114746,1.024780,-0.854492,-6.347656,11.230469
3260,0.092163,-0.137939,1.073730,-0.793457,-6.713867,10.620117
3270,0.104126,-0.111572,1.042358,-0.549316,-6.774902,10.314941
3281,0.102173,-0.114014,1.061768,-0.549316,-6.958008,10.131836
3290,0.062378,-0.136597,1.010864,-0.366211,-6.774902,10.009766
3301,0.067627,-0.171021,1.026733,-0.366211,-6.835937,9.338379
3311,0.055908,-0.111572,0.998413,-1.037598,-7.446289,8.605957
3321,0.034790,-0.172729,0.921997,-1.159668,-7.263184,8.178711
3330,0.056152,-0.148560,0.974365,-1.831055,-7.324219,7.629395
3341,0.026978,-0.098267,0.931641,-1.953125,-7.690430,6.835937
3350,0.063232,-0.077637,0.949951,-2.258301,-7.751465,5.981445
3360,0.036499,-0.083862,0.999146,-2.136230,-7.690430,5.310059
3373,0.014893,-0.111816,0.994385,-1.647949,-7.812500,4.699707
3382,0.074951,-0.135010,0.930542,-1.281738,-8.178711,4.089355
3392,0.023315,-0.075684,1.056885,-1.281738,-8.056641,3.967285
3401,0.023315,-0.181763,0.992798,-0.732422,-7.507324,4.089355
3411,-0.015381,-0.055786,1.020020,-0.488281,-7.263184,4.394531
3420,-0.011353,-0.148560,1.014282,-0.305176,-6.347656,4.455566
3430,-0.009033,-0.067017,1.040527,0.061035,-5.554199,4.455566
3443,-0.062500,-0.117920,0.938965,0.061035,-5.249023,4.943848
3452,-0.068237,-0.131226,0.971069,0.122070,-4.882812,5.554199
3462,-0.020386,-0.067505,1.037964,0.061035,-4.333496,6.286621
3471,-0.064941,-0.122070,0.924561,-0.183105,-3.601074,7.202148
3481,-0.013794,-0.050049,1.014404,0.000000,-3.112793,8.239746
3490,-0.047363,-0.134399,1.059204,-0.061035,-2.990723,9.033203
3501,-0.008057,-0.078613,0.983887,-0.122070,-2.807617,9.582520
3510,-0.051880,-0.082642,0.947876,15.502930,-2.319336,10.620117
3520,-0.007324,-0.041870,1.033569,0.183105,-2.197266,10.925293
3530,0.016968,-0.087158,0.993286,0.366211,-2.014160,11.230469
3540,0.013672,-0.113770,0.982178,0.549316,-2.502441,11.291504
3551,0.046509,-0.073853,1.041504,0.488281,-2.685547,11.169434
3560,0.054687,-0.051636,1.066162,0.732422,-2.746582,11.108398
3570,0.056274,-0.019287,1.040894,0.732422,-2.990723,10.803223
3580,0.042969,-0.113281,1.019653,0.671387,-3.601074,10.375977
3591,0.083130,-0.069214,0.948120,0.122070,-3.967285,9.399414
3601,0.099731,-0.073730,1.008179,-0.122070,-4.394531,9.033203
3610,0.074707,-0.105957,0.943359,-0.061035,-4.882812,7.995605
3620,0.044556,-0.146118,0.903931,-0.671387,-4.943848,6.774902
3630,0.066284,-0.075195,0.922363,-1.403809,-5.615234,5.187988
3640,0.076172,-0.104858,0.996582,-1.647949,-5.615234,3.784180
3650,0.042480,-0.063232,0.962524,-1.831055,-5.920410,1.098633
3662,0.068115,-0.079956,1.012573,-1.770020,-6.469727,-0.061035
3671,0.081299,-0.132935,0.972656,-1.525879,-6.347656,-1.220703
3681,0.081055,-0.090576,0.961914,-1.525879,-6.652832,-2.319336
3691,0.040649,-0.149048,0.904419,-1.647949,-6.591797,-3.112793
3700,0.056030,-0.138062,0.936035,-1.770020,-6.347656,-3.540039
3710,0.082275,-0.069580,0.974731,-1.892090,-6.164551,-4.211426
3723,-0.017212,-0.069458,1.040771,-1.770020,-6.103516,-5.859375
3732,-0.015015,-0.024658,1.125732,-1.037598,-5.554199,-6.530762
3742,0.032959,-0.036865,1.130249,-0.488281,-5.554199,-7.202148
3751,0.009644,-0.008911,1.126221,0.244141,-5.920410,-7.812500
3761,0.024414,-0.136475,1.051392,0.793457,-5.371094,-7.690430
3770,0.040283,-0.118896,1.079590,1.220703,-4.455566,-7.263184
3780,0.071655,-0.153564,0.993286,1.098633,-3.967285,-6.164551
3791,0.071655,-0.110962,0.935425,0.183105,-2.990723,-3.479004
3801,0.024658,-0.129272,0.978149,-0.244141,-2.624512,-2.563477
3811,0.048462,-0.112061,0.931274,-0.305176,-2.624512,-2.258301
3820,0.057617,-0.086182,0.995239,-0.488281,-2.563477,-2.380371
3831,0.014282,-0.143433,1.077148,-0.244141,-2.441406,-2.441406
3840,-0.019287,-0.110229,1.041260,-0.183105,-2.929688,-2.990723
3850,0.004028,-0.110840,0.969849,0.183105,-2.502441,-2.868652
3861,0.014648,-0.175415,0.928833,0.427246,-1.647949,-1.953125
3871,-0.072754,-0.121338,0.924316,-0.183105,-1.464844,-0.976562
3880,-0.033569,-0.056641,0.974854,-0.244141,-0.793457,0.183105
3890,-0.031616,-0.049927,1.010132,-0.244141,0.488281,1.525879
3900,-0.045410,-0.101440,0.988281,-0.549316,0.732422,2.685547
3910,-0.083130,-0.153931,0.929932,-0.549316,1.220703,3.356934
3920,-0.012573,-0.082397,0.997559,-1.159668,1.342773,3.662109
3932,0.008423,-0.028198,1.075439,-1.098633,2.014160,4.272461
3942,0.011230,-0.110962,1.081299,-0.671387,1.892090,4.089355
3951,0.003906,-0.169800,0.989380,-0.183105,1.525879,3.723145
3960,0.088379,-0.190430,0.862549,0.122070,1.220703,3.540039
3970,0.116333,-0.207153,0.911743,0.610352,1.220703,3.967285
3981,0.108398,-0.262329,0.795410,0.427246,0.671387,4.577637
3990,0.106812,-0.183228,0.850342,-0.122070,0.488281,5.187988
4002,0.146484,-0.137695,1.016113,-0.854492,0.244141,5.554199
4012,0.043457,-0.180298,0.890991,-1.037598,-0.244141,5.187988
4021,0.036133,-0.057983,1.036377,-1.464844,-0.427246,4.394531
4031,0.021851,-0.186646,0.983643,-1.220703,-0.427246,3.723145
4040,0.070801,-0.075439,0.990234,-1.403809,-0.854492,3.051758
4050,0.029785,-0.162598,0.961548,-1.586914,-0.976562,2.563477
4061,0.056396,-0.067505,0.984375,-1.892090,-1.647949,2.197266
4070,0.043213,-0.187378,0.876465,-1.892090,-1.647949,2.197266
4081,0.046875,-0.133057,0.971558,-3.173828,-1.403809,2.380371
4091,0.018433,0.019043,0.989502,-3.845215,-1.708984,2.258301
4100,0.036987,-0.021484,0.982178,-4.089355,-1.525879,2.563477
4110,0.020630,0.003784,1.061646,-4.394531,-1.220703,3.112793
4121,0.021484,0.005127,1.146973,-4.272461,-0.671387,3.540039
4130,-0.005859,0.064575,1.088501,-4.272461,-0.610352,3.784180
4142,0.008789,-0.036255,1.029053,-3.601074,-0.183105,4.943848
4152,0.025269,-0.063110,1.044922,-3.723145,-0.122070,5.859375
4162,0.000977,-0.001709,1.051147,-4.028320,0.305176,7.385254
4171,-0.032593,0.027100,1.081421,-4.089355,0.549316,8.605957
4180,-0.035156,-0.005371,0.996582,-3.601074,0.549316,9.643555
4190,-0.044678,-0.077759,1.002197,-3.112793,0.793457,10.925293
4201,-0.041260,-0.095703,1.039551,-2.746582,0.854492,11.657715
4210,-0.057739,-0.092041,1.003906,-2.624512,1.281738,12.695313
4222,-0.072876,-0.108887,1.027344,-2.014160,1.525879,13.122559
4231,-0.017090,-0.155762,0.957520,-1.403809,1.098633,13.000488
4241,-0.038330,-0.241211,0.923340,-0.915527,1.342773,13.549805
4250,-0.019043,-0.189453,0.935791,-1.098633,1.220703,13.671875
4261,0.016968,-0.219238,0.978271,-1.586914,1.037598,13.854980
4270,0.044922,-0.143677,0.972656,-2.502441,1.037598,14.282227
4283,0.037964,-0.098511,0.969360,-3.051758,1.098633,15.014648
4292,0.105347,-0.163940,0.903687,-3.051758,0.671387,15.075684
4301,0.085815,-0.083984,0.965454,-3.112793,0.061035,15.014648
4311,0.080200,-0.107300,0.975098,-3.112793,-0.610352,14.953613
4320,0.035767,0.014771,0.970581,-2.746582,-1.403809,14.831543
4331,0.083374,-0.041382,0.921021,-2.319336,-1.708984,14.404297
4340,0.057251,-0.043823,1.029541,-1.647949,-2.502441,14.038086
4350,0.131714,-0.089111,1.094727,-1.037598,-2.746582,12.817383
4362,0.057129,-0.014282,1.058350,-0.915527,-3.784180,12.145996
4371,0.003418,-0.107666,1.031982,-0.488281,-4.028320,11.047363
4380,0.011353,-0.071533,1.082031,-0.488281,-4.455566,10.070801
4390,0.003052,-0.111450,0.934204,-0.122070,-4.577637,8.789063
4401,0.068359,-0.104980,1.012573,0.122070,-4.943848,7.812500
4410,0.033081,-0.174316,0.920410,0.122070,-5.493164,6.896973
4422,0.084351,-0.146362,1.044312,0.366211,-6.164551,4.821777
4432,0.100952,-0.047729,1.134277,0.671387,-6.469727,3.723145
4441,0.068604,-0.154907,1.023804,1.220703,-6.591797,2.685547
4451,0.070190,-0.194824,1.099487,1.647949,-7.080078,1.281738
4460,0.145386,-0.201294,1.119019,2.014160,-7.873535,-0.122070
4471,0.085571,-0.235840,0.976807,2.319336,-8.178711,-1.159668
4480,0.093628,-0.114380,1.040405,2.258301,-8.544922,-2.136230
4490,0.040161,-0.296997,0.904297,2.258301,-8.666992,-3.112793
4502,0.035767,-0.288208,0.910522,1.281738,-8.117676,-3.112793
4511,0.056519,-0.108887,0.927490,0.671387,-8.117676,-3.723145
4520,0.024780,-0.208618,0.896240,0.244141,-7.934570,-4.272461
4530,0.035034,-0.111694,0.951416,-0.305176,-8.300781,-5.187988
4540,0.033569,-0.189941,0.871338,-0.610352,-8.666992,-6.042480
4550,0.024658,-0.226318,0.737183,-0.915527,-8.361816,-6.347656
4563,0.015991,-0.079102,0.852051,-3.479004,-7.507324,-6.591797
4572,-0.026001,-0.046509,0.822876,-4.638672,-7.080078,-6.347656
4582,-0.000977,0.124512,1.154419,-5.615234,-6.774902,-6.042480
4592,-0.073853,-0.047363,1.016724,-4.760742,-6.164551,-5.676270
4602,-0.021729,-0.035767,1.087402,-3.601074,-5.798340,-5.126953
4611,-0.030273,-0.131104,1.027344,-3.112793,-5.615234,-4.516602
4621,-0.056641,-0.040039,0.987183,-2.990723,-5.187988,-4.028320
4631,-0.096191,-0.102661,1.052612,-2.075195,-3.723145,-2.075195
4640,-0.085693,-0.010742,1.026978,-1.342773,-3.051758,-1.220703
4650,-0.100220,-0.183960,0.896484,-0.732422,-2.441406,-0.366211
4661,-0.084106,-0.100464,0.973389,-0.488281,-1.586914,0.488281
4670,-0.074951,-0.247070,0.910278,-0.671387,-1.220703,0.793457
4681,-0.028442,-0.120605,1.024658,-1.037598,-1.037598,1.220703
4690,-0.018433,-0.147949,0.953735,-1.220703,-0.976562,1.525879
4700,-0.030029,-0.072510,1.036743,-1.281738,-0.732422,2.258301
4712,0.032837,-0.085083,1.050049,-1.831055,-1.098633,2.258301
4721,0.024170,-0.029419,1.064941,-2.075195,-1.220703,2.441406
4730,0.006592,-0.027344,1.123413,-2.136230,-1.464844,2.868652
4741,0.014282,-0.022949,1.080322,-2.014160,-1.281738,2.929688
4750,0.028564,-0.019165,1.094604,-1.892090,-1.403809,3.173828
4760,0.025757,0.022583,1.150269,-1.953125,-1.708984,3.356934
4773,0.034668,-0.055420,1.137207,-1.647949,-1.159668,4.272461
4782,0.038330,-0.108521,0.989746,-1.708984,-1.342773,4.272461
4792,0.039551,-0.082153,1.005249,-1.708984,-1.403809,3.845215
4801,0.058472,-0.082764,0.970947,-1.403809,-2.075195,3.356934
4811,0.018555,-0.175049,0.891479,-1.708984,-2.319336,2.807617
4820,0.047729,-0.110596,0.999756,-2.502441,-2.746582,2.136230
4832,-0.023682,-0.119751,0.938110,-3.479004,-2.868652,0.610352
4842,-0.072266,-0.123535,0.910522,-3.356934,-2.990723,-0.122070
4851,-0.016479,-0.034546,0.942383,-3.417969,-3.051758,-0.732422
4861,-0.110718,-0.095825,0.990845,-3.112793,-3.601074,-1.281738
4871,-0.081299,0.078369,0.949097,-2.563477,-3.112793,-2.075195
4881,-0.038330,0.011841,0.952515,-1.037598,-2.136230,-2.014160
4891,0.008911,-0.162476,0.895996,0.427246,-1.586914,-2.197266
4900,-0.006958,-0.076782,0.989136,1.037598,-1.159668,-2.563477
4913,0.009888,-0.041138,1.026489,2.258301,-1.525879,-3.601074
4922,0.038696,-0.240723,0.999390,2.380371,-2.075195,-4.272461
4932,0.014771,-0.070801,0.979004,2.014160,-1.953125,-5.065918
4942,0.059937,-0.044312,1.090332,1.831055,-1.831055,-5.249023
4951,0.046387,-0.189819,1.036865,2.014160,-2.014160,-5.371094
4961,0.050293,-0.017212,1.104004,1.647949,-2.258301,-5.493164
4970,0.017090,-0.193604,0.998901,1.892090,-2.258301,-5.615234
4982,0.100342,-0.138794,0.972168,1.770020,-2.258301,-5.859375
4991,0.079834,-0.055664,1.015747,1.098633,-1.464844,-6.042480
5001,0.064819,-0.089478,0.979370,1.159668,-1.831055,-6.347656
5010,0.099487,-0.142822,1.012817,0.976562,-2.136230,-7.324219
5021,0.070190,-0.173706,1.058228,0.915527,-2.197266,-8.117676
5030,0.025024,-0.210815,1.005859,0.793457,-2.868652,-9.216309
5041,0.054932,-0.092896,1.041626,0.610352,-3.295898,-10.375977
5050,0.049927,-0.132080,1.013550,0.305176,-3.417969,-11.657715
5062,0.022705,-0.221558,1.024780,0.244141,-2.685547,-12.023926
5071,0.009155,-0.191650,0.961304,-0.244141,-2.502441,-12.573242
5081,0.051636,-0.281494,0.893188,-0.976562,-2.563477,-13.122559
5091,0.084473,-0.145874,0.896118,-2.258301,-2.319336,-13.122559
5100,0.093628,-0.127808,0.888062,-3.540039,-2.136230,-12.756348
5110,0.076782,-0.034180,0.950928,-4.455566,-2.014160,-12.329102
5122,0.092285,-0.106812,0.961182,-4.638672,-1.525879,-11.718750
5132,0.079834,0.008423,1.072388,-3.662109,-1.708984,-11.291504
5141,0.062744,-0.113037,0.875000,-2.868652,-1.708984,-11.108398
5151,0.082275,-0.024536,0.989014,-2.197266,-1.342773,-10.253906
5160,0.068237,-0.186279,0.910400,-1.831055,-1.464844,-9.094238
5171,0.060913,0.006592,1.009766,-1.953125,-0.976562,-8.056641
5181,0.006836,-0.126831,0.907349,-1.770020,-0.366211,-6.958008
5191,-0.017456,0.027954,0.925903,-2.075195,0.183105,-5.249023
5200,-0.057983,-0.120605,0.973999,-2.136230,0.366211,-4.577637
5211,-0.107300,0.031372,1.047729,-2.197266,0.854492,-3.540039
5221,-0.110229,-0.082153,1.008301,-2.197266,1.464844,-2.807617
5230,-0.113037,-0.038208,1.058594,-1.892090,1.770020,-2.197266
5241,-0.111938,-0.173462,0.976440,-1.831055,2.014160,-1.647949
5251,-0.087524,-0.144897,1.015747,-2.014160,3.112793,-1.220703
5260,-0.086792,-0.072754,0.990601,-2.319336,3.784180,-0.488281
5271,-0.068359,-0.114990,1.027832,-2.624512,4.028320,-0.427246
5281,-0.090698,-0.125244,1.009033,-2.807617,4.211426,-0.305176
5290,-0.067749,-0.119751,1.007202,-3.112793,4.577637,-0.366211
5301,-0.047729,-0.025757,1.031250,-3.234863,4.760742,0.000000
5311,-0.034180,-0.088135,1.058960,-2.929688,5.554199,0.610352
5320,-0.039673,0.009277,1.103027,-2.807617,5.493164,1.037598
5332,-0.064941,-0.145752,1.069946,-2.197266,6.042480,1.892090
5341,-0.012329,-0.082520,1.058716,-1.525879,6.347656,2.258301
5351,-0.065308,-0.067139,1.055786,-1.098633,6.652832,2.624512
5360,-0.063110,-0.132812,0.905151,-0.854492,7.263184,3.173828
5371,-0.008911,-0.086914,0.875488,-0.671387,7.690430,3.967285
5380,-0.001587,-0.193604,0.791260,-1.037598,7.873535,5.065918
5392,-0.010254,-0.020874,0.881470,-2.685547,7.446289,6.103516
5402,-0.039551,0.093384,1.016724,-2.746582,7.080078,6.530762
5411,-0.029053,0.033936,1.044312,-2.807617,6.713867,7.080078
5420,-0.024536,0.058228,0.996338,-2.319336,6.591797,7.812500
5431,-0.039185,-0.044434,1.004028,-1.831055,7.202148,9.033203
5440,-0.028564,-0.051147,0.957642,-1.342773,7.446289,10.253906
5451,-0.014526,-0.020508,1.006592,-1.098633,7.690430,11.352539
5461,-0.017090,-0.055542,0.949585,-0.915527,7.873535,11.840820
5472,-0.010986,-0.124268,0.949463,-0.793457,7.202148,11.779785
5481,0.004028,0.030273,1.061279,-1.037598,6.958008,11.413574
5491,0.026733,-0.096069,1.011719,-0.549316,6.530762,11.230469
5501,0.037231,-0.029419,1.001343,-0.183105,6.103516,11.108398
5510,0.024170,-0.077148,1.056519,0.122070,5.554199,11.474609
5521,0.029541,-0.103027,0.996948,0.366211,5.676270,11.596680
5532,0.043091,-0.048706,1.044312,0.244141,5.065918,12.207031
5541,0.042969,-0.093384,1.050537,0.122070,4.638672,12.512207
5552,0.035278,-0.103882,0.925171,0.305176,4.150391,12.695313
5561,0.030273,-0.050415,1.003052,-0.061035,4.211426,12.817383
5570,-0.010620,-0.162964,0.900513,-0.305176,4.150391,12.451172
5581,-0.025757,-0.063354,0.947754,-1.342773,3.723145,11.596680
5590,-0.052734,-0.105591,0.970581,-1.708984,3.417969,10.681152
5602,-0.092529,-0.078735,0.972778,-1.586914,3.051758,8.422852
5611,-0.048218,-0.106567,1.002441,-1.586914,2.868652,7.568359
5622,-0.060425,-0.242554,0.888062,-2.197266,3.173828,7.324219
5631,-0.031128,-0.120728,0.990601,-2.929688,3.173828,7.324219
5641,0.006714,-0.082886,1.025879,-3.417969,3.356934,7.812500
5650,0.004395,0.000977,1.052734,-3.601074,3.356934,8.361816
5661,0.013062,-0.065430,1.008423,-3.356934,3.662109,8.972168
5670,0.042358,-0.062378,0.977051,-3.295898,3.784180,9.521484
5682,0.032593,-0.047241,1.056274,-3.234863,3.479004,10.314941
5692,0.009033,0.053345,1.041260,-3.112793,3.295898,10.742188
5701,0.015747,0.010620,1.065063,-2.563477,3.295898,10.986328
5711,0.044678,-0.059692,1.093262,-1.708984,3.051758,11.108398
5720,0.008179,-0.072510,1.011719,-1.159668,2.929688,11.718750
5731,0.014771,-0.017944,1.071045,-1.037598,2.868652,12.084961
5741,0.028198,-0.065674,1.058960,-0.366211,3.112793,12.695313
5751,-0.026123,-0.102417,0.934570,0.122070,3.356934,14.038086
5760,-0.030151,-0.109253,0.963989,-0.244141,2.929688,14.221191
5771,-0.028442,-0.111084,0.894775,-0.732422,2.624512,14.526367
5781,-0.019165,-0.054077,0.897217,-1.281738,2.380371,14.587402
5790,0.008179,-0.061523,0.983887,-1.403809,2.624512,14.404297
5801,-0.027954,-0.102417,0.927124,-1.586914,2.136230,13.793945
5811,-0.010986,-0.069336,1.055298,-1.831055,2.014160,13.183594
5820,-0.040649,-0.091553,1.005249,-1.770020,1.953125,11.718750
5831,0.008179,-0.106812,1.053101,-1.525879,1.770020,11.535645
5841,0.026123,-0.081543,1.030273,-1.586914,1.647949,11.108398
5851,-0.007446,-0.090698,0.942139,-1.892090,1.098633,10.925293
5860,0.036377,-0.008301,1.002808,-2.136230,1.037598,10.803223
5870,0.029053,-0.118042,0.867310,-2.502441,0.854492,10.864258
5882,0.025269,-0.032471,0.981445,-3.112793,0.976562,10.986328
5892,0.019653,0.001709,1.001221,-3.112793,0.976562,11.352539
5901,0.053711,-0.066895,1.002441,-2.624512,0.610352,11.352539
5911,0.040039,-0.040527,1.097534,-2.319336,0.610352,11.047363
5921,0.036133,-0.139526,0.974243,-1.708984,-0.244141,10.742188
5931,0.039551,-0.070679,0.988892,-1.281738,-0.488281,10.559082
5940,0.086304,-0.126465,0.989746,-1.037598,-0.610352,10.375977
5952,0.045288,-0.065430,0.998657,-0.244141,-1.220703,9.948730
5961,0.074097,-0.122925,0.960693,0.000000,-1.281738,9.704590
5972,0.050171,-0.249512,0.810303,0.000000,-1.586914,9.033203
5981,0.026123,-0.181885,0.837402,-0.671387,-1.831055,8.056641
5991,0.035522,-0.236572,0.850098,-1.770020,-2.624512,6.469727
6000,0.036621,-0.046387,1.009644,-2.563477,-3.112793,5.065918
6011,0.009766,-0.026855,0.974487,-2.990723,-3.112793,3.845215
6020,0.033569,0.006592,1.070679,-2.929688,-3.295898,2.502441
6032,0.043701,-0.055176,0.982788,-2.441406,-3.234863,0.488281
6041,0.063477,-0.093262,1.049561,-2.502441,-3.356934,0.000000
6051,0.058105,-0.014404,1.065918,-2.807617,-3.784180,-0.244141
6061,0.075806,-0.062012,1.019653,-2.807617,-3.356934,-0.122070
6071,0.061646,-0.037109,1.038452,-2.990723,-3.295898,0.305176
6080,0.058105,-0.036865,1.008057,-3.356934,-3.051758,0.427246
6091,0.068237,0.025635,1.018799,-3.967285,-2.685547,0.427246
6102,0.006470,-0.015259,0.980591,-4.150391,-3.112793,0.244141
6112,0.062134,0.001343,1.039795,-3.967285,-3.417969,0.183105
6121,0.008789,-0.037842,1.077271,-3.723145,-3.479004,0.671387
6131,0.049683,-0.014404,1.082642,-3.479004,-2.807617,1.159668
6141,0.004517,-0.077759,0.994995,-3.112793,-2.929688,1.953125
6151,0.042480,-0.074829,1.065552,-2.685547,-2.441406,3.051758
6161,0.001465,-0.097412,1.012817,-2.441406,-2.197266,4.028320
6172,0.000610,-0.113281,0.956421,-2.502441,-1.708984,5.493164
6182,-0.003296,-0.110107,1.008545,-2.685547,-1.647949,5.920410
6191,-0.004639,-0.037598,1.003418,-2.929688,-1.586914,6.164551
6201,-0.037109,-0.108643,0.951294,-2.868652,-1.525879,6.286621
6211,-0.023193,-0.028442,1.013428,-2.685547,-1.403809,6.530762
6221,-0.058350,-0.173218,0.876343,-2.319336,-1.525879,6.835937
6230,-0.035034,-0.088379,0.959351,-2.319336,-1.403809,6.774902
6242,-0.022339,-0.002808,0.981689,-2.319336,-0.976562,6.835937
6252,-0.013550,-0.129272,0.889648,-2.014160,-0.671387,7.141113
6261,0.002686,-0.059814,0.996216,-1.831055,-0.427246,7.263184
6271,0.007080,-0.143311,0.939209,-1.831055,-0.427246,7.324219
6280,-0.021729,-0.047363,0.970337,-2.319336,-0.549316,7.019043
6291,0.007446,-0.138794,0.944336,-2.197266,-0.793457,6.408691
6301,0.006714,0.008911,1.037720,-2.197266,-0.915527,5.737305
6312,0.024902,-0.075439,0.917969,-1.464844,-1.525879,4.760742
6322,0.024658,-0.188354,0.917725,-1.281738,-1.892090,4.333496
6331,0.028564,-0.041626,1.060913,-1.831055,-1.770020,4.150391
6341,0.021973,-0.067139,0.969604,-1.953125,-1.586914,4.211426
6350,0.013672,-0.015259,0.978760,-1.831055,-1.770020,4.516602
6361,0.021362,-0.136475,0.987549,-1.403809,-1.525879,5.004883
6370,0.020142,-0.112183,1.030029,-1.586914,-1.220703,5.187988
6382,0.028198,0.004395,1.104126,-1.953125,-1.342773,5.126953
6391,0.019653,0.000977,1.170654,-1.708984,-1.281738,5.126953
6401,-0.002808,-0.093018,1.040527,-1.159668,-1.647949,5.065918
6411,-0.005249,-0.061401,1.041260,-0.915527,-1.220703,4.760742
6420,0.044067,-0.083862,1.113403,-0.366211,-1.647949,4.272461
6431,0.030273,-0.083740,1.069946,-0.305176,-1.953125,4.028320
6440,0.031372,-0.115723,1.034058,-0.061035,-1.525879,3.662109
6452,0.042236,-0.004395,1.155518,0.427246,-2.258301,2.868652
6461,-0.006348,-0.167236,0.920532,0.732422,-2.380371,2.014160
6471,0.070068,-0.189575,0.994385,0.854492,-2.136230,1.403809
6480,0.038452,-0.129150,0.976807,0.366211,-2.502441,1.220703
6491,0.028198,-0.058594,0.961670,-0.122070,-3.051758,0.610352
6500,0.037354,-0.116699,0.942505,-0.061035,-2.929688,-0.061035
6512,0.054810,-0.100098,0.880005,-1.342773,-2.563477,-0.366211
6522,0.051880,-0.017090,1.008911,-1.586914,-2.502441,-0.549316
6531,0.031494,-0.102783,0.896240,-1.464844,-2.380371,-0.305176
6541,-0.010132,-0.096802,0.857422,-1.220703,-2.014160,0.183105
6551,0.010620,-0.132080,0.955933,-2.014160,-2.075195,0.305176
6560,0.011963,0.044678,1.058228,-2.563477,-1.831055,0.427246
6571,0.023682,-0.019531,0.990479,-2.319336,-1.708984,0.732422
6582,0.004028,0.036133,1.066650,-1.098633,-1.342773,1.586914
6592,-0.004883,-0.067871,0.947388,-0.915527,-1.037598,1.770020
6602,-0.030640,-0.091309,0.987793,-0.854492,-1.098633,1.953125
6611,0.021606,-0.004028,1.048706,-0.854492,-1.098633,2.075195
6622,0.009644,-0.092651,0.924927,-0.610352,-1.098633,2.502441
6631,-0.001587,-0.088867,0.929199,-0.244141,-0.488281,2.990723
6640,0.022339,-0.109985,0.976196,-0.488281,-0.549316,3.112793
6652,0.008057,-0.020630,1.037476,-0.549316,-0.976562,3.601074
6661,-0.028320,-0.083862,1.001953,-0.122070,-0.915527,4.089355
6671,-0.008545,-0.134644,1.049438,0.610352,-0.366211,4.272461
6682,-0.004517,-0.128540,0.984619,0.854492,-0.488281,4.516602
6691,-0.015991,-0.161621,0.923218,0.854492,-0.244141,4.577637
6701,-0.009521,-0.103271,1.003540,0.610352,-0.549316,4.943848
6711,-0.001587,-0.123291,1.053589,0.366211,-0.427246,5.187988
6724,-0.004395,-0.093506,0.989014,0.305176,0.183105,5.310059
6733,-0.007324,-0.120361,0.972900,0.244141,0.305176,5.554199
6742,-0.010254,-0.140869,0.952637,-0.183105,0.427246,5.676270
6751,-0.014404,-0.090576,1.037598,-0.671387,0.488281,5.859375
6761,-0.013794,-0.083984,1.008911,-1.220703,0.427246,5.676270
6772,0.012939,-0.060425,0.964966,-1.770020,-0.061035,5.737305
6781,-0.003906,-0.086792,1.021484,-2.197266,0.305176,5.920410
6794,0.003662,-0.008423,1.038940,-3.601074,-0.122070,5.798340
6803,0.005737,0.084839,1.056030,-4.028320,-0.366211,5.859375
6812,0.005249,0.027710,1.020996,-3.967285,0.122070,5.920410
6821,0.016479,-0.040283,1.035400,-3.784180,-0.061035,6.103516
6831,0.016357,0.005493,1.082520,-3.356934,0.000000,6.469727
6841,0.020386,0.040649,1.028198,-2.685547,-0.061035,6.652832
6852,0.000122,-0.105957,0.946777,-1.647949,0.366211,7.019043
6861,0.042969,-0.122314,0.990601,-1.220703,0.366211,7.019043
6873,0.036133,-0.034790,0.935425,-1.403809,-1.037598,6.469727
6882,-0.002075,-0.178955,0.855591,-0.854492,-1.159668,6.530762
6891,0.042114,-0.087158,0.964844,-1.281738,-0.732422,6.347656
6901,0.007324,-0.119995,0.963379,-1.892090,-0.793457,6.469727
6911,-0.004761,0.047241,0.984619,-2.014160,-0.610352,6.469727
6922,-0.020630,-0.206909,0.901978,-2.014160,-0.305176,6.652832
6931,-0.014893,-0.094727,1.000977,-2.441406,-0.305176,6.774902
6943,-0.028931,0.041992,1.022095,-2.502441,-0.732422,7.202148
6952,0.004883,-0.043945,1.017212,-1.831055,-0.854492,7.202148
6962,0.003174,-0.046753,0.997803,-1.586914,-0.671387,7.507324
6971,0.005005,-0.138184,0.969482,-1.281738,-0.549316,7.873535
6981,0.016113,-0.078613,1.069092,-0.976562,-0.183105,7.873535
6991,0.032959,-0.104858,1.043823,-0.854492,-0.488281,8.117676
7001,-0.007080,-0.086792,1.000366,-0.793457,-0.854492,7.812500
7013,0.037476,-0.068604,1.065552,-0.854492,-1.159668,6.591797
7022,0.036987,-0.145020,1.018433,-0.488281,-0.976562,6.164551
7032,-0.003784,-0.149536,0.947754,-0.915527,-1.525879,5.798340
7042,0.035156,-0.097900,0.974609,-1.342773,-1.953125,5.371094
7051,0.031128,-0.027222,1.128540,-1.586914,-1.770020,4.943848
7064,-0.016846,-0.110107,0.936768,-1.525879,-2.075195,4.150391
7074,0.041382,-0.092529,1.015381,-1.586914,-2.807617,3.417969
7084,0.042847,-0.090576,1.067993,-1.770020,-2.990723,2.868652
7093,0.035034,-0.081299,0.991211,-1.708984,-3.295898,2.136230
7103,0.033813,-0.028442,1.045532,-1.525879,-2.990723,1.586914
7112,0.064331,-0.050537,1.029175,-0.915527,-2.990723,0.610352
7122,0.057373,-0.145508,1.000244,-0.366211,-2.990723,-0.061035
7132,0.045288,-0.106934,0.973999,-0.183105,-3.540039,-0.976562
7141,0.085571,-0.037842,1.055542,-0.183105,-3.662109,-2.380371
7151,0.047852,-0.057495,0.940552,-0.305176,-3.723145,-2.990723
7162,0.024170,-0.041260,0.984863,-0.305176,-3.723145,-3.540039
7172,0.073242,-0.133057,0.986450,-0.122070,-3.540039,-3.906250
7181,0.031982,-0.077881,0.897339,-0.427246,-4.089355,-4.394531
7191,0.054932,-0.145508,0.863403,-0.854492,-4.272461,-4.882812
7202,0.084717,-0.019775,1.045044,-1.159668,-4.028320,-5.249023
7211,0.047241,-0.045410,1.012573,-1.281738,-4.333496,-5.981445
7223,0.023193,-0.118042,1.004028,-0.305176,-4.150391,-6.042480
7232,0.019409,-0.062988,1.061890,0.305176,-4.150391,-6.286621
7242,0.028198,-0.137329,0.970459,0.488281,-4.211426,-6.286621
7252,0.017944,-0.070923,0.988647,0.427246,-3.784180,-6.042480
7261,0.019409,-0.170898,0.948730,0.549316,-3.295898,-5.554199
7270,0.031250,-0.028198,1.055664,0.305176,-2.746582,-5.126953
7282,-0.001831,-0.101318,0.932495,0.183105,-2.014160,-3.845215
7292,-0.011597,-0.172485,0.923340,-0.183105,-1.831055,-3.234863
7302,0.041382,-0.065796,1.064697,-0.549316,-1.708984,-2.807617
7311,-0.064453,-0.104614,0.946655,-0.549316,-1.770020,-2.502441
7321,-0.001709,-0.067505,1.067261,-0.610352,-0.976562,-2.319336
7331,-0.009399,-0.092651,1.074097,-0.549316,-1.281738,-2.136230
7341,-0.005493,-0.109253,1.035278,-0.366211,-0.976562,-2.075195
7351,-0.016113,-0.063599,1.022705,-0.183105,-1.098633,-2.075195
7361,0.036865,-0.061401,1.102661,0.427246,-0.793457,-2.014160
7370,0.017090,-0.110474,0.990723,0.671387,-0.671387,-1.953125
7381,0.007568,-0.145386,1.024292,0.976562,-0.305176,-1.892090
7391,0.023071,-0.098633,1.028320,0.915527,-0.122070,-1.953125
7401,-0.021606,-0.109619,0.928711,0.854492,0.000000,-2.075195
7411,-0.002441,-0.088013,1.026489,0.610352,0.427246,-1.953125
7422,-0.026001,-0.117432,1.063110,0.732422,0.427246,-1.525879
7432,-0.015137,-0.088379,0.998169,0.793457,0.549316,-1.647949
7442,-0.011230,-0.091431,1.061523,0.793457,1.037598,-1.220703
7451,-0.014404,-0.093140,0.920654,0.610352,1.403809,-0.671387
7462,-0.017334,-0.013550,0.986206,0.732422,1.770020,-0.122070
7471,0.016846,-0.082520,0.946777,0.793457,1.647949,0.427246
7481,0.009766,-0.057251,0.896118,0.610352,1.464844,0.915527
7491,0.013306,-0.013306,0.947876,-0.488281,1.403809,1.342773
7502,0.009644,0.066895,0.977295,-1.770020,1.831055,1.708984
7512,-0.027466,0.133667,0.999878,-2.075195,2.258301,2.197266
7521,-0.007935,0.080444,1.069458,-1.708984,2.014160,2.441406
7530,-0.040894,0.112183,1.095337,-1.220703,2.380371,2.624512
7541,-0.025757,0.036987,1.035767,-0.915527,2.197266,2.807617
7552,-0.002930,0.079468,1.020142,-1.159668,2.197266,3.417969
7561,0.010132,0.031494,0.945312,-1.037598,2.990723,4.333496
7572,0.024170,-0.109741,0.818970,-0.671387,3.051758,6.164551
7581,0.027954,-0.105835,0.937134,-0.549316,2.563477,6.103516
7591,0.046753,0.027100,1.143433,-1.831055,2.380371,5.737305
7601,0.011719,-0.068359,0.987793,-2.075195,2.319336,5.737305
7610,0.012573,-0.127075,0.854370,-1.831055,2.319336,5.859375
7621,-0.013306,0.064453,1.027344,-2.014160,2.563477,6.286621
7632,-0.053467,-0.301636,0.621704,-1.037598,1.892090,6.652832
7642,0.012451,-0.040161,0.753174,-6.408691,1.892090,6.225586
7651,0.073486,0.274658,0.897339,-10.070801,2.380371,6.896973
7661,0.004272,0.357422,0.991943,-9.887695,2.624512,7.934570
7671,-0.034058,0.063965,0.967285,-7.202148,2.624512,8.789063
7682,-0.111694,-0.067871,0.985474,-6.042480,2.990723,8.728027
7691,-0.084839,0.016479,1.222656,-6.896973,3.540039,8.605957
7702,-0.051270,0.167114,1.284912,-6.774902,3.051758,8.117676
7712,-0.029297,0.093384,1.050659,-4.882812,3.356934,8.911133
7721,-0.015015,-0.063110,0.945557,-3.051758,3.601074,9.887695
7731,0.018921,-0.115479,1.027222,-2.746582,3.723145,10.314941
7740,0.044189,-0.001587,1.092285,-4.333496,3.784180,10.253906
7751,0.056885,-0.001709,0.984741,-5.554199,3.662109,10.437012
7761,0.030762,0.072632,0.974976,-6.530762,3.723145,10.864258
7772,0.028442,0.181885,0.991089,-5.615234,3.051758,11.047363
7781,0.028076,-0.022095,1.131836,-5.310059,2.502441,10.681152
7792,-0.021362,0.089355,1.250244,-5.615234,1.708984,10.498047
7802,-0.020752,0.095947,1.141724,-5.981445,1.892090,10.437012
7811,-0.009033,0.061523,1.012817,-6.164551,2.075195,10.681152
7821,-0.022705,0.121338,1.062012,-5.554199,2.441406,11.230469
7831,-0.039673,0.028931,0.987915,-4.760742,2.624512,11.718750
7843,-0.067871,0.009888,1.073364,-4.943848,2.197266,11.413574
7853,-0.004639,0.119263,1.040894,-5.493164,2.319336,11.230469
7862,-0.005615,0.064941,0.959473,-5.310059,2.685547,11.535645
7872,0.002563,0.125366,0.973633,-4.577637,2.624512,12.084961
7881,0.004517,0.100586,1.058350,-3.601074,2.746582,12.512207
7891,0.006592,0.026855,1.001587,-3.356934,2.563477,12.817383
7901,0.001465,0.044800,1.028320,-3.845215,2.563477,12.695313
7914,0.007446,0.129028,1.022583,-3.845215,2.197266,13.061523
7923,-0.005493,0.022095,0.936523,-2.990723,2.563477,13.427734
7932,0.014648,-0.009888,0.973022,-2.563477,2.258301,13.610840
7942,-0.012573,0.044556,1.097900,-2.502441,1.708984,13.549805
7951,0.013550,-0.024536,1.026611,-2.380371,1.586914,13.488770
7961,0.014771,0.088623,0.986206,-2.868652,1.525879,13.488770
7971,0.065674,-0.028320,0.900635,-2.380371,1.647949,13.671875
7984,0.020996,0.058838,1.078491,-1.403809,0.915527,14.404297
7993,-0.017700,0.043701,0.978149,-1.525879,1.159668,13.793945
8003,0.019531,-0.202637,0.921875,-1.647949,0.488281,13.244629
8012,0.012573,-0.014526,0.944214,-2.258301,0.732422,13.122559
8022,0.011719,0.300903,0.993286,-2.197266,0.427246,12.878418
8031,0.016113,0.238159,0.956665,0.305176,0.610352,12.634277
8042,0.023071,-0.025879,0.864624,2.746582,-0.183105,12.145996
8051,0.015503,-0.097534,0.991333,3.540039,-1.037598,10.314941
8063,0.025513,-0.069702,0.988037,3.051758,-1.159668,9.643555
8072,0.057129,-0.115112,0.893188,3.112793,-0.793457,9.155273
8081,0.029785,-0.085449,0.887939,2.563477,-0.610352,8.666992
8091,0.032104,-0.010132,1.007568,1.586914,-1.037598,8.056641
8102,0.010620,0.019897,0.970581,1.159668,-1.953125,7.141113
8111,0.049927,0.074219,1.013184,0.732422,-2.319336,6.408691
8123,0.063843,0.027344,0.960205,0.122070,-2.075195,5.798340
8133,0.091919,-0.043579,1.004639,0.549316,-1.953125,5.798340
8142,0.065674,-0.060547,0.955566,0.366211,-2.319336,5.798340
8152,0.092529,0.101440,1.111816,-0.061035,-3.051758,5.920410
8161,0.101196,0.115112,1.105103,-0.488281,-3.173828,5.554199
8172,0.053955,0.054443,1.031616,-0.732422,-3.112793,5.371094
8181,0.072266,0.007568,1.004883,-0.549316,-3.601074,5.065918
8191,0.042236,0.030884,0.992798,-0.244141,-4.089355,4.577637
8202,0.040649,-0.016846,1.088501,-0.244141,-4.577637,3.845215
8212,0.015991,0.036255,1.010620,-0.305176,-4.272461,3.662109
8222,0.027832,0.057861,1.012329,-0.732422,-4.150391,3.417969
8231,0.024536,0.032837,1.023926,-0.854492,-3.906250,2.929688
8242,0.002197,0.029297,1.008301,-0.976562,-4.211426,2.319336
8251,-0.002808,-0.017334,0.995605,-1.159668,-4.333496,1.647949
8261,-0.015869,0.016846,0.997681,-0.976562,-4.638672,1.037598
8273,0.021851,0.022461,1.035156,-0.061035,-4.394531,0.305176
8282,0.044678,0.013428,1.018188,-0.061035,-4.699707,-0.427246
8292,0.038330,0.003662,0.993286,-0.366211,-4.577637,-1.281738
8301,0.047974,0.007080,0.998169,-0.488281,-4.577637,-1.831055
8311,0.075806,-0.068726,0.947632,-0.549316,-4.272461,-2.197266
8322,0.043579,-0.003418,0.939453,-0.976562,-4.211426,-2.380371
8331,0.042725,0.040649,0.984741,-1.525879,-4.638672,-3.234863
8343,0.032715,0.140381,1.078491,-2.258301,-4.089355,-2.807617
8352,0.057739,0.099243,1.061890,-2.319336,-4.028320,-2.685547
8361,0.028931,0.124023,1.090454,-1.953125,-3.662109,-2.380371
8371,0.045044,0.083374,1.088501,-1.220703,-3.906250,-2.258301
8381,0.025635,0.041504,1.053589,-1.098633,-4.211426,-2.380371
8392,0.057495,0.017456,1.061157,-1.037598,-4.394531,-2.258301
8401,0.027222,0.001343,1.048462,-1.281738,-3.845215,-2.502441
8411,0.034058,0.041748,1.023682,-1.159668,-3.845215,-2.502441
8422,0.017700,0.025391,0.997559,-1.037598,-3.295898,-2.746582
8431,0.006958,-0.024902,1.007690,-0.671387,-4.211426,-3.234863
8441,0.000854,0.005005,0.982544,-0.427246,-4.333496,-3.356934
8452,0.021484,-0.061523,0.985718,0.000000,-4.089355,-3.723145
8461,0.031128,-0.024780,0.971558,0.122070,-4.150391,-3.906250
8474,0.015015,-0.049316,0.891846,0.305176,-3.479004,-3.845215
8483,0.019043,-0.034424,0.905518,0.122070,-3.540039,-3.967285
8492,-0.005127,0.008057,0.949097,-0.366211,-3.662109,-3.967285
8502,-0.015503,0.020752,0.955322,-0.427246,-3.173828,-4.028320
8512,-0.028931,0.067383,0.965210,-0.915527,-2.929688,-3.662109
8522,-0.025024,0.058838,0.999023,-0.976562,-2.319336,-3.173828
8532,-0.013916,0.089111,0.989624,-0.915527,-2.014160,-2.746582
8541,-0.004639,0.048096,0.998413,-0.549316,-1.831055,-1.586914
8551,-0.002563,0.080444,0.991089,-0.122070,-1.586914,-1.159668
8562,0.000854,0.038574,0.996460,-0.183105,-1.342773,-0.732422
8571,0.005127,-0.011597,0.978271,0.305176,-0.915527,-0.488281
8582,0.010132,0.056274,1.021484,0.061035,-1.342773,-0.122070
8591,-0.000977,0.041504,1.026855,0.183105,-1.281738,0.061035
8602,0.002686,0.037476,1.023682,0.061035,-1.037598,0.427246
8611,0.016357,0.031128,1.041748,0.122070,-1.342773,0.549316
8623,0.009888,0.000122,1.036133,0.305176,-0.854492,0.549316
8632,0.007568,-0.009888,1.022461,0.183105,-1.159668,0.488281
8642,0.005371,-0.043457,1.010864,0.061035,-0.976562,0.305176
8651,0.004272,-0.046143,0.997925,0.244141,-1.159668,0.244141
8662,-0.007202,-0.020874,0.958618,-0.183105,-1.098633,0.305176
8671,-0.000977,-0.000854,0.964600,-0.244141,-1.159668,0.427246
8684,-0.003052,-0.001709,0.987915,-0.366211,-0.427246,1.159668
8693,-0.021240,0.018188,1.006104,-0.244141,-0.366211,1.281738
8703,0.010132,0.033447,1.021851,-0.183105,-0.244141,1.647949
8712,-0.008057,0.041138,1.007935,0.061035,-0.549316,1.953125
8721,0.049316,-0.003662,1.032959,0.366211,-0.183105,2.136230
8731,-0.012451,0.037231,1.021851,0.183105,-0.122070,2.258301
8742,0.040283,-0.017700,1.009155,0.183105,0.183105,2.563477
8751,-0.011108,0.012939,1.019775,0.061035,-0.122070,2.624512
8762,0.006104,-0.016113,0.970947,-0.610352,-0.488281,1.831055
8772,0.010376,0.009766,0.990723,-0.915527,-0.732422,2.075195
8781,0.004028,0.039307,0.963257,-0.793457,-0.732422,2.197266
8792,0.020996,0.042236,1.009033,-0.915527,-0.732422,2.380371
8801,0.026978,0.017090,1.025879,-1.037598,-0.610352,2.319336
8811,-0.001831,0.007935,1.028687,-1.037598,-0.305176,2.624512
8822,0.028931,0.042969,1.043823,-1.403809,-0.854492,2.258301
8832,0.021362,-0.070312,0.980469,-1.037598,-0.427246,2.075195
8841,-0.031372,-0.050537,0.955200,-0.793457,-0.366211,2.014160
8851,0.022095,-0.044678,0.987305,-0.976562,-0.793457,1.831055
8862,0.002563,0.005005,1.020752,-1.098633,-0.488281,1.708984
8871,0.017456,0.025757,1.030273,-1.464844,-0.610352,1.586914
8882,0.028442,0.020264,1.039551,-1.586914,-0.671387,1.525879
8891,0.018066,-0.003540,0.980957,-1.647949,-0.427246,1.037598
8901,0.020996,-0.012085,0.980835,-1.525879,-0.549316,0.976562
8912,0.028564,0.002197,1.042603,-1.403809,-0.793457,0.793457
8921,-0.000854,0.041138,1.007202,-1.770020,-1.159668,0.488281
8932,0.033081,0.002563,1.010132,-1.770020,-0.976562,-0.061035
8941,0.025513,-0.044922,0.944214,-1.708984,-1.037598,-0.183105
8952,0.018433,-0.020508,0.996094,-1.831055,-1.403809,-0.305176
8961,0.028198,-0.033081,1.012939,-2.014160,-1.342773,-0.610352
8971,0.015137,0.017822,0.996338,-2.258301,-1.708984,-0.732422
8982,0.015015,-0.043213,0.915161,-2.319336,-1.586914,-1.037598
8991,0.016479,0.065063,0.985596,-2.685547,-1.403809,-1.342773
9001,0.031372,0.031128,1.010010,-2.685547,-1.525879,-1.586914
9012,0.020386,-0.046265,0.957397,-2.624512,-2.136230,-2.136230
9021,0.026489,-0.037354,0.976807,-2.624512,-1.831055,-2.563477
9031,0.003784,0.038330,1.023071,-2.746582,-1.708984,-3.112793
9041,0.005493,0.104492,0.934937,-1.831055,-1.892090,-3.173828
9052,-0.002197,-0.039307,1.016479,-1.525879,-1.770020,-3.234863
9062,0.019165,-0.016479,1.027954,-1.464844,-1.831055,-3.601074
9071,0.011963,-0.049316,0.957520,-1.220703,-1.953125,-3.723145
9081,0.015137,-0.060547,0.942383,-1.403809,-1.770020,-3.662109
9091,0.028809,-0.009033,0.999634,-1.708984,-1.770020,-3.967285
9101,0.017822,-0.016724,0.975708,-1.708984,-1.892090,-4.577637
9111,-0.024658,-0.006836,0.983765,-2.197266,-2.075195,-4.943848
9121,0.006348,0.008423,0.985107,-2.197266,-1.708984,-5.187988
9132,0.029419,0.019165,0.970947,-2.197266,-2.075195,-5.126953
9141,0.010254,-0.027222,0.993286,-2.319336,-2.075195,-5.187988
9151,0.021973,-0.019287,0.998413,-2.685547,-1.831055,-5.126953
9161,0.000488,-0.008057,1.010986,-2.502441,-1.403809,-5.004883
9171,-0.009766,-0.000732,1.001221,-2.441406,-1.403809,-5.126953
9181,-0.005737,-0.002808,0.978760,-2.441406,-1.525879,-5.004883
9191,0.000488,-0.003540,1.025513,-2.258301,-1.220703,-5.126953
9201,-0.002930,0.006958,1.063965,-2.502441,-1.403809,-5.065918
9211,-0.007202,-0.046997,0.980103,-2.563477,-1.159668,-5.004883
9222,-0.023315,0.038940,1.003174,-2.502441,-1.159668,-5.065918
9231,-0.008911,0.033325,1.017456,-2.197266,-1.037598,-5.249023
9241,-0.001343,-0.027588,0.980713,-2.014160,-1.037598,-4.943848
9251,-0.009521,0.001587,0.986938,-2.014160,-0.610352,-4.821777
9261,0.004761,-0.029419,0.987549,-2.075195,-0.671387,-4.455566
9271,-0.009399,-0.018555,0.966675,-2.197266,-0.488281,-4.150391
9281,-0.000610,0.016479,0.983398,-2.014160,-0.549316,-3.967285
9291,-0.016479,-0.036865,0.982544,-1.953125,-0.305176,-3.540039
9301,-0.019897,-0.001221,0.996826,-2.197266,-0.122070,-3.112793
9311,-0.024536,-0.030884,0.992920,-2.258301,-0.122070,-2.380371
9323,-0.034912,0.027466,0.977905,-2.136230,0.488281,-1.770020
9332,-0.019287,0.018066,0.986816,-2.258301,0.671387,-1.647949
9342,-0.034424,-0.037109,0.963989,-2.197266,0.305176,-1.098633
9351,-0.030151,0.041260,0.997559,-2.502441,0.671387,-0.610352
9361,-0.035767,0.052124,1.018311,-2.624512,1.159668,0.000000
9371,-0.027344,0.008789,0.962036,-2.685547,1.159668,0.427246
9381,-0.027344,0.040649,0.994751,-2.685547,1.464844,1.037598
9392,-0.027344,-0.036011,0.993286,-2.441406,1.586914,1.831055
9402,-0.027588,0.030029,1.039673,-2.746582,2.075195,1.953125
9411,-0.029907,-0.019531,0.984985,-2.807617,1.770020,2.258301
9421,-0.022461,-0.033813,0.980103,-2.746582,2.014160,2.807617
9432,-0.014160,0.021118,1.013306,-2.624512,2.014160,3.295898
9441,-0.011475,-0.056274,0.982056,-2.502441,2.075195,3.967285
9454,-0.044800,0.035156,1.053223,-2.563477,2.990723,5.126953
9463,-0.034546,-0.038208,0.960449,-2.624512,2.929688,5.676270
9473,-0.043091,-0.026978,1.013062,-2.441406,2.929688,6.347656
9483,-0.051392,0.022095,0.995239,-2.319336,3.173828,6.713867
9492,-0.039673,0.015381,1.008911,-2.441406,3.051758,7.263184
9502,-0.034302,0.017212,1.006470,-2.075195,3.173828,7.751465
9511,-0.037598,-0.003418,0.973877,-2.258301,3.295898,8.361816
9521,-0.022217,0.048096,1.024902,-2.136230,3.845215,9.826660
9532,-0.020386,-0.038208,1.007568,-1.953125,4.089355,10.314941
9542,-0.015259,0.028687,1.028809,-1.953125,3.906250,10.681152
9551,-0.026489,-0.047852,0.950684,-1.892090,4.211426,11.047363
9561,0.003784,0.000488,1.010498,-1.953125,4.394531,11.291504
9572,-0.011353,-0.015137,0.967651,-1.953125,4.089355,11.657715
9582,0.011230,-0.026611,1.013672,-1.831055,3.967285,11.962891
9591,0.004639,-0.093750,0.977417,-1.525879,3.845215,12.451172
9603,0.014771,0.006226,1.009521,-1.892090,4.333496,12.695313
9612,-0.002319,-0.007935,0.978394,-2.136230,3.967285,12.878418
9622,0.012817,-0.064087,0.994263,-1.892090,3.967285,12.817383
9631,0.004639,-0.012573,1.003052,-1.831055,3.417969,12.573242
9642,0.017334,-0.022583,1.029785,-1.953125,3.540039,12.268066
9651,0.026611,-0.124756,0.992676,-1.708984,3.112793,11.840820
9664,0.036133,0.012085,1.018066,-2.197266,2.990723,11.596680
9673,0.004517,-0.062988,0.984497,-2.014160,2.807617,11.352539
9683,0.025146,-0.061401,0.997925,-2.075195,2.868652,11.169434
9692,-0.000732,0.005737,1.003174,-2.441406,2.746582,10.925293
9702,0.025146,0.013428,1.016846,-2.563477,2.258301,10.498047
9711,0.003174,-0.085571,0.989990,-2.258301,2.502441,9.948730
9722,0.028076,-0.016724,1.030396,-2.563477,2.319336,9.399414
9731,0.003052,0.000122,1.035522,-1.647949,1.159668,7.690430
9743,0.031372,-0.055664,1.010132,-1.647949,2.075195,7.080078
9752,0.037842,-0.001465,1.016724,-1.831055,1.708984,6.713867
9762,0.053955,-0.066895,1.012695,-1.342773,1.342773,6.469727
9771,0.044067,-0.143188,0.961182,-1.159668,0.915527,6.225586
9782,0.052124,-0.090576,1.012573,-1.342773,0.915527,6.042480
9791,0.033203,-0.060059,0.984009,-1.586914,1.037598,5.920410
9804,0.034058,-0.107544,0.955078,-1.159668,0.854492,5.859375
9813,0.023804,-0.074097,0.998901,-1.281738,0.549316,5.798340
9822,0.002563,-0.045410,1.017334,-1.159668,0.488281,5.737305
9832,-0.001953,-0.043213,1.014038,-0.732422,0.244141,5.676270
9841,0.018677,-0.133911,0.981201,-0.366211,-0.244141,5.065918
9851,0.012939,-0.064819,1.011597,-0.854492,-0.244141,4.638672
9862,0.032104,-0.099487,0.979004,-0.854492,0.061035,4.211426
9871,0.012573,-0.121704,0.987427,-0.793457,-0.122070,3.723145
9883,0.029175,-0.027466,1.000366,-1.647949,-0.244141,3.662109
9892,0.036621,-0.038086,0.986938,-1.098633,-0.305176,3.295898
9901,-0.032959,-0.110474,0.943726,-1.159668,-0.244141,3.051758
9912,0.038086,-0.034912,1.029419,-1.281738,0.244141,3.417969
9921,0.050537,-0.027954,1.021851,-1.220703,0.061035,3.479004
9932,0.040771,-0.054810,1.031128,-1.220703,-0.305176,3.051758
9942,0.031494,-0.125977,0.949829,-1.342773,0.000000,2.258301
9953,0.051270,-0.068604,1.002930,-1.220703,-0.671387,1.892090
9963,0.026245,-0.122192,1.008179,-0.976562,-0.732422,1.525879
9972,0.022095,-0.129761,0.978516,-1.159668,-0.305176,1.647949
9982,0.015137,-0.008301,1.025269,-1.403809,-0.427246,1.831055
9991,0.006958,-0.064331,0.987427,-0.732422,-0.549316,1.892090
10002,0.012939,-0.151611,0.994263,-0.610352,-0.854492,1.770020
10011,0.032471,-0.126953,0.954346,-1.159668,-1.159668,1.586914
10023,0.021362,-0.074341,0.972534,-0.854492,-1.281738,1.525879
10032,0.024902,-0.114990,0.965210,-1.098633,-0.793457,1.403809
10042,-0.003662,-0.028809,0.970825,-1.403809,-0.732422,1.403809
10051,0.014404,-0.051147,0.967529,-1.525879,-0.854492,1.647949
10062,0.047485,-0.231812,1.002808,-1.342773,-0.549316,1.892090
10072,0.038086,-0.295410,0.975586,-1.770020,-0.427246,2.197266
10081,-0.038330,0.012939,1.047363,-2.319336,-0.488281,1.892090
10093,0.071167,-0.191895,0.978027,-1.037598,-0.793457,1.098633
10102,0.006104,-0.188599,1.029297,-1.037598,-1.464844,0.793457
10112,-0.042725,-0.043213,1.045776,-1.281738,-2.136230,0.732422
10121,-0.007935,-0.113647,0.980103,-1.037598,-1.831055,0.854492
10131,0.062744,-0.128540,0.947876,-0.854492,-0.854492,1.586914
10142,0.057251,-0.051392,0.928467,-1.342773,-0.244141,2.685547
10151,0.050415,0.010620,0.992920,-1.403809,0.305176,3.845215
10163,-0.006836,-0.154663,0.985840,-1.037598,-0.122070,3.601074
10172,-0.010742,-0.045044,1.026367,-1.220703,-0.732422,3.173828
10182,0.044067,-0.086182,0.996948,-1.342773,-1.159668,2.441406
10191,0.023682,-0.140259,1.025146,-0.976562,-1.159668,2.014160
10202,0.029419,-0.111938,0.976196,-1.159668,-1.037598,2.075195
10211,0.057983,-0.076172,1.025269,-1.098633,-0.915527,2.319336
10224,0.040161,-0.143311,1.006348,-0.854492,-1.281738,2.624512
10233,0.006592,-0.108765,1.002075,-0.854492,-1.647949,2.990723
10243,0.004028,-0.125854,0.974365,-0.427246,-1.586914,3.234863
10252,-0.011475,-0.176514,0.998169,-0.122070,-1.770020,3.112793
10262,-0.031250,-0.148804,0.975952,-0.488281,-1.586914,3.051758
10272,-0.023682,-0.034790,1.015137,-0.610352,-1.281738,3.662109
10282,-0.024658,-0.180420,0.987183,0.122070,-0.976562,4.455566
10291,-0.032837,-0.145630,0.959229,-15.319824,-0.488281,5.859375
10303,0.011597,-0.094604,0.973267,-0.061035,0.305176,6.286621
10312,0.002563,-0.174927,0.995972,0.244141,0.305176,6.591797
10321,0.000244,-0.195068,0.929810,-0.122070,0.244141,6.286621
10332,0.033936,-0.117310,1.024048,-0.549316,0.183105,6.103516
10342,0.064941,-0.163208,1.024048,-0.427246,0.061035,5.798340
10351,0.073120,-0.162109,0.989746,-0.671387,-0.183105,5.737305
10363,0.080688,-0.221924,0.970459,-0.732422,-0.671387,5.249023
10373,0.052124,-0.151245,1.026001,-0.549316,-1.037598,5.126953
10383,0.022217,-0.124756,0.994385,-0.610352,-1.647949,4.943848
10392,-0.007446,-0.157104,0.979004,-0.244141,-1.464844,5.004883
10402,-0.045410,-0.130371,0.985474,-0.244141,-1.403809,5.187988
10411,-0.051880,-0.112427,0.964722,-0.427246,-1.159668,5.737305
10423,-0.023437,-0.118286,1.010986,-0.305176,-0.061035,8.972168
10433,-0.005493,-0.106567,1.031250,-0.915527,-0.244141,10.925293
10442,0.019653,-0.109863,1.018188,-0.915527,0.061035,12.817383
10452,0.010864,-0.188477,0.959106,-0.854492,0.427246,14.282227
10461,0.010864,-0.181519,0.959717,-1.098633,-0.061035,14.587402
10472,-0.007202,-0.167725,0.911987,-1.220703,-0.366211,14.343262
10481,-0.003906,-0.207153,0.904541,-1.342773,-0.061035,13.793945
10493,0.017334,-0.150146,0.964722,-1.525879,0.366211,11.840820
10502,0.029541,-0.208862,0.984497,-1.159668,-0.427246,11.352539
10512,0.041748,-0.207642,0.975220,-1.281738,-0.915527,10.864258
10522,0.023560,-0.156738,1.005005,-1.403809,-1.220703,10.131836
10532,0.018677,-0.231445,0.976196,-1.159668,-1.464844,9.399414
10542,-0.007813,-0.220703,0.956543,-1.403809,-1.892090,8.422852
10551,-0.008301,-0.165649,0.967041,-1.464844,-2.258301,7.446289
10563,0.029663,-0.249634,0.952637,-1.647949,-2.380371,4.821777
10573,0.063354,-0.218628,0.992798,-2.075195,-2.563477,3.479004
10583,0.074097,-0.230835,1.010010,-2.075195,-2.746582,2.502441
10592,0.060181,-0.217773,1.009644,-2.014160,-3.417969,1.281738
10602,0.055054,-0.211426,1.007935,-1.953125,-3.417969,0.427246
10612,0.068604,-0.225830,1.002197,-1.586914,-4.089355,-0.427246
10622,0.041260,-0.225952,0.977295,-1.892090,-4.272461,-1.281738
10631,0.027466,-0.250977,0.978394,-1.770020,-4.333496,-1.770020
10643,0.006348,-0.198242,0.965820,-1.892090,-4.455566,-3.051758
10653,0.027100,-0.246704,0.985718,-1.831055,-3.845215,-3.723145
10662,0.018799,-0.252319,0.956543,-2.197266,-4.089355,-4.516602
10672,0.017456,-0.222656,0.972656,-2.441406,-3.967285,-5.310059
10682,0.012817,-0.235718,0.972656,-2.624512,-3.906250,-5.981445
10692,0.008789,-0.227539,1.003662,-2.868652,-4.089355,-6.469727
10701,0.022705,-0.260010,1.015747,-2.868652,-4.577637,-6.530762
10711,0.010498,-0.233032,1.028076,-2.685547,-3.967285,-6.469727
10723,-0.010376,-0.231445,1.007080,-2.563477,-3.723145,-6.347656
10733,-0.033447,-0.202881,1.021606,-2.624512,-3.479004,-6.164551
10742,-0.045654,-0.208130,0.995239,-2.380371,-2.868652,-5.981445
10752,-0.048828,-0.213501,0.978882,-1.953125,-2.807617,-5.798340
10762,-0.044312,-0.193726,0.992187,-1.953125,-2.807617,-5.615234
10772,-0.052368,-0.228516,0.986938,-1.770020,-2.624512,-5.187988
10783,-0.050659,-0.196411,1.009277,-1.770020,-1.586914,-3.967285
10793,-0.054077,-0.194824,0.987061,-1.647949,-1.098633,-2.746582
10803,-0.066895,-0.165283,0.991211,-1.586914,-0.488281,-1.770020
10812,-0.065063,-0.225464,0.983154,-1.525879,0.122070,-0.610352
10822,-0.060181,-0.187866,0.998535,-1.342773,0.366211,0.366211
10832,-0.038086,-0.219849,1.018433,-1.098633,0.732422,1.281738
10842,-0.048584,-0.170166,1.003784,-1.220703,0.793457,2.136230
10853,-0.057251,-0.186279,0.952759,-0.915527,1.220703,4.333496
10863,-0.067993,-0.178101,0.955566,-1.220703,1.525879,5.737305
10872,-0.072876,-0.207642,0.965088,-1.220703,2.075195,7.263184
10882,-0.064697,-0.114624,0.993408,-1.281738,2.746582,8.117676
10892,-0.073120,-0.157349,0.972534,-0.976562,3.295898,9.216309
10902,-0.064453,-0.174561,0.981812,-0.671387,3.845215,10.253906
10913,-0.058472,-0.191284,1.022583,-0.854492,3.967285,11.962891
10923,-0.085815,-0.197754,0.999878,-0.671387,4.028320,12.268066
10933,-0.070557,-0.149902,0.972900,-0.732422,4.089355,12.329102
10943,-0.090332,-0.144043,0.972168,-0.854492,4.455566,12.451172
10952,-0.065552,-0.192993,0.942871,-1.037598,4.211426,12.878418
10962,-0.058960,-0.134766,0.925781,-1.342773,4.272461,13.366699
10972,-0.005615,-0.152954,0.952271,-1.525879,5.004883,13.854980
10982,-0.000122,-0.121948,0.965698,-1.831055,5.493164,14.465332
10991,0.020630,-0.195068,0.976196,-2.319336,5.065918,14.892578
11003,-0.015381,-0.199097,0.993042,-2.014160,4.699707,14.404297
11013,-0.045654,-0.162964,0.989136,-2.258301,4.577637,14.099121
11022,-0.037476,-0.157471,1.024292,-2.197266,4.333496,13.854980
11032,-0.011719,-0.099609,1.036011,-1.708984,4.516602,13.977051
11041,-0.030273,-0.095459,1.034058,-1.525879,4.211426,13.977051
11053,-0.015015,-0.114624,0.979370,-1.770020,4.638672,14.770508
11063,-0.026978,-0.134399,0.966309,-1.770020,4.577637,15.380859
11072,-0.045288,-0.107056,0.971069,-1.770020,4.638672,15.625000
11082,0.011475,-0.107544,0.988770,-1.586914,4.821777,15.380859
11092,-0.036743,-0.101196,0.975464,-1.647949,4.394531,15.258789
11102,-0.004761,-0.164062,0.970825,-1.647949,4.516602,15.563965
11111,-0.032349,-0.068359,0.988403,-1.586914,4.577637,15.747070
11123,-0.000977,-0.047729,1.019165,-0.976562,4.577637,17.578125
11133,-0.046997,-0.109985,0.986328,-0.488281,5.187988,18.615723
11142,-0.020386,-0.125854,0.968262,-0.366211,5.615234,19.592285
11152,-0.031006,-0.151367,1.003052,-0.549316,6.225586,20.324707
11162,0.000122,-0.122314,1.024048,-0.427246,5.920410,20.690918
11172,-0.029297,-0.130005,1.042847,0.000000,5.676270,20.996094
11182,-0.006714,-0.123047,1.014282,0.488281,5.310059,20.446777
11192,-0.046509,-0.111572,1.029297,0.549316,4.638672,18.981934
11204,-0.045654,-0.084839,1.020752,0.427246,3.784180,18.615723
11213,0.032471,-0.103516,1.004150,0.671387,4.089355,18.310547
11222,0.038086,-0.145996,1.005371,0.610352,3.845215,18.127441
11232,0.083252,-0.147339,1.003540,0.549316,3.173828,17.944336
11242,0.065063,-0.121826,1.005859,0.488281,3.356934,17.822266
11252,0.054932,-0.117554,1.001953,0.610352,3.662109,17.456055
11263,0.085815,-0.157593,0.995850,1.098633,2.929688,15.808105
11273,0.057129,-0.155029,0.980225,0.427246,2.014160,14.099121
11282,0.054932,-0.127075,1.007568,0.366211,1.098633,12.573242
11292,0.034058,-0.099121,1.015137,0.244141,0.366211,11.352539
11302,0.082153,-0.119507,0.996582,0.427246,0.427246,10.009766
11312,0.084839,-0.084106,0.967896,0.183105,-0.366211,8.850098
11322,0.111572,-0.100952,1.002319,0.061035,-0.732422,7.812500
11332,0.101563,-0.051758,1.005371,-0.366211,-1.220703,6.225586
11343,0.091309,-0.137695,0.949707,-0.183105,-2.014160,2.929688
11353,0.088745,-0.159668,0.947632,-0.610352,-2.380371,1.159668
11362,0.065674,-0.105469,0.955688,-0.976562,-2.929688,-0.183105
11372,0.040649,-0.104004,0.941406,-1.403809,-3.234863,-1.281738
11383,0.038330,-0.102295,0.939209,-2.014160,-3.295898,-2.319336
11392,0.033691,-0.086914,0.932129,-2.380371,-2.929688,-2.868652
11402,0.048706,-0.056885,0.964111,-2.685547,-2.746582,-2.746582
11414,0.030151,-0.026733,1.034058,-2.990723,-2.502441,-2.929688
11423,0.026123,-0.087769,1.051025,-2.929688,-2.807617,-2.807617
11433,0.008789,-0.055054,1.061401,-2.990723,-3.051758,-3.112793
11443,0.020874,-0.127930,1.051270,-2.807617,-2.990723,-3.356934
11452,0.008301,-0.078247,1.025391,-2.563477,-2.868652,-3.417969
11462,0.014648,-0.137207,1.017212,-2.441406,-2.441406,-3.173828
11472,0.028687,-0.092163,1.026611,-2.197266,-2.258301,-2.685547
11483,0.033081,-0.100830,1.024902,-1.770020,-1.708984,-1.281738
11493,0.011597,-0.117554,1.067383,-1.708984,-1.586914,-0.366211
11503,0.002808,-0.127808,0.992798,-1.098633,-1.220703,0.549316
11513,0.009277,-0.285278,0.866943,-0.793457,-0.793457,1.342773
11522,0.035645,-0.250122,0.854126,-1.342773,-0.488281,2.380371
11532,0.030151,-0.246704,0.862915,-1.831055,0.061035,3.173828
11543,0.031372,-0.219849,0.906860,-2.319336,-0.549316,3.723145
11553,0.043579,-0.275146,0.917603,-2.502441,-1.037598,3.662109
11562,0.053589,-0.241211,0.973877,-3.112793,-1.037598,3.173828
11572,0.077515,-0.115845,1.041138,-3.234863,-0.915527,3.051758
11582,0.096558,-0.132935,1.082764,-3.112793,-0.610352,2.990723
11592,0.087646,-0.143677,1.098999,-2.380371,-0.976562,2.990723
11602,0.066895,-0.228271,1.033691,-1.708984,-0.976562,3.112793
11612,0.050781,-0.145386,1.043091,-1.708984,-1.403809,3.234863
11623,0.051392,-0.100220,0.984619,-1.708984,-1.708984,3.784180
11633,0.071655,-0.150269,0.936523,-1.708984,-1.525879,4.150391
11643,0.078491,-0.130249,0.955444,-1.586914,-1.892090,4.638672
11652,0.048950,-0.200439,0.984619,-1.892090,-2.502441,4.272461
11662,0.052124,-0.200195,0.964355,-2.258301,-2.929688,3.662109
11672,0.073242,-0.152832,0.975342,-2.746582,-2.807617,3.112793
11682,0.102661,-0.146240,0.968018,-3.356934,-2.502441,1.892090
11694,0.111938,-0.207642,0.984863,-3.417969,-3.173828,0.549316
11704,0.069458,-0.252563,0.966431,-3.234863,-4.089355,-0.915527
11713,0.060181,-0.209595,1.017090,-3.784180,-5.126953,-2.990723
11723,0.055542,-0.174072,0.997559,-3.601074,-5.249023,-4.882812
11732,0.067505,-0.190552,0.966309,-3.417969,-5.493164,-6.164551
11742,0.090332,-0.163208,0.957031,-3.173828,-5.187988,-6.835937
11752,0.112183,-0.251709,0.927734,-3.295898,-4.760742,-7.324219
11763,0.133057,-0.192017,1.008667,-4.028320,-5.615234,-8.911133
11773,0.141479,-0.154175,0.999512,-3.967285,-5.920410,-10.192871
11783,0.122192,-0.141602,0.992920,-3.356934,-6.652832,-11.474609
11793,0.151733,-0.212280,0.985107,-3.356934,-6.896973,-12.695313
11802,0.114746,-0.189087,1.001709,-3.417969,-7.568359,-13.916016
11812,0.116455,-0.136475,1.057861,-3.417969,-7.934570,-14.953613
11821,0.091309,-0.151123,1.018311,-3.234863,-7.507324,-15.991211
11833,0.072266,-0.102783,1.021484,-3.051758,-7.324219,-17.395020
11843,0.064941,-0.185181,0.984131,-2.868652,-7.263184,-18.005371
11853,0.040405,-0.068359,0.973145,-3.051758,-7.202148,-18.371582
11862,0.065430,-0.068604,0.953491,-2.929688,-6.713867,-18.859863
11872,0.067017,-0.117676,0.949585,-2.807617,-6.958008,-19.287109
11882,0.077026,-0.160889,0.978394,-2.136230,-7.080078,-19.226074
11892,0.066162,-0.177734,0.995850,-1.708984,-7.080078,-19.226074
11902,0.049438,-0.107666,1.007568,-1.464844,-6.469727,-18.920898
11911,0.046265,-0.110840,0.989380,-1.037598,-5.676270,-18.188477
11922,0.059448,-0.138672,0.965332,-0.976562,-5.371094,-17.639160
11932,0.013428,-0.073975,0.998047,-1.159668,-5.310059,-17.272949
11942,0.024536,-0.134155,0.944580,-1.403809,-5.249023,-16.906738
11952,-0.010742,-0.115601,0.899536,-1.525879,-4.760742,-16.540527
11962,0.044189,-0.021606,0.974487,-1.770020,-3.845215,-15.686035
11973,0.024536,-0.131104,1.005981,-1.953125,-3.662109,-13.183594
11983,0.015625,-0.086182,0.967285,-1.892090,-2.624512,-11.718750
11993,0.010742,0.008423,1.027344,-1.892090,-1.892090,-10.314941
12002,-0.028076,-0.050659,1.027710,-1.464844,-1.770020,-8.728027
12012,-0.047607,-0.044556,1.032349,-1.220703,-1.586914,-7.873535
12022,-0.044556,-0.085205,1.016846,-0.793457,-1.159668,-7.019043
12032,-0.064453,-0.063843,0.957397,-0.366211,-0.244141,-4.455566
12042,-0.085693,-0.066284,0.917480,0.122070,0.061035,-2.929688
12052,-0.042358,-0.160278,0.968140,0.244141,1.098633,-1.342773
12062,-0.007446,-0.084229,0.992187,-0.061035,1.708984,0.000000
12072,-0.043701,0.021484,1.026245,-0.549316,2.197266,1.403809
12082,-0.034546,-0.048096,0.997070,-0.732422,3.051758,2.807617
12096,-0.025391,-0.034912,1.032715,-0.915527,3.356934,4.638672
12106,-0.013550,-0.071167,1.010986,-0.976562,2.746582,5.004883
12115,-0.038452,-0.129639,0.973999,-0.854492,2.380371,5.065918
12125,-0.005981,-0.133179,0.927979,-0.732422,1.831055,5.249023
12134,-0.000122,-0.072754,0.951660,-0.244141,1.953125,5.859375
12144,-0.012573,-0.182617,0.953735,0.122070,1.770020,6.835937
12153,0.003296,-0.104736,0.975586,0.122070,2.624512,7.324219
12163,-0.006958,-0.028320,1.007813,-0.183105,2.502441,8.361816
12172,-0.005859,-0.031860,1.022949,-0.549316,2.441406,10.009766
12184,0.004761,-0.092163,0.935425,-0.610352,2.563477,10.864258
12193,-0.052612,-0.095337,1.035767,-0.854492,2.624512,11.779785
12203,-0.048950,-0.161255,0.973022,-0.976562,3.112793,12.512207
12212,-0.013794,-0.072388,0.950684,-1.037598,3.601074,12.817383
12222,0.036865,-0.029785,1.014648,-0.488281,3.234863,12.878418
12233,-0.011475,-0.128540,1.034790,-0.366211,2.563477,13.122559
12242,-0.082886,-0.155273,1.000122,-0.549316,0.732422,11.962891
12252,-0.068359,-0.093994,1.048584,-1.708984,1.098633,11.474609
12262,0.045776,-0.038696,0.983276,-1.647949,1.770020,12.084961
12272,0.048950,-0.148560,0.931152,-1.464844,2.380371,12.817383
12282,0.069214,-0.166382,1.020996,-1.098633,2.197266,12.817383
12292,0.026001,-0.104614,1.065430,-1.220703,1.342773,11.840820
12302,0.024170,-0.085815,1.026855,-1.342773,0.183105,10.375977
12315,0.007324,-0.043579,1.007202,-1.159668,-0.976562,6.896973
12324,0.006104,-0.021851,1.021484,-1.159668,-1.098633,6.164551
12334,0.035645,-0.137085,1.025024,-1.098633,-0.671387,5.798340
12343,0.021606,-0.164062,0.946777,-0.976562,-0.732422,5.554199
12353,0.059326,-0.122192,0.954712,-1.098633,-0.854492,5.249023
12362,0.101440,-0.130493,1.005493,-1.098633,-0.976562,4.516602
12372,0.042725,-0.157104,1.004395,-1.647949,-2.075195,3.051758
12384,0.064453,-0.028076,1.022827,-1.831055,-3.173828,0.671387
12394,0.013916,-0.059082,1.058472,-1.831055,-3.723145,-0.671387
12404,0.035034,-0.133301,1.016968,-1.647949,-3.356934,-1.892090
12413,0.031250,-0.174072,0.956787,-1.464844,-3.479004,-3.479004
12423,0.082886,-0.047485,0.998779,-1.525879,-4.028320,-4.821777
12432,0.058594,-0.118774,0.990112,-1.342773,-4.638672,-6.042480
12442,0.060059,-0.156128,0.984741,-1.464844,-5.249023,-6.042480
12452,0.030396,-0.032593,1.016113,-1.403809,-4.821777,-5.920410
12463,-0.026489,-0.111694,1.006592,-0.854492,-3.784180,-3.723145
12473,0.031738,-0.117065,1.006714,-0.671387,-3.723145,-3.540039
12483,-0.000122,-0.045776,0.976685,-0.732422,-4.028320,-3.479004
12492,-0.026611,-0.095703,0.935425,-0.427246,-3.845215,-3.417969
12502,0.043823,-0.148315,0.949463,-0.488281,-3.479004,-2.868652
12512,0.035278,-0.122681,0.984863,-0.549316,-2.746582,-2.502441
12524,-0.035034,-0.106079,0.959229,-0.793457,-2.441406,-3.051758
12535,0.060791,-0.144043,1.048950,-0.732422,-3.051758,-3.845215
12544,0.042236,-0.045044,1.048096,-0.976562,-4.211426,-5.676270
12554,-0.022339,-0.117310,0.951660,-0.427246,-4.760742,-6.835937
12563,-0.033569,-0.163086,0.929443,-0.366211,-4.089355,-7.019043
12573,0.044067,-0.093628,1.021362,-0.610352,-3.540039,-7.080078
12583,-0.001953,-0.046021,1.045166,-0.671387,-3.417969,-7.263184
12593,-0.011597,-0.090942,0.995605,-0.854492,-3.295898,-7.507324
12602,0.055054,-0.023560,1.043335,-0.732422,-3.234863,-7.690430
12612,-0.011719,-0.072998,1.002930,-0.305176,-3.479004,-8.117676
12623,0.002686,-0.161255,0.920898,-0.061035,-3.356934,-8.483887
12632,0.022705,-0.174683,0.928101,-0.061035,-3.051758,-8.239746
12643,0.024902,-0.132690,0.963745,-0.366211,-2.563477,-7.751465
12652,0.031250,-0.096558,1.010498,-0.427246,-2.197266,-7.385254
12662,0.020508,-0.166626,0.986206,-0.854492,-1.953125,-6.896973
12672,-0.013672,-0.080933,0.953613,-0.976562,-2.258301,-6.042480
12682,0.044312,-0.073853,1.029297,-1.037598,-1.953125,-5.859375
12692,-0.013794,-0.150635,0.937866,-1.037598,-2.075195,-5.249023
12702,0.000854,-0.113647,0.921509,-1.342773,-2.136230,-4.699707
12712,-0.037598,-0.010742,1.013550,-1.403809,-1.831055,-3.967285
12723,-0.014160,-0.084595,1.012085,-1.159668,-1.281738,-3.662109
12732,-0.052368,-0.122559,0.975708,-1.098633,-0.671387,-2.502441
12742,-0.038940,-0.058716,1.043579,-1.342773,-0.366211,-1.892090
12752,-0.086304,-0.082153,1.023193,-1.098633,0.122070,-1.525879
12762,-0.088013,-0.173462,0.984375,-1.281738,0.244141,-1.281738
12772,-0.088623,-0.084229,0.930908,-1.220703,0.183105,-1.403809
12782,-0.052002,-0.030640,0.995483,-1.098633,0.183105,-1.464844
12792,-0.065796,-0.075684,1.032104,-1.159668,0.854492,-1.037598
12805,-0.036621,-0.044678,1.053955,-1.403809,1.464844,-0.427246
12814,-0.027588,0.012329,1.046753,-0.915527,1.159668,-0.427246
12824,-0.019409,-0.088013,0.971313,-0.183105,1.525879,-0.183105
12834,-0.000366,-0.126099,0.932983,-0.122070,1.708984,0.549316
12843,0.021606,-0.081299,1.000366,-0.122070,2.014160,0.976562
12852,0.044922,-0.097778,0.983643,-0.305176,1.831055,1.281738
12863,-0.023804,-0.181396,0.907471,-0.610352,1.586914,1.159668
12872,0.026489,-0.156372,0.971924,-1.342773,1.464844,-0.305176
12882,-0.022583,0.046265,1.011475,-1.647949,1.708984,-0.976562
12892,-0.013916,-0.113281,0.993896,-1.953125,1.098633,-1.892090
12902,0.021362,-0.094727,1.006958,-2.380371,1.586914,-2.014160
12913,-0.055176,-0.072632,0.989380,-2.502441,1.525879,-2.380371
12922,-0.000122,-0.103394,0.971924,-2.258301,1.281738,-2.807617
12932,0.017944,-0.224976,0.942505,-1.953125,1.098633,-3.234863
12942,0.015625,-0.121338,1.000732,-2.258301,1.159668,-3.356934
12952,0.011841,-0.038208,1.021484,-2.380371,0.854492,-3.845215
12963,0.014038,-0.116943,0.996948,-2.197266,1.281738,-4.211426
12972,-0.034058,-0.078125,0.986206,-2.197266,1.098633,-4.699707
12983,-0.033203,-0.017090,0.979736,-2.319336,1.098633,-5.126953
12992,-0.004883,-0.147949,0.940674,-2.319336,1.403809,-5.554199
13002,0.012451,-0.138062,0.893799,-2.563477,1.281738,-5.920410
13015,-0.013062,-0.080200,0.946167,-2.624512,1.342773,-6.286621
13024,0.007568,-0.116699,0.997437,-2.563477,1.281738,-6.347656
13034,0.009277,-0.048584,1.030151,-2.441406,1.159668,-6.286621
13043,0.043945,0.013062,1.079712,-2.258301,1.525879,-6.347656
13053,0.013184,-0.090576,1.073853,-2.075195,1.464844,-6.225586
13063,0.037109,-0.033447,1.024536,-2.014160,1.342773,-6.103516
13072,-0.019043,-0.036743,1.007935,-1.708984,1.831055,-5.737305
13082,0.003784,-0.101196,0.994751,-1.403809,1.892090,-5.493164
13094,0.003662,-0.073853,1.041504,-1.098633,2.014160,-5.126953
13103,-0.001953,-0.075562,1.045532,-1.098633,2.563477,-4.699707
13113,0.007080,-0.162842,1.018433,-0.732422,2.502441,-4.455566
13122,0.013184,-0.088013,1.005737,-0.427246,2.441406,-4.333496
13132,0.005981,-0.127686,0.959473,-0.061035,2.624512,-4.333496
13142,0.018433,-0.261108,0.907349,0.000000,2.258301,-4.211426
13155,0.002808,-0.198853,0.913086,-0.671387,2.746582,-3.540039
13164,-0.039795,-0.159790,0.937988,-1.220703,2.685547,-3.173828
13174,-0.063477,-0.259766,0.928955,-1.647949,2.929688,-2.685547
13184,-0.087646,-0.172241,0.926514,-1.953125,3.173828,-2.380371
13194,-0.052612,-0.085449,0.954834,-2.258301,4.028320,-1.708984
13203,-0.037109,-0.074097,0.979736,-2.746582,4.394531,-0.976562
13213,-0.006348,-0.091675,0.959839,-3.234863,4.638672,-0.122070
13222,-0.027832,-0.159668,0.972778,-3.112793,5.554199,1.892090
13234,-0.030029,-0.070801,1.006714,-3.295898,5.371094,2.502441
13243,0.014526,-0.078369,1.064453,-3.417969,5.371094,2.685547
13253,0.038696,-0.114502,1.067017,-3.051758,5.554199,3.051758
13262,-0.006714,-0.112671,1.024536,-2.929688,5.859375,3.417969
13272,-0.025879,-0.037354,1.052246,-2.746582,5.798340,3.601074
13282,-0.013306,-0.058105,1.013672,-2.563477,5.615234,3.540039
13292,-0.023682,-0.152100,1.005127,-2.319336,4.943848,4.516602
13304,0.016724,-0.107300,0.992798,-1.953125,5.432129,5.249023
13313,-0.017456,0.029053,1.043335,-2.075195,5.554199,6.347656
13322,-0.038330,-0.109009,1.003052,-1.831055,5.126953,7.324219
13332,-0.006104,-0.279907,0.934082,-1.464844,6.164551,8.239746
13342,-0.023315,-0.186890,0.901001,-1.708984,6.103516,8.789063
13352,-0.002319,-0.109741,1.004150,-2.075195,5.981445,9.033203
13362,-0.038452,-0.033081,1.046143,-2.014160,6.347656,9.887695
13372,-0.039673,-0.130371,0.951904,-1.770020,6.530762,9.948730
13382,0.022949,-0.181519,0.931396,-2.136230,6.347656,10.070801
13392,0.009155,-0.156128,0.935913,-2.319336,6.347656,10.192871
13402,0.008667,-0.050781,1.000854,-2.319336,5.798340,10.437012
13412,0.007813,-0.090088,1.057495,-1.770020,5.615234,10.437012
13422,-0.017212,-0.134521,0.984009,-1.892090,4.943848,10.192871
13432,0.000977,-0.190308,0.968994,-1.586914,5.249023,10.192871
13444,-0.008057,-0.095947,0.972656,-0.671387,4.882812,10.192871
13453,-0.035889,-0.078979,0.993530,-0.366211,5.371094,10.192871
13463,-0.015137,-0.150146,1.010010,-0.305176,5.249023,10.559082
13472,-0.023560,-0.179321,0.934204,-0.305176,5.371094,10.498047
13483,0.028320,-0.198120,0.939697,-0.122070,6.042480,10.498047
13492,0.051392,-0.163330,1.008057,-0.549316,5.310059,10.681152
13502,0.015991,-0.079834,1.004150,-1.342773,5.310059,10.009766
13513,0.013062,-0.057373,0.994385,-2.258301,4.638672,9.338379
13523,0.023315,-0.072144,1.046509,-2.441406,4.211426,8.972168
13532,0.035767,-0.058594,1.082031,-2.441406,4.028320,8.605957
13542,0.013550,-0.056641,1.019897,-2.685547,3.784180,8.789063
13553,0.001099,-0.085571,1.040527,-2.685547,3.479004,9.094238
13562,0.022705,-0.104370,0.930908,-2.502441,3.662109,9.216309
13574,0.063721,-0.004517,1.067871,-2.746582,3.784180,10.131836
13584,0.042114,0.041260,1.006104,-2.441406,3.723145,10.437012
13593,0.052124,-0.063232,1.004150,-2.136230,3.784180,10.803223
13603,0.030273,-0.153198,0.956421,-1.770020,3.601074,10.864258
13612,0.044678,-0.105713,0.943604,-1.464844,3.356934,10.681152
13622,0.041016,-0.051025,1.045288,-1.403809,2.807617,10.986328
13632,0.059204,-0.042480,0.992554,-1.220703,2.746582,10.864258
13645,0.043579,-0.093994,0.951172,-0.427246,2.441406,11.169434
13654,0.043945,-0.176147,0.936890,0.061035,2.319336,11.230469
13664,0.044556,-0.154053,0.987549,0.122070,1.953125,11.169434
13673,0.049072,-0.103882,0.969116,-0.183105,1.708984,11.047363
13682,0.037964,-0.068115,0.976440,-0.305176,1.586914,11.230469
13692,-0.000854,-0.103027,0.900757,-0.549316,1.647949,11.657715
13702,0.003906,-0.173462,0.874512,-0.915527,1.647949,11.901855
13712,0.024170,-0.209595,0.882812,-1.342773,1.586914,12.084961
13723,0.008423,-0.122925,1.029175,-2.136230,1.342773,12.512207
13733,0.010620,-0.130005,0.982544,-2.136230,1.525879,12.634277
13742,0.016724,-0.078247,0.958618,-2.258301,1.220703,12.695313
13752,0.026978,-0.030029,1.028076,-2.563477,0.610352,12.695313
13762,0.032471,-0.010376,1.066284,-2.685547,0.366211,12.512207
13772,0.022705,-0.047119,1.063477,-2.319336,0.244141,12.573242
13785,0.032593,-0.182007,1.001587,-1.892090,-0.061035,12.268066
13794,0.050903,-0.049438,1.068848,-1.953125,0.061035,11.962891
13804,-0.024536,-0.034180,1.036133,-1.647949,0.366211,12.023926
13813,0.041382,0.002808,1.033325,-1.770020,0.244141,11.779785
13823,0.003418,-0.089233,0.986816,-1.464844,-0.244141,11.535645
13832,0.064941,-0.145142,1.019897,-1.342773,-0.183105,11.230469
13842,0.083130,-0.109985,1.032349,-1.342773,-0.671387,10.681152
13855,0.060059,-0.135254,0.968018,-1.647949,-1.525879,9.582520
13864,0.047729,-0.159424,1.006714,-1.281738,-1.892090,9.155273
13873,0.078003,-0.031128,1.045166,-1.586914,-2.441406,8.422852
13883,0.050293,-0.044189,1.053101,-1.220703,-2.136230,8.605957
13893,0.061768,-0.089722,1.032837,-0.915527,-1.953125,8.605957
13902,0.029541,-0.191528,0.987305,-0.854492,-2.319336,9.033203
13912,0.046875,-0.133911,1.026245,-0.793457,-2.197266,9.216309
13924,0.058838,-0.174194,0.968994,-0.549316,-2.319336,9.155273
13934,0.015625,-0.279419,0.918823,-0.183105,-2.746582,9.033203
13943,-0.009033,-0.214355,0.882202,-0.305176,-2.807617,8.483887
13953,-0.019775,-0.166626,0.961670,-0.488281,-2.807617,8.056641
13963,-0.003052,-0.040771,0.951294,-0.976562,-2.807617,7.751465
13972,0.013550,-0.123657,0.944214,-1.037598,-2.441406,7.873535
13982,0.015259,-0.097046,0.936768,-1.098633,-2.197266,8.056641
13994,0.010376,-0.112915,1.004272,-1.098633,-2.319336,7.873535
14004,-0.002808,-0.155273,1.024902,-0.915527,-2.197266,7.812500
14014,0.018677,-0.163696,0.929443,-0.854492,-2.319336,7.629395
14023,0.041382,-0.236694,1.022217,-0.671387,-2.319336,7.263184
14033,0.020020,-0.116333,0.974243,-0.610352,-2.624512,6.835937
14042,-0.019897,-0.202026,0.974121,-0.793457,-2.807617,6.530762
14052,0.016479,-0.143677,0.985229,-1.281738,-2.929688,6.347656
14064,-0.002563,-0.060303,0.949463,-1.525879,-2.990723,6.958008
14074,-0.002197,-0.197510,0.969849,-1.647949,-2.685547,7.141113
14084,-0.026489,-0.109985,0.937988,-1.831055,-2.258301,7.385254
14094,-0.020020,-0.142456,1.016846,-1.892090,-2.014160,7.751465
14103,0.005737,-0.033569,0.960327,-2.075195,-2.197266,7.751465
14113,-0.014160,-0.109497,0.982422,-1.831055,-2.441406,7.629395
14122,-0.023804,-0.095947,0.983643,-1.342773,-2.502441,7.385254
14132,-0.025146,-0.105225,1.068115,-1.403809,-2.380371,7.019043
14143,0.011353,-0.167358,1.011230,-0.976562,-1.831055,7.324219
14153,0.017700,-0.085449,1.050415,-0.793457,-2.197266,8.056641
14162,0.002319,-0.127808,0.974609,-0.305176,-1.770020,8.728027
14172,0.005859,-0.264893,0.960083,0.122070,-1.403809,9.582520
14182,0.037109,-0.140381,0.986206,-0.427246,-1.159668,9.765625
14193,0.025024,-0.061768,1.041992,-0.488281,-1.586914,10.192871
14202,0.015381,-0.106323,0.979614,-0.488281,-1.403809,11.169434
14214,-0.028076,-0.077148,1.046265,-0.366211,-1.037598,11.169434
14223,-0.026733,-0.082275,1.020874,-0.610352,-1.159668,10.925293
14233,-0.009766,-0.102417,1.015015,-0.427246,-1.342773,10.681152
14242,-0.012451,-0.077759,1.040649,-0.183105,-1.281738,10.498047
14252,-0.015015,-0.029907,0.975098,-0.549316,-1.647949,10.131836
14262,-0.027710,-0.057983,1.026489,-0.610352,-1.586914,9.826660
14272,-0.008301,-0.064453,1.061401,-0.549316,-1.464844,9.155273
14283,0.001465,-0.084839,1.003784,-1.098633,-1.281738,8.361816
14293,0.028687,-0.073853,1.026489,-1.159668,-1.220703,7.873535
14302,0.049805,-0.068604,1.052490,-1.525879,-1.342773,7.019043
14312,0.066528,-0.050537,1.023438,-1.586914,-1.831055,6.347656
14322,0.057617,-0.076538,1.003418,-1.281738,-2.380371,5.432129
14333,0.061768,-0.068970,1.029053,-1.159668,-2.868652,4.333496
14342,0.093994,-0.027832,1.020752,-0.915527,-3.723145,2.624512
14352,0.056396,-0.083740,0.998657,-1.220703,-4.150391,1.770020
14362,0.068359,-0.009766,1.017578,-1.647949,-4.394531,1.098633
14372,0.057983,-0.000854,0.973633,-1.647949,-4.577637,0.488281
14382,0.054687,-0.074585,0.976074,-1.464844,-4.394531,0.000000
14392,0.017822,-0.061279,1.016846,-1.037598,-4.272461,-0.305176
14403,0.011353,-0.065063,1.032471,-0.854492,-4.028320,-0.976562
14412,-0.015625,-0.124878,1.022583,-0.793457,-3.845215,-2.258301
14422,0.000610,-0.116577,1.050293,-0.549316,-3.479004,-2.746582
14433,-0.005615,-0.109009,1.003906,-0.305176,-3.356934,-3.173828
14443,0.004883,-0.148682,0.976318,0.000000,-3.417969,-3.540039
14452,0.024658,-0.157349,1.015137,0.183105,-3.173828,-3.845215
14463,0.041138,-0.100952,0.966553,-0.061035,-3.234863,-4.028320
14472,0.036865,-0.111328,0.982056,-0.122070,-3.051758,-3.967285
14482,0.037109,-0.114868,0.989380,-0.183105,-2.746582,-3.417969
14494,0.008301,-0.053101,1.018555,0.061035,-2.380371,-2.929688
14503,-0.000244,-0.126587,0.978027,0.427246,-2.380371,-2.868652
14513,0.004761,-0.122437,1.038330,0.671387,-2.258301,-2.258301
14523,0.006714,-0.087280,0.998047,0.854492,-2.380371,-1.831055
14533,-0.044434,-0.155518,0.982300,0.915527,-1.525879,-1.281738
14542,-0.033081,-0.143311,0.876831,0.549316,-1.281738,-0.854492
14552,0.003540,-0.124023,0.974854,0.549316,-0.610352,-0.366211
14564,0.018188,-0.110229,0.978882,-0.488281,-0.671387,-0.305176
14573,-0.006958,-0.110229,1.031494,-0.183105,-0.488281,-0.427246
14583,-0.003174,-0.077148,1.008301,0.000000,-0.366211,-0.488281
14593,-0.045044,-0.164795,1.026733,0.427246,-0.183105,-0.183105
14603,0.032715,-0.074463,1.052979,0.488281,-0.061035,0.183105
14612,-0.014893,-0.125977,1.057007,0.732422,0.549316,0.732422
14625,-0.057861,-0.142456,0.968872,0.854492,1.037598,1.525879
14634,-0.007690,-0.059937,0.970093,0.793457,1.464844,1.525879
14644,-0.016113,-0.192017,0.972046,0.671387,1.770020,1.708984
14654,-0.046631,-0.169434,0.938599,0.427246,1.708984,1.708984
14663,-0.024536,-0.149292,1.010742,0.244141,1.708984,1.708984
14673,0.006104,-0.111572,0.955811,0.122070,1.953125,1.953125
14682,0.039673,-0.182251,0.945801,0.305176,2.197266,2.014160
14695,0.070190,-0.166992,1.031128,0.000000,2.258301,2.624512
14704,0.068237,-0.139893,0.979980,-0.305176,1.892090,2.563477
14713,0.086060,-0.168213,0.896362,-0.183105,1.281738,2.746582
14723,0.130615,-0.220581,0.912476,-0.183105,1.037598,3.051758
14732,0.157593,-0.135498,0.897217,-0.427246,0.793457,3.417969
14742,0.098633,-0.187622,0.892090,-0.854492,0.549316,3.906250
14752,0.119019,-0.179443,0.914673,-1.098633,0.427246,4.516602
14762,0.099365,-0.150635,0.947754,-1.281738,0.366211,4.333496
14773,0.020142,-0.230469,0.940796,-2.014160,-0.488281,3.784180
14783,0.002808,-0.116821,0.966797,-2.502441,-1.159668,3.051758
14792,-0.020630,-0.061279,0.985596,-2.868652,-1.098633,2.746582
14802,0.003906,-0.132324,0.962646,-2.807617,-0.488281,2.685547
14813,0.000122,-0.068237,1.022949,-2.929688,-0.671387,2.990723
14822,-0.051636,-0.073608,1.031982,-2.868652,-0.488281,3.417969
14832,-0.034058,-0.104980,0.991577,-2.624512,-0.122070,3.662109
14844,0.034302,-0.093384,0.984863,-2.258301,-0.183105,4.333496
14853,0.044067,-0.164307,1.003296,-2.441406,-0.366211,5.004883
14863,0.041260,-0.148071,1.070435,-2.685547,0.061035,5.187988
14872,0.024048,-0.128418,1.013794,-2.746582,-0.366211,4.943848
14883,0.021362,-0.132690,0.979614,-2.685547,-0.366211,4.516602
14892,0.034424,-0.102417,1.042847,-2.990723,-0.366211,4.028320
14902,0.042603,-0.126465,1.045776,-3.417969,-0.427246,3.356934
14913,-0.014038,-0.040283,1.030884,-3.601074,-1.098633,2.441406
14923,-0.014771,-0.076782,0.984497,-3.417969,-0.793457,2.197266
14932,0.013306,-0.093384,0.955200,-3.234863,-1.159668,2.197266
14942,0.044678,-0.089111,1.031616,-3.112793,-0.854492,2.563477
14952,0.010986,-0.108154,0.969971,-3.295898,-0.427246,2.807617
14962,0.020630,-0.097046,0.928711,-3.479004,-0.305176,3.295898
14975,0.082275,-0.129761,0.951050,-3.356934,-0.183105,4.699707
14984,0.126221,-0.160156,0.975708,-3.479004,-0.122070,5.065918
14993,0.104736,-0.038940,1.008179,-3.845215,-0.976562,5.249023
15003,0.080933,-0.029907,0.992432,-4.089355,-1.770020,5.249023
15012,0.089478,-0.017456,1.040894,-4.150391,-1.647949,5.126953
15022,0.054932,0.040283,1.105103,-3.784180,-1.708984,5.371094
15032,0.020264,0.006470,1.071411,-3.662109,-1.525879,5.493164
15042,-0.047607,-0.064575,1.010864,-3.234863,-1.708984,5.554199
15053,-0.012085,-0.050659,0.984009,-2.502441,-1.770020,5.493164
15063,-0.009155,-0.073608,0.973877,-2.746582,-2.136230,5.554199
15073,0.000732,-0.060059,1.005127,-2.441406,-1.892090,5.554199
15082,-0.041748,-0.106934,0.940918,-2.197266,-1.464844,5.493164
15092,0.023437,-0.184448,0.949951,-2.319336,-1.220703,5.187988
15102,0.036133,-0.102051,1.027588,-2.136230,-1.281738,4.821777
15112,0.039307,-0.130737,0.984375,-1.342773,-1.892090,4.089355
15123,0.063232,-0.187378,0.980225,-0.732422,-3.051758,2.685547
15133,0.084229,-0.074707,0.966919,-0.610352,-4.028320,1.892090
15142,0.090820,-0.166504,0.942627,-0.122070,-4.150391,1.892090
15152,0.109863,-0.145142,0.936523,0.183105,-4.455566,2.075195
15163,0.117676,-0.095093,0.930664,0.061035,-4.516602,2.746582
15172,0.114258,-0.215820,0.928589,-0.122070,-4.455566,3.540039
15184,0.092163,-0.033447,1.002686,-0.671387,-4.943848,3.723145
15194,0.081421,-0.156128,0.974365,-0.671387,-5.676270,3.601074
15203,0.075317,-0.079712,0.993042,-0.427246,-5.798340,3.173828
15213,0.070679,-0.104492,0.977661,-0.671387,-6.408691,2.563477
15223,0.051025,-0.132568,0.963745,-1.220703,-7.141113,2.380371
15233,0.029785,-0.063843,1.025513,-1.586914,-6.896973,2.014160
15242,0.009766,-0.046997,0.993164,-1.708984,-6.408691,1.708984
15255,-0.016479,-0.083740,0.985474,-1.831055,-6.286621,0.610352
15264,-0.054321,-0.085449,1.025146,-1.831055,-6.530762,-0.061035
15274,-0.049072,-0.181519,0.999268,-2.197266,-6.713867,-0.915527
15284,-0.023682,-0.130493,1.073975,-2.136230,-6.530762,-1.831055
15294,-0.036743,-0.105835,1.035034,-2.075195,-5.920410,-2.136230
15304,-0.015991,-0.206909,0.968384,-1.525879,-6.042480,-2.563477
15313,-0.011597,-0.211060,1.022583,-1.098633,-6.042480,-2.685547
15323,0.019287,-0.177002,0.974731,-0.732422,-5.554199,-2.563477
15333,0.077393,-0.208252,1.001465,-0.427246,-5.371094,-2.502441
15342,0.031128,-0.193970,0.918945,-0.732422,-5.859375,-2.319336
15352,0.059692,-0.102173,0.990356,-0.915527,-5.859375,-2.807617
15362,0.075073,-0.141235,1.007568,-1.037598,-6.286621,-3.540039
15373,0.066650,-0.214600,1.040771,-1.098633,-6.347656,-4.028320
15382,0.027588,-0.050415,1.034790,-1.159668,-6.774902,-4.638672
15392,-0.007446,-0.154907,0.977051,-1.220703,-6.591797,-6.103516
15402,0.030029,-0.109375,1.073242,-1.892090,-6.286621,-6.408691
15413,0.008789,-0.041748,0.979980,-1.831055,-6.225586,-6.774902
15422,-0.003052,-0.024780,0.959595,-1.647949,-6.286621,-7.080078
15432,-0.037354,-0.167358,0.905518,-1.464844,-6.164551,-7.080078
15442,-0.055908,-0.141113,0.951660,-1.464844,-5.798340,-7.324219
15452,-0.054565,-0.057617,1.010986,-1.953125,-5.615234,-7.568359
15462,-0.097534,-0.159058,0.892700,-2.319336,-4.821777,-7.446289
15474,-0.077637,-0.069580,0.962158,-2.441406,-3.356934,-6.713867
15484,-0.046509,-0.100342,1.013184,-2.441406,-3.051758,-6.286621
15493,-0.024902,-0.095093,1.095093,-1.892090,-2.929688,-5.676270
15503,-0.019531,-0.166504,0.979858,-1.342773,-2.319336,-5.004883
15513,-0.018433,-0.168335,0.960083,-1.220703,-2.197266,-4.272461
15523,0.003906,-0.111938,0.981201,-1.586914,-2.197266,-3.601074
15533,0.024414,-0.152100,1.000610,-1.220703,-2.075195,-2.197266
15542,0.006714,-0.198975,0.810913,-1.342773,-2.014160,-1.770020
15552,-0.030884,-0.232056,0.887817,-1.770020,-1.220703,-1.281738
15562,-0.033936,0.007324,1.038330,-2.441406,-1.708984,-1.525879
15573,-0.031616,-0.076538,0.954346,-2.319336,-1.220703,-1.586914
15582,-0.052979,-0.052124,0.929321,-2.441406,-1.708984,-1.647949
15592,-0.086914,0.007813,1.009521,-2.685547,-0.915527,-1.464844
15605,-0.052124,-0.068848,0.997070,-1.281738,-0.488281,-1.403809
15614,-0.059448,-0.188599,0.944214,-0.854492,-0.244141,-1.281738
15624,-0.048462,-0.122803,0.968018,-1.159668,-0.122070,-1.098633
15634,-0.073242,-0.080688,0.961670,-1.647949,0.488281,-0.915527
15643,-0.057251,-0.087036,0.941528,-2.075195,0.305176,-1.342773
15653,-0.046021,-0.084595,0.991333,-2.502441,0.488281,-1.708984
15663,-0.030151,-0.131470,0.999512,-3.051758,0.244141,-2.502441
15672,0.021362,-0.020386,1.116089,-3.479004,0.000000,-3.540039
15682,-0.024780,-0.045776,1.039063,-3.234863,0.061035,-3.784180
15693,0.024414,-0.052856,1.011108,-3.051758,-0.183105,-4.089355
15702,0.078857,-0.093628,0.950317,-2.807617,-0.610352,-4.150391
15712,0.083984,-0.104736,0.995361,-2.685547,-0.732422,-4.394531
15722,0.091919,-0.070923,1.012085,-2.990723,-0.610352,-4.394531
15732,0.059204,-0.076416,0.995605,-3.234863,-0.427246,-4.577637
15745,-0.026489,-0.123169,0.978516,-3.295898,-0.488281,-5.065918
15755,-0.023682,-0.091064,1.031250,-3.295898,-0.976562,-5.187988
15765,-0.022095,-0.086914,1.024170,-3.295898,-0.976562,-5.310059
15775,-0.043823,-0.135376,1.035278,-3.356934,-0.732422,-5.187988
15784,-0.023437,-0.057129,1.048340,-3.479004,-0.610352,-5.126953
15794,-0.041992,-0.075317,0.941528,-3.417969,-0.183105,-5.004883
15804,-0.000366,-0.074585,0.957520,-3.356934,0.793457,-4.699707
15813,-0.047852,-0.065674,1.013428,-3.356934,0.549316,-4.699707
15823,-0.013306,0.013794,0.992676,-3.173828,0.854492,-4.760742
15832,-0.036865,-0.083496,0.995605,-2.746582,0.427246,-4.516602
15842,-0.090820,-0.050293,1.076416,-2.380371,1.220703,-4.455566
15852,-0.092407,-0.014893,1.027588,-2.319336,1.770020,-4.455566
15863,-0.034912,-0.078491,0.981812,-1.770020,2.136230,-4.333496
15872,-0.053101,-0.098633,1.034424,-1.403809,1.953125,-4.028320
15882,-0.025757,-0.134277,0.946411,-1.281738,2.441406,-4.028320
15892,-0.011475,-0.104614,0.955566,-1.464844,2.136230,-3.906250
15902,0.019897,-0.084839,0.946533,-1.770020,2.380371,-3.906250
15912,0.060425,-0.028931,1.018799,-1.770020,2.807617,-3.662109
15922,-0.027100,-0.175659,0.959717,-1.342773,3.051758,-3.356934
15932,-0.012695,-0.090942,0.976074,-1.525879,3.112793,-3.051758
15942,-0.009155,-0.062744,1.010132,-1.220703,3.173828,-2.502441
15955,0.015747,-0.097778,1.093140,-0.122070,3.112793,-1.342773
15964,-0.082031,-0.171631,1.018311,0.061035,3.417969,-0.671387
15974,-0.021484,-0.079468,0.977661,0.061035,3.112793,-0.488281
15983,-0.000854,-0.138916,0.906494,0.183105,3.295898,-0.183105
15993,0.000488,-0.183472,0.919922,0.000000,3.356934,0.610352
16002,-0.010986,-0.073975,0.967407,-0.061035,3.723145,1.403809
16012,0.003906,-0.169800,0.927734,-0.305176,4.028320,1.953125
16025,0.026611,-0.182495,0.959961,-0.793457,4.211426,2.807617
16034,0.068115,-0.110840,1.004517,-1.159668,4.150391,3.173828
16044,0.026367,-0.069824,1.013306,-1.342773,3.601074,3.295898
16053,0.080933,-0.156982,0.989380,-1.220703,2.746582,3.173828
16063,0.100830,-0.120483,1.072388,-1.037598,2.197266,3.173828
16072,0.081421,-0.169800,0.989136,-0.732422,2.319336,3.112793
16082,0.061523,-0.118652,1.037354,-0.793457,1.708984,2.746582
16092,0.044189,-0.184326,0.915283,-0.671387,1.281738,1.647949
16104,0.073486,-0.110840,1.006226,-0.732422,0.244141,0.793457
16113,0.026367,-0.203125,1.020874,-1.220703,-0.061035,0.122070
16122,-0.007568,-0.106934,1.021362,-1.281738,-0.183105,-0.610352
16132,-0.041870,-0.160400,0.996704,-0.854492,-0.244141,-1.220703
16142,-0.033447,-0.010986,1.083618,-1.037598,-0.427246,-1.770020
16153,-0.030029,-0.178345,1.020020,-1.037598,-0.183105,-2.258301
16162,-0.059692,-0.023682,1.004517,-0.549316,-0.244141,-2.014160
16172,0.023071,-0.085571,1.011841,-0.244141,0.488281,-1.708984
16182,0.034302,-0.119751,0.935913,-0.793457,0.244141,-1.403809
16193,-0.011841,-0.169434,0.925537,-1.525879,0.671387,-1.098633
16202,0.006592,0.017334,0.985474,-2.136230,0.671387,-0.793457
16212,0.010254,-0.087646,0.949219,-2.136230,0.854492,-0.488281
16222,-0.006470,-0.015015,0.998657,-2.319336,1.098633,-0.244141
16232,-0.004883,-0.088501,1.014282,-2.258301,0.976562,0.793457
16242,-0.009888,-0.037598,1.031250,-1.525879,0.854492,1.281738
16252,-0.013184,-0.073486,0.995850,-1.281738,1.159668,1.647949
16262,0.017822,-0.094971,0.961548,-1.220703,1.403809,2.563477
16272,-0.002686,-0.088135,0.974243,-0.976562,1.403809,3.295898
16282,0.018555,-0.031128,0.974121,-1.098633,1.159668,3.784180
16292,-0.018311,-0.122314,0.950684,-1.281738,1.220703,3.967285
16303,-0.014404,-0.064209,1.019653,-1.708984,0.915527,4.760742
16313,-0.052856,-0.022827,1.083984,-1.770020,1.831055,4.699707
16322,-0.080933,-0.079102,1.017944,-1.281738,2.075195,4.760742
16332,-0.043213,-0.037842,1.048828,-0.915527,2.319336,5.065918
16342,-0.091187,-0.108276,1.003174,-0.122070,2.197266,5.554199
16352,0.002686,-0.087158,1.078369,0.061035,2.319336,5.859375
16362,0.019653,-0.140747,1.056152,0.488281,2.197266,6.347656
16372,0.058228,-0.152832,1.062500,0.854492,1.953125,6.530762
16383,0.048828,-0.140259,0.974976,0.915527,1.586914,6.774902
16392,0.052979,-0.138550,1.035034,0.854492,1.037598,6.591797
16402,0.071533,-0.210449,1.009155,0.610352,0.549316,6.530762
16412,0.036621,-0.114990,0.917236,0.427246,0.244141,6.408691
16422,0.087402,-0.164551,0.874268,0.244141,-0.366211,6.286621
16432,0.078247,0.083496,1.276123,-0.610352,-0.610352,6.225586
16442,0.001709,-0.082397,0.976318,0.488281,-0.854492,6.958008
16453,0.009033,-0.093994,1.078369,0.854492,-0.732422,6.652832
16463,0.012207,-0.369141,0.757446,2.014160,-1.586914,5.798340
16472,0.073486,-0.228760,0.799072,0.915527,-1.892090,5.126953
16482,0.048950,-0.080444,0.805054,-1.525879,-2.197266,4.943848
16492,0.038086,0.074097,0.947754,-2.563477,-2.807617,4.455566
16502,0.063599,0.004639,0.915283,-2.319336,-2.807617,4.089355
16514,-0.017822,-0.148193,0.991089,-1.892090,-2.868652,2.990723
16524,0.015747,0.005615,1.188354,-2.014160,-2.746582,1.953125
16534,-0.005249,-0.099976,1.083862,-1.708984,-3.295898,1.098633
16543,-0.033447,-0.107178,0.987915,-1.525879,-4.150391,0.061035
16553,0.000000,-0.118286,0.938965,-0.366211,-4.638672,-0.549316
16562,0.041748,-0.227661,0.882690,0.000000,-4.150391,-0.549316
16572,0.095825,-0.212646,0.947754,-0.488281,-4.394531,-0.854492
16582,0.104248,-0.222412,0.892822,-1.586914,-4.272461,-1.037598
16593,0.054077,-0.103027,0.957275,-2.441406,-4.760742,-1.525879
16603,0.085937,-0.125610,1.016724,-2.136230,-4.882812,-1.892090
16612,0.056641,-0.250244,0.973145,-1.647949,-5.004883,-2.380371
16622,0.045410,-0.054077,1.129517,-1.831055,-5.615234,-3.295898
16632,0.016846,-0.165405,1.055908,-1.586914,-6.164551,-3.784180
16642,-0.020386,-0.102783,1.028076,-1.037598,-6.347656,-4.150391
16652,-0.014771,-0.192139,0.970337,-0.854492,-5.920410,-4.455566
16664,-0.030273,-0.147339,0.968018,-1.464844,-5.249023,-4.638672
16673,-0.032593,-0.153198,0.896973,-2.319336,-5.126953,-4.821777
16683,-0.052368,-0.096313,0.923462,-3.173828,-4.638672,-5.065918
16693,-0.059448,-0.178345,0.919922,-3.479004,-4.516602,-5.310059
16703,-0.092163,-0.041382,0.957764,-3.723145,-4.760742,-5.920410
16712,-0.067383,-0.195557,0.901855,-3.967285,-4.699707,-6.591797
16722,-0.037964,-0.079224,1.049561,-5.249023,-3.662109,-6.958008
16732,-0.028564,0.030029,1.006592,-5.371094,-3.173828,-6.774902
16742,-0.044556,-0.032593,0.995728,-5.249023,-2.990723,-6.469727
16752,-0.028320,-0.064941,1.047607,-4.516602,-2.014160,-6.164551
16762,-0.018433,-0.190308,1.026733,-4.455566,-1.953125,-6.042480
16772,0.014160,-0.218994,1.000854,-4.455566,-2.075195,-6.042480
16782,-0.045898,0.031372,1.003540,-5.432129,-2.380371,-6.286621
16791,0.027588,0.027100,1.040527,-5.187988,-2.380371,-6.225586
16803,-0.000977,-0.100952,0.954712,-4.638672,-1.464844,-5.920410
16813,-0.000122,0.160400,1.052612,-5.432129,-1.281738,-5.920410
16823,-0.003296,-0.090210,0.952026,-3.784180,-1.525879,-5.798340
16833,-0.027100,-0.155884,0.893433,-2.258301,-1.220703,-5.920410
16842,-0.021118,-0.223999,0.890747,-1.953125,-1.037598,-6.103516
16852,0.018188,-0.019287,1.051025,-2.258301,-1.403809,-6.591797
16862,0.018311,-0.103394,1.023438,-2.441406,-1.647949,-6.774902
16874,-0.038818,-0.066040,1.014038,-3.234863,-0.427246,-6.652832
16883,0.017456,0.049194,1.061768,-3.601074,-0.305176,-6.896973
16893,-0.061279,-0.035278,0.940796,-3.051758,-0.427246,-7.141113
16903,-0.010986,0.004150,0.996948,-2.563477,-0.427246,-7.263184
16912,0.005493,-0.091064,1.044800,-2.075195,-0.122070,-7.080078
16922,0.051392,-0.006592,1.048340,-1.953125,-0.366211,-7.080078
16935,0.042236,-0.105347,1.024170,-0.915527,-0.305176,-7.019043
16944,0.038208,-0.133911,1.074707,-0.366211,-0.122070,-7.141113
16954,0.036743,-0.086548,1.110352,-0.244141,0.061035,-7.568359
16963,0.016479,-0.040771,1.123169,0.061035,-0.366211,-8.117676
16973,0.013062,-0.131592,1.069824,0.122070,-0.671387,-8.605957
16982,0.014526,-0.081909,1.112793,0.061035,-0.671387,-9.094238
16992,0.011719,-0.069092,1.069214,0.488281,-0.915527,-9.582520
17005,-0.026611,-0.095459,0.999756,1.770020,-0.305176,-9.704590
17014,0.000610,-0.150024,0.942261,1.953125,0.610352,-9.521484
17024,0.024414,-0.094116,0.857178,1.953125,0.915527,-9.399414
17033,0.011230,-0.224854,0.789551,1.464844,1.220703,-9.216309
17043,-0.009888,-0.085083,0.847778,0.732422,1.037598,-9.338379
17052,-0.047363,-0.100830,0.751709,-0.061035,1.037598,-9.582520
17062,-0.045898,-0.023926,0.883423,-0.488281,1.403809,-9.582520
17072,-0.092041,-0.020386,0.960937,-0.793457,1.647949,-9.033203
17082,-0.077515,0.010986,0.929687,-0.427246,3.112793,-8.056641
17092,-0.042847,0.008057,1.139404,-0.488281,3.723145,-6.958008
17102,-0.099731,-0.055908,1.066772,-0.305176,4.394531,-5.859375
17113,-0.072632,0.062988,1.093384,0.122070,4.943848,-4.577637
17122,-0.067871,-0.143433,0.964233,0.610352,5.432129,-3.051758
17132,-0.014282,-0.012451,1.093506,0.732422,6.042480,-1.647949
17145,-0.057495,-0.052002,0.978516,1.159668,7.080078,0.671387
17154,0.005249,-0.225220,0.979370,1.220703,6.958008,1.342773
17163,-0.031738,-0.135010,1.038208,1.098633,7.141113,1.953125
17173,-0.033203,-0.189819,0.935791,1.098633,6.835937,2.014160
17182,-0.034302,-0.126709,1.076782,1.220703,6.530762,2.197266
17192,-0.024658,-0.185669,0.992310,1.159668,6.591797,2.380371
17202,-0.016846,-0.139038,1.040649,1.037598,6.835937,3.295898
17212,-0.055786,-0.204834,1.000610,0.854492,7.263184,4.028320
17223,-0.060059,-0.133789,0.945312,0.061035,7.446289,5.859375
17233,-0.010254,-0.085449,1.022583,-0.061035,7.446289,6.408691
17242,-0.050537,-0.178833,1.012817,-0.549316,7.629395,7.202148
17252,-0.052490,-0.065308,1.028687,-0.610352,7.873535,8.056641
17263,-0.047241,-0.055664,1.030518,-0.549316,7.507324,8.666992
17272,-0.000732,-0.095093,0.958374,-0.244141,8.117676,8.972168
17282,0.013794,-0.170044,0.984497,-0.305176,8.056641,9.826660
17293,-0.003662,-0.140625,0.931152,-1.464844,6.713867,9.826660
17303,0.063477,-0.063721,0.979736,-1.953125,6.408691,9.399414
17312,0.052124,-0.189209,0.881104,-2.380371,6.164551,9.155273
17323,0.040771,-0.059814,0.977173,-3.234863,5.615234,8.850098
17332,0.023804,-0.149658,0.925171,-3.723145,5.371094,8.911133
17343,0.004150,-0.008057,0.959961,-4.394531,4.943848,8.605957
17352,0.024780,-0.068970,1.014771,-4.272461,4.638672,8.911133
17364,0.022217,-0.129395,0.916992,-3.845215,4.394531,8.789063
17373,0.029053,-0.030029,1.027588,-3.601074,4.211426,8.728027
17382,0.084229,-0.092896,1.049927,-2.868652,3.295898,8.361816
17392,0.053833,-0.072998,1.032349,-2.075195,2.929688,8.056641
17402,0.026367,-0.247925,0.899170,-0.976562,2.868652,7.873535
17412,0.041138,-0.130493,0.960815,-0.549316,2.075195,7.324219
17423,0.072632,-0.245972,0.883911,-1.037598,1.342773,6.591797
17432,0.036743,-0.182495,0.848389,-1.953125,0.854492,6.469727
17442,0.033325,-0.018677,0.958008,-3.051758,0.854492,6.530762
17452,0.001099,-0.084961,0.884766,-3.784180,1.342773,6.591797
17462,-0.039429,0.033325,1.010986,-4.516602,1.159668,6.774902
17472,-0.026978,-0.036011,0.973755,-5.004883,1.159668,6.591797
17482,-0.094604,0.046875,1.038330,-5.432129,1.220703,6.225586
17495,-0.097412,-0.030762,1.052979,-4.821777,1.953125,6.347656
17504,-0.041260,-0.052368,1.051514,-4.089355,1.770020,6.225586
17514,-0.071655,-0.069824,1.078613,-3.662109,1.647949,6.042480
17523,-0.030640,-0.148315,0.973389,-3.234863,2.014160,5.798340
17533,0.001343,-0.067139,0.953125,-3.295898,1.831055,5.371094
17543,0.049316,-0.180664,0.930664,-3.479004,1.464844,4.943848
17552,0.092896,-0.102051,1.025269,-3.662109,1.342773,4.211426
17562,0.072632,-0.182129,0.929810,-4.028320,1.281738,2.868652
17573,0.062988,-0.129272,1.081055,-4.882812,-0.061035,1.953125
17583,0.081177,-0.041382,1.055176,-4.821777,-0.366211,1.281738
17593,0.109619,-0.151855,0.992798,-4.516602,-0.671387,0.976562
17602,0.109741,-0.052612,1.110962,-4.150391,-0.732422,0.732422
17612,0.098755,-0.149658,1.003418,-3.723145,-1.098633,0.732422
17623,0.077148,-0.029907,1.041138,-3.417969,-1.281738,0.610352
17632,0.075928,-0.136719,0.998779,-3.112793,-1.831055,0.488281
17642,0.079346,-0.019287,0.978271,-2.502441,-2.319336,0.427246
17653,0.031616,-0.011963,1.080078,-2.380371,-2.563477,0.366211
17662,0.035889,-0.004639,1.089966,-2.014160,-2.197266,0.488281
17672,-0.031616,-0.109741,1.026489,-1.342773,-2.136230,0.366211
17682,-0.007080,-0.047485,1.085449,-1.098633,-2.258301,0.366211
17692,-0.046387,-0.120728,0.999390,-0.732422,-1.525879,0.427246
17702,-0.008301,-0.057617,1.027344,0.427246,-1.647949,0.610352
17712,-0.019653,-0.128784,0.969971,0.549316,-1.586914,0.854492
17722,-0.043579,-0.143921,0.945312,0.488281,-1.403809,1.342773
17732,-0.042114,-0.003052,1.031006,0.549316,-0.915527,1.770020
17743,-0.038696,-0.103882,1.036499,0.732422,-0.915527,1.953125
17752,-0.067749,-0.127075,1.006470,1.098633,-0.427246,2.441406
17763,-0.046265,-0.085937,1.105713,1.708984,0.244141,2.807617
17772,-0.012451,-0.115479,1.074829,3.356934,0.549316,3.662109
17782,0.015869,-0.111450,1.034546,4.028320,-0.122070,3.845215
17793,0.040405,-0.179321,1.060059,4.028320,0.000000,3.601074
17802,0.019897,-0.194214,0.937256,3.845215,-0.366211,3.295898
17812,0.033325,-0.071289,0.996094,3.295898,-0.610352,2.868652
17822,-0.008423,-0.104614,0.997437,3.295898,-0.549316,2.624512
17832,-0.018066,-0.190552,0.950562,3.051758,-0.366211,2.746582
17844,-0.007446,-0.155029,0.989380,3.234863,0.244141,2.807617
17854,-0.025879,-0.044067,1.015015,3.540039,0.000000,2.563477
17864,-0.008667,-0.163818,0.979736,3.967285,-0.061035,2.197266
17873,0.014038,-0.114380,0.994873,3.723145,-0.183105,1.403809
17883,0.024902,-0.111816,0.993042,3.784180,-0.366211,1.037598
17893,0.009155,-0.231445,0.931885,3.906250,-0.427246,0.976562
17902,0.012817,-0.079346,0.988525,3.723145,-0.122070,0.976562
17914,0.052856,-0.106445,0.958252,3.417969,0.122070,1.220703
17923,0.019653,-0.181763,0.914307,2.380371,-0.183105,1.525879
17933,0.005615,-0.131592,0.949585,1.770020,-0.244141,1.464844
17942,0.041382,-0.157349,0.936523,1.464844,-0.305176,1.220703
17952,0.021240,-0.093140,0.877319,1.220703,-0.366211,0.976562
17962,-0.011841,-0.105225,0.918091,0.671387,-0.305176,1.098633
17972,0.010132,-0.152222,0.922974,-0.061035,0.000000,0.854492
17984,-0.052368,-0.130737,0.937866,-1.159668,0.061035,0.549316
17994,-0.060913,0.062500,1.020874,-1.403809,0.488281,0.610352
18004,-0.018799,-0.157471,0.988525,-1.159668,0.915527,0.793457
18013,-0.030151,-0.057617,1.009277,-1.525879,0.915527,0.671387
18023,0.004150,-0.087402,0.998413,-2.014160,0.610352,0.793457
18032,-0.016479,-0.050903,0.988770,-2.380371,0.488281,1.220703
18042,0.010010,-0.022339,1.034058,-2.441406,0.549316,1.525879
18054,0.034790,-0.087524,0.998413,-2.746582,1.098633,2.136230
18064,0.041260,-0.147583,0.964355,-3.601074,1.220703,2.380371
18073,0.020874,-0.024414,1.034424,-4.455566,1.159668,2.380371
18083,0.059204,-0.071289,1.084229,-4.638672,0.732422,1.953125
18092,0.019409,-0.009155,1.033081,-4.394531,0.671387,1.953125
18103,-0.032593,-0.039551,1.040283,-4.333496,0.061035,1.708984
18112,0.019043,-0.067749,1.069824,-3.906250,0.366211,1.708984
18125,-0.012573,-0.058350,1.036133,-3.479004,0.732422,2.441406
18134,-0.049438,-0.052979,1.031372,-3.295898,0.732422,2.929688
18144,-0.049561,-0.108276,0.927490,-3.234863,1.403809,3.417969
18153,-0.021118,-0.064575,1.020142,-3.479004,1.770020,3.784180
18163,-0.074829,-0.081543,1.017090,-3.845215,1.953125,4.089355
18172,-0.068115,-0.003784,1.057007,-4.150391,2.563477,4.272461
18182,-0.074707,-0.051758,0.987793,-4.150391,2.807617,4.638672
18192,-0.068848,0.015747,1.012085,-3.845215,3.112793,5.554199
18204,-0.076172,-0.044678,1.018188,-2.807617,3.356934,5.920410
18213,-0.020020,-0.109741,0.937134,-2.624512,3.417969,6.103516
18222,-0.000488,0.010376,1.020752,-2.502441,3.234863,6.530762
18232,-0.010742,-0.104004,0.986694,-2.075195,3.417969,6.408691
18242,0.017456,-0.010620,0.942505,-2.075195,3.540039,6.042480
18254,0.073364,-0.117554,0.995483,-1.464844,3.234863,5.981445
18263,0.035522,-0.110718,1.026489,-1.647949,2.502441,5.371094
18274,0.051758,-0.059448,0.965698,-1.464844,2.258301,5.249023
18283,0.046021,-0.071655,1.024048,-0.854492,2.197266,5.126953
18293,0.063232,-0.150513,0.889404,-0.183105,2.136230,5.432129
18302,0.044067,-0.078979,0.969238,0.183105,2.014160,5.737305
18313,0.011475,-0.201172,0.932129,0.366211,1.586914,5.981445
18322,0.051392,-0.113037,0.975708,0.366211,1.953125,5.920410
18334,-0.018311,-0.004517,1.075439,0.122070,1.892090,5.310059
18343,0.011475,-0.093994,1.013550,0.366211,0.854492,4.516602
18353,0.007813,-0.077637,1.043945,0.976562,0.610352,3.662109
18362,0.007324,-0.169067,1.069214,1.647949,0.671387,3.540039
18373,0.008057,-0.188721,0.993286,1.525879,0.671387,3.356934
18382,0.019409,-0.053711,1.013916,1.464844,1.220703,3.784180
18394,0.039307,-0.189331,0.957520,1.708984,0.976562,4.394531
18403,0.008423,-0.233887,0.951782,1.770020,0.854492,4.516602
18414,0.000366,-0.073364,0.968994,1.098633,0.549316,4.638672
18423,0.047485,-0.196655,0.841675,0.732422,0.366211,4.394531
18433,0.059082,-0.124512,0.930664,0.305176,0.305176,4.516602
18442,0.025635,-0.240112,0.829346,-0.061035,0.061035,4.943848
18452,0.068115,-0.074951,0.958496,-0.793457,0.427246,5.249023
18462,0.052979,-0.152710,0.876587,-1.220703,0.244141,5.554199
18474,0.037598,-0.129639,0.956421,-1.770020,-15.502930,6.103516
18484,-0.012207,-0.036865,1.011475,-3.234863,-0.366211,6.469727
18493,0.028687,-0.054565,1.065918,-3.295898,-0.732422,6.713867
18503,-0.010254,-0.086304,1.032104,-3.234863,-0.366211,7.202148
18513,-0.029663,-0.009033,1.071167,-2.990723,0.061035,7.873535
18522,-0.031982,-0.091309,0.993530,-2.624512,0.183105,8.544922
18534,-0.026489,-0.041504,1.013672,-2.136230,0.915527,10.253906
18543,-0.054443,-0.127930,1.003052,-2.197266,0.793457,10.559082
18553,-0.028320,-0.067993,1.043945,-2.380371,0.183105,10.375977
18563,-0.050415,-0.105225,1.001953,-2.502441,0.305176,10.314941
18572,-0.023682,-0.118774,1.011353,-2.685547,0.183105,10.009766
18583,-0.006470,-0.174683,1.001099,-2.746582,0.061035,9.643555
18592,-0.043945,-0.097534,1.011597,-2.807617,-0.183105,9.460449
18602,-0.015137,-0.107422,1.000977,-2.990723,-0.427246,9.033203
18615,-0.017334,-0.084473,1.036499,-2.929688,-0.061035,8.666992
18624,-0.007568,-0.061157,1.018433,-2.929688,0.488281,8.361816
18634,-0.003296,-0.084595,0.993896,-2.868652,0.793457,8.605957
18643,-0.010742,-0.057617,0.973267,-2.624512,0.427246,8.605957
18652,0.065430,-0.098633,0.935303,-2.624512,0.671387,8.605957
18662,0.036621,-0.124634,0.891724,-2.685547,0.183105,8.544922
18673,0.065430,-0.035278,1.015259,-2.990723,-0.305176,8.300781
18682,0.026978,-0.113647,0.965210,-3.234863,-0.427246,7.080078
18694,0.051514,-0.091797,1.004883,-3.112793,-1.037598,6.591797
18703,0.062744,0.020630,1.052856,-3.051758,-1.159668,5.981445
18713,0.058716,-0.067383,1.061890,-2.990723,-1.525879,5.554199
18723,0.057373,-0.023315,1.083130,-2.807617,-1.892090,4.760742
18732,0.081543,0.044678,1.113281,-2.319336,-2.197266,3.784180
18742,0.067383,-0.032959,0.994873,-1.708984,-2.380371,3.173828
18754,0.085327,-0.089722,1.017456,-1.586914,-3.967285,1.220703
18764,0.108154,-0.009399,0.997070,-0.732422,-3.967285,0.122070
18773,0.070679,-0.037354,0.993774,-0.122070,-4.272461,-0.732422
18783,0.080322,-0.054932,1.029419,0.488281,-5.187988,-2.014160
18792,0.078735,-0.177856,0.963013,1.037598,-5.798340,-3.295898
18803,0.108887,-0.162720,0.939697,1.464844,-5.798340,-4.150391
18813,0.073730,-0.180786,0.951294,1.586914,-6.164551,-4.821777
18822,0.107056,-0.125244,0.994141,1.037598,-6.164551,-5.859375
18834,0.057983,-0.169434,0.884399,0.305176,-5.920410,-6.225586
18843,0.025391,-0.162964,0.887329,-0.549316,-5.920410,-6.469727
18853,0.028931,-0.054687,0.916138,-1.281738,-5.798340,-6.713867
18863,0.007813,-0.063599,0.936279,-1.892090,-5.493164,-6.713867
18873,-0.014771,-0.022095,0.919556,-2.258301,-5.249023,-6.347656
18883,0.022095,-0.004883,1.003662,-2.258301,-4.516602,-6.042480
18892,-0.010498,-0.027832,1.002930,-1.708984,-4.516602,-5.310059
18903,0.008545,-0.058472,0.970581,-1.770020,-3.967285,-4.760742
18913,0.006348,-0.065796,1.027344,-1.403809,-3.234863,-4.211426
18923,-0.014038,-0.105713,0.890747,-1.464844,-2.929688,-4.089355
18932,0.012207,-0.013306,1.005615,-1.586914,-2.807617,-3.601074
18943,-0.041016,-0.103882,0.962646,-1.647949,-2.746582,-3.112793
18953,-0.047119,-0.060059,0.985718,-2.136230,-2.563477,-2.807617
18964,-0.044556,-0.004150,1.069580,-2.868652,-1.647949,-1.770020
18975,-0.090820,-0.085693,0.912476,-2.624512,-1.220703,-0.915527
18984,-0.033203,-0.089600,1.036743,-2.502441,-0.671387,-0.183105
18994,-0.060791,-0.199219,0.970703,-2.014160,-0.183105,0.732422
19004,-0.038086,-0.087769,0.984253,-1.953125,-0.122070,1.831055
19014,-0.018555,-0.150391,0.927856,-2.014160,0.183105,2.746582
19023,0.029907,-0.040771,1.011353,-2.258301,0.915527,4.089355
19033,-0.014771,-0.147583,0.953857,-2.197266,1.159668,4.394531
19042,-0.007202,-0.073730,1.051636,-2.075195,1.525879,4.821777
19052,-0.021729,-0.036865,1.044556,-2.380371,1.464844,5.371094
19063,-0.001221,-0.012085,1.123535,-2.319336,1.220703,5.737305
19073,-0.044312,-0.045044,1.072144,-2.258301,1.098633,6.591797
19082,-0.049683,-0.064819,1.089844,-1.953125,1.037598,7.202148
19094,-0.029785,-0.062988,1.025635,-1.464844,1.831055,8.239746
19104,-0.013672,-0.156494,0.865356,-1.586914,1.403809,8.117676
19113,0.031738,-0.194580,0.906738,-2.258301,1.098633,8.300781
19123,0.025635,-0.113403,0.783691,-2.929688,0.915527,8.239746
19132,0.022217,-0.111572,0.904785,-3.540039,0.976562,7.995605
